time,gyro_x,gyro_y,gyro_z,acc_x,acc_y,acc_z
1621787083343.303,,,,1.795,-5.874,-8.189
1621787083361.961,,,,2.099,-5.452,-8.189
1621787083379.032,0.358,1.513,1.569,2.134108686416129,-5.019893090263026,-7.950440976916046
1621787083380.924,0.3672672769256144,1.5040522843476827,1.5705978063664852,2.138,-4.972,-7.924
1621787083384.953,0.387,1.485,1.574,2.086777524388699,-4.887953325731662,-7.751725224882808
1621787083390.904,0.398,1.471,1.574,2.0111140250855186,-4.763803420752566,-7.497248802736602
1621787083396.883,0.394,1.461,1.573,1.9350966679336121,-4.639072900038009,-7.241582262764474
1621787083400.194,0.3862846113210614,1.4510802145556505,1.5735510991913528,1.893,-4.57,-7.1
1621787083402.891,0.38,1.443,1.574,1.8483617599740594,-4.5227440854046375,-6.991848708579125
1621787083408.93,0.353,1.426,1.571,1.7484136412955364,-4.4169348116184235,-6.749690458077149
1621787083414.996,0.307,1.421,1.576,1.6480129578588978,-4.310646433782722,-6.506435715800108
1621787083419.77,0.2662771837077977,1.4155180824222036,1.5744337378349154,1.569,-4.227,-6.315
1621787083421.092,0.255,1.414,1.574,1.5438033955145671,-4.203997694403689,-6.309098092643052
1621787083425.923,0.206,1.408,1.578,1.4517276042758331,-4.119940515615175,-6.287530790190736
1621787083431.535,0.159,1.405,1.59,1.3447711590861455,-4.022298595682247,-6.262477929155313
1621787083437.155,0.096,1.379,1.614,1.2376565080695872,-3.9245122476070704,-6.237388010899183
1621787083437.242,0.09498020833333333,1.3788300347222222,1.6142472222222224,1.236,-3.923,-6.237
1621787083442.78,0.03,1.368,1.63,1.1492921137339056,-3.934865289699571,-6.260730579399142
1621787083448.412,-0.044,1.356,1.63,1.0611125938841202,-3.94693196083691,-6.28486392167382
1621787083454.05,-0.108,1.335,1.642,0.9728413358369098,-3.959011185622318,-6.309022371244636
1621787083455.445,-0.12307195364524777,1.3285758886102221,1.6459532993167862,0.951,-3.962,-6.315
1621787083459.696,-0.169,1.309,1.658,0.9784589508853992,-4.0692760708319415,-6.506747250250585
1621787083465.347,-0.213,1.286,1.67,1.0149604944871367,-4.211879558970932,-6.7616393852322085
1621787083471.005,-0.251,1.264,1.684,1.0515077714667558,-4.354661717340461,-7.0168508787170065
1621787083473.713,-0.26629667298741594,1.250615411136011,1.6863901051542838,1.069,-4.423,-7.139
1621787083476.67,-0.283,1.236,1.689,1.0815795395534014,-4.539925207387385,-7.29092213152954
1621787083482.34,-0.297,1.213,1.698,1.1057010559113727,-4.7641316094326305,-7.582235829083501
1621787083488.017,-0.309,1.18,1.712,1.129851653107149,-4.988608314136962,-7.873900733678646
1621787083492.048,-0.3011974051638957,1.1537549082785583,1.7155466340164112,1.147,-5.148,-8.081
1621787083493.7,-0.298,1.143,1.717,1.1505910092083964,-5.19647862431335,-8.156680519066953
1621787083499.391,-0.288,1.115,1.726,1.1629631664145637,-5.363502746596608,-8.417423732186927
1621787083505.087,-0.258,1.084,1.73,1.1753454077435448,-5.530663004537855,-8.678379468195207
1621787083510.448,-0.217571972940572,1.04075141291317,1.724358879945196,1.187,-5.688,-8.924
1621787083510.789,-0.215,1.038,1.724,1.186261403439206,-5.690714342360918,-8.931072062069603
1621787083516.499,-0.157,0.997,1.726,1.1738961232932843,-5.736156746897181,-9.049469619466803
1621787083522.215,-0.099,0.976,1.716,1.1615176255997464,-5.781647725920933,-9.16799373488243
1621787083527.937,-0.028,0.941,1.71,1.1491264390604967,-5.827185336452675,-9.286639345995745
1621787083528.919,-0.016343022760207996,0.9382571818259312,1.707085755690052,1.147,-5.835,-9.307
1621787083533.665,0.04,0.925,1.693,1.132150924511405,-5.777139809303061,-9.17387035768846
1621787083539.401,0.098,0.922,1.677,1.1142052362640258,-5.707213506821893,-9.012977980298162
1621787083545.142,0.143,0.916,1.655,1.0962427435073487,-5.637221724701048,-8.851934941790024
1621787083547.457,0.15629308806661285,0.9184169251030205,1.6469435829899317,1.089,-5.609,-8.787
1621787083550.889,0.176,0.922,1.635,1.126816395895121,-5.558455158657253,-8.609724114852629
1621787083556.644,0.195,0.934,1.621,1.190232907272775,-5.473693577596388,-8.312439883467626
1621787083562.405,0.208,0.941,1.613,1.2537139838849374,-5.388845699587938,-8.014852982861342
1621787083566.061,0.208,0.9543128016256032,1.6041247989162646,1.294,-5.335,-7.826
1621787083568.172,0.208,0.962,1.599,1.294,-5.281747685669456,-7.773878308054393
1621787083573.945,0.209,0.969,1.592,1.294,-5.136124437761506,-7.631346848849372
1621787083579.726,0.204,0.963,1.583,1.294,-4.990297960251046,-7.488616474895397
1621787083584.733,0.19015435250432508,0.9707881767163171,1.5726157643782437,1.294,-4.864,-7.365
1621787083585.512,0.188,0.972,1.571,1.2887195721005382,-4.854229129477374,-7.353981784304272
1621787083591.304,0.171,0.965,1.567,1.2494613861128123,-4.781586029421345,-7.272065097007049
1621787083597.103,0.155,0.951,1.562,1.2101552112786167,-4.708854131106102,-7.190048275502625
1621787083602.91,0.133,0.934,1.552,1.1707960832345239,-4.636024248504827,-7.107920961079912
1621787083603.47,0.13164814580965611,0.9324550237824641,1.55006877972808,1.167,-4.629,-7.1
1621787083608.71,0.119,0.918,1.532,1.0793184148213681,-4.629,-7.089109612031953
1621787083614.516,0.105,0.906,1.522,0.9821631495407354,-4.629,-7.077042556790091
1621787083620.328,0.082,0.873,1.515,0.8849139236553824,-4.629,-7.0649638312820375
1621787083622.235,0.07413260039444422,0.8641491754437497,1.509099450295833,0.853,-4.629,-7.061
1621787083626.146,0.058,0.846,1.497,0.7593192079772819,-4.6655583578625235,-7.0853029992608825
1621787083631.969,0.028,0.824,1.494,0.6198360585588506,-4.719990806416058,-7.121488206537948
1621787083637.799,-0.003,0.791,1.475,0.4801833140989899,-4.774489438400394,-7.157717410754808
1621787083641.063,-0.018659805890227577,0.7742216365461848,1.4621365880187416,0.402,-4.805,-7.178
1621787083643.635,-0.031,0.761,1.452,0.33256359688800435,-4.854422381038538,-7.214079699656233
1621787083649.477,-0.052,0.724,1.436,0.17484706247253742,-4.9666794437695465,-7.296030447930936
1621787083655.325,-0.063,0.693,1.419,0.016972343560185066,-5.079049096642456,-7.378063390110884
1621787083659.954,-0.06537229960797397,0.670858536992243,1.4039754358161647,-0.108,-5.168,-7.443
1621787083661.179,-0.066,0.665,1.4,-0.13527087009724995,-5.177499568493592,-7.460771301603658
1621787083667.039,-0.058,0.627,1.379,-0.2657438011206286,-5.222948670058607,-7.545795131062021
1621787083672.905,-0.047,0.583,1.356,-0.3963471887679526,-5.268443215044761,-7.630903973723192
1621787083678.777,-0.031,0.539,1.339,-0.5270864687318865,-5.313985096927932,-7.716101371803954
1621787083678.908,-0.030821926910299002,0.5381096345514951,1.338399003322259,-0.53,-5.315,-7.718
1621787083684.656,-0.023,0.499,1.312,-0.6128183942280535,-5.356409197114027,-7.756386627981616
1621787083690.54,-0.007,0.468,1.286,-0.6975960921251958,-5.398798046062598,-7.795681400364598
1621787083696.429,-0.009,0.442,1.255,-0.7824441420391814,-5.441222071019591,-7.835008781164146
1621787083697.925,-0.006209702789966056,0.43261445483897676,1.2473900985180892,-0.804,-5.452,-7.845
1621787083702.327,0.002,0.405,1.225,-0.9080489565072744,-5.465611726017581,-7.955970173126383
1621787083708.229,0.009,0.384,1.183,-1.0475599672429015,-5.483862612122685,-8.104761295440877
1621787083714.136,0.023,0.354,1.141,-1.187186395567555,-5.502128597202851,-8.253675512789345
1621787083717.005,0.027850173353145123,0.3336292719167905,1.1148090638930164,-1.255,-5.511,-8.326
1621787083720.051,0.033,0.312,1.087,-1.3103061446582613,-5.597105374917054,-8.29834692767087
1621787083725.703,0.061,0.269,1.033,-1.4129219376244193,-5.756866489714665,-8.247039031187791
1621787083731.354,0.096,0.222,0.974,-1.5155244326476442,-5.916606901128069,-8.19573778367618
1621787083735.401,0.13467876588021777,0.19549788263762855,0.940335148215366,-1.589,-6.031,-8.159
1621787083737.004,0.15,0.185,0.927,-1.4227799323321342,-6.005184521978683,-8.196932947296629
1621787083742.655,0.23,0.19,0.935,-0.8368073605520413,-5.914177688326625,-8.330657274295572
1621787083748.304,0.333,0.223,0.991,-0.25106262620859354,-5.823206239886596,-8.464329606697246
1621787083753.657,0.4107181637416789,0.2267911299386185,1.0165901270856748,0.304,-5.737,-8.591
1621787083753.952,0.415,0.227,1.018,0.288308540239726,-5.715135380993151,-8.571026113013698
1621787083759.601,0.456,0.187,0.983,-0.012258253959760268,-5.296322947880993,-8.188430276113014
1621787083765.248,0.415,0.14,0.908,-0.312708141588185,-4.877673413420377,-7.805983251284246
1621787083770.894,0.316,0.129,0.84,-0.6131060707405822,-4.4590962783604455,-7.42360236515411
1621787083771.907,0.2937533512064343,0.12684709850384848,0.8326442532214823,-0.667,-4.384,-7.355
1621787083776.54,0.192,0.117,0.799,-0.7541098724622941,-4.5432358310025025,-7.01875081300269
1621787083782.186,0.068,0.087,0.731,-0.860264844826894,-4.73728588252613,-6.6089864298810275
1621787083787.831,-0.003,0.089,0.7,-0.9664014560443237,-4.931302370086854,-6.199292921858062
1621787083790.15,-0.015327593666176344,0.0926982780998529,0.6979454010556372,-1.01,-5.011,-6.031
1621787083793.474,-0.033,0.098,0.695,-0.9724506887642405,-5.091384690558106,-6.243718670932676
1621787083799.117,-0.038,0.096,0.681,-0.9087111741790386,-5.227836758189534,-6.604806115209039
1621787083804.761,-0.033,0.101,0.646,-0.8449578709219668,-5.364318344288411,-6.965971672980897
1621787083808.387,-0.028501341410644743,0.09136001730852444,0.6177227174383384,-0.804,-5.452,-7.198
1621787083810.403,-0.026,0.086,0.602,-0.9309678836418183,-5.516036937829802,-7.2956590951704925
1621787083816.044,-0.01,0.058,0.576,-1.286210430450272,-5.695205434869954,-7.568898789274904
1621787083821.686,0.0,0.03,0.534,-1.6415298529451154,-5.874412704577719,-7.842197613371548
1621787083826.616,0.01223765204969482,0.014265875936106662,0.4911682178260681,-1.952,-6.031,-8.081
1621787083827.326,0.014,0.012,0.485,-1.9718316116671355,-6.050870573576108,-8.104688840655438
1621787083832.965,0.033,0.012,0.435,-2.129352439138765,-6.208700872221552,-8.292847314334713
1621787083838.605,0.079,0.01,0.382,-2.286893725632059,-6.3665516700832026,-8.48103022629527
1621787083844.243,0.148,0.0,0.339,-2.444380454734247,-6.524347803368303,-8.66914796950574
1621787083844.838,0.1565493958161895,-0.0029553467018926765,0.3353058166226342,-2.461,-6.541,-8.689
1621787083849.88,0.229,-0.028,0.304,-2.249522457076224,-6.578922020131619,-8.59377974507097
1621787083855.518,0.304,-0.028,0.295,-2.013038708466807,-6.621328137356083,-8.487300151456258
1621787083861.154,0.358,-0.03,0.283,-1.7766471203206047,-6.663717728424185,-8.38086205417577
1621787083863.053,0.36844479098982025,-0.03,0.2853585011912497,-1.697,-6.678,-8.345
1621787083866.79,0.389,-0.03,0.29,-1.5097985839188972,-6.653984028858017,-8.121671994850615
1621787083872.426,0.4,-0.051,0.302,-1.22747385077509,-6.617764737434962,-7.784863541275546
1621787083878.06,0.386,-0.051,0.318,-0.9452469559620233,-6.581557997639865,-7.448171807112589
1621787083881.259,0.37294072019759933,-0.05156779477401742,0.3259491268362439,-0.785,-6.561,-7.257
1621787083883.694,0.363,-0.052,0.332,-0.7508823292687835,-6.525544381396971,-7.264893892443693
1621787083889.326,0.342,-0.049,0.351,-0.6719745261378728,-6.443542154613868,-7.283150991991629
1621787083894.96,0.318,-0.058,0.365,-0.5930359370598415,-6.3615079345916,-7.301415214562625
1621787083899.459,0.3108106116433309,-0.06199410464259396,0.3634023581429624,-0.53,-6.296,-7.316
1621787083900.592,0.309,-0.063,0.363,-0.53,-6.293555223880597,-7.3252149253731345
1621787083906.222,0.307,-0.07,0.367,-0.53,-6.281407726075505,-7.371001647869251
1621787083911.796,0.312,-0.068,0.365,-0.53,-6.269380860403863,-7.4163336800162085
1621787083917.366,0.318,-0.061,0.363,-0.53,-6.257362423178226,-7.461633943405146
1621787083917.534,0.3180904826618737,-0.061060321774582434,0.3632111262110385,-0.53,-6.257,-7.463
1621787083922.935,0.321,-0.063,0.37,-0.4032894583259816,-6.2392845451214045,-7.407151277840362
1621787083928.503,0.316,-0.059,0.379,-0.27266700145224554,-6.221022163710148,-7.349578346611653
1621787083934.068,0.307,-0.044,0.391,-0.14210754760515204,-6.20276859077892,-7.292033184489474
1621787083935.522,0.304386553146669,-0.0421705872026683,0.3977949618186606,-0.108,-6.198,-7.277
1621787083939.631,0.297,-0.037,0.417,-0.08558824408603612,-6.1328229547400035,-7.214109868608775
1621787083945.194,0.274,-0.019,0.44,-0.055246953000801666,-6.0445855265839645,-7.128968490563474
1621787083950.754,0.251,0.0,0.456,-0.024922972403766466,-5.956398440153811,-7.043875687867712
1621787083953.49,0.24509380764163372,0.01132020202020202,0.4619061923583663,-0.01,-5.913,-7.002
1621787083956.313,0.239,0.023,0.468,-0.02541251037090434,-5.8884657998177445,-7.002
1621787083961.87,0.223,0.042,0.482,-0.05575234960488555,-5.840169729200387,-7.002
1621787083967.426,0.213,0.066,0.497,-0.08608552425771528,-5.791884267508126,-7.002
1621787083971.44,0.20938579907672014,0.08551668498571115,0.5071197625851835,-0.108,-5.757,-7.002
1621787083972.979,0.208,0.093,0.511,-0.11640922331418616,-5.744300356627555,-7.005346527645441
1621787083978.531,0.209,0.115,0.522,-0.1467445893338415,-5.698487763046852,-7.017418765143059
1621787083984.082,0.213,0.134,0.534,-0.17707461955190157,-5.652683227615496,-7.02948887920943
1621787083989.376,0.2015491990846682,0.15594736842105264,0.5521304347826087,-0.206,-5.609,-7.041
1621787083989.63,0.201,0.157,0.553,-0.21059098588478936,-5.605670118262576,-7.040730775519102
1621787083995.176,0.183,0.169,0.572,-0.3108731266009047,-5.532934614965393,-7.03485003269933
1621787084000.721,0.164,0.19,0.583,-0.411133195269497,-5.460215120715025,-7.0289705842280235
1621787084006.265,0.141,0.202,0.6,-0.5113756063000708,-5.387508433702108,-7.02309217123549
1621787084007.295,0.1369111013215859,0.20664647577092513,0.6016727312775331,-0.53,-5.374,-7.022
1621787084011.807,0.119,0.227,0.609,-0.5693196677713678,-5.398700816933295,-7.004608608485741
1621787084017.346,0.091,0.239,0.616,-0.6175900331410336,-5.429024507998855,-6.9832582545722355
1621787084022.885,0.075,0.255,0.625,-0.6658603985106992,-5.459348199064414,-6.96190790065873
1621787084025.196,0.06915679012345678,0.2579216049382716,0.6233305114638448,-0.686,-5.472,-6.953
1621787084028.422,0.061,0.262,0.621,-0.7587094756963408,-5.489681212452212,-6.983130229382851
1621787084033.956,0.049,0.269,0.623,-0.8834336837793555,-5.520011168760241,-7.034814950846532
1621787084039.49,0.049,0.269,0.614,-1.0081578918623704,-5.550341125068269,-7.086499672310213
1621787084043.077,0.049,0.27094553078790556,0.6049208563231074,-1.089,-5.57,-7.12
1621787084045.021,0.049,0.272,0.6,-1.1370033217141686,-5.559332595174629,-7.132735575148657
1621787084050.551,0.047,0.274,0.583,-1.2735502563051055,-5.528988831932199,-7.168962312897273
1621787084056.08,0.056,0.279,0.572,-1.410073077711708,-5.498650427175177,-7.2051826532704535
1621787084060.937,0.06039549270879364,0.2825163941670349,0.5509016349977905,-1.53,-5.472,-7.237
1621787084061.605,0.061,0.283,0.548,-1.5479652809127098,-5.470540320925843,-7.240667911519679
1621787084067.13,0.059,0.29,0.522,-1.6965596913858907,-5.458467025074897,-7.271005936991286
1621787084072.653,0.061,0.284,0.49,-1.8451081380555667,-5.4463974637829855,-7.301334578186345
1621787084078.175,0.065,0.274,0.464,-1.9936237534370251,-5.434330570033241,-7.331656516326726
1621787084078.784,0.06533097407767849,0.27289675307440503,0.46013863576041764,-2.01,-5.433,-7.335
1621787084083.694,0.068,0.264,0.429,-2.099225106802497,-5.48146795925074,-7.313519881695695
1621787084089.211,0.079,0.251,0.396,-2.199474696023661,-5.535924526235075,-7.289385721327637
1621787084094.728,0.089,0.227,0.367,-2.29972872165626,-5.590383503121919,-7.265250492934603
1621787084096.614,0.09310449413327429,0.2228955058667257,0.35673876466681426,-2.334,-5.609,-7.257
1621787084100.242,0.101,0.215,0.337,-2.4118095786385942,-5.597185980206706,-7.237038380349261
1621787084105.755,0.11,0.188,0.305,-2.5300476738766897,-5.579233599254325,-7.2067050470159275
1621787084111.267,0.12,0.159,0.271,-2.648270060586123,-5.561283603366505,-7.176375743619267
1621787084114.425,0.12114651657507534,0.14065573479879454,0.2515092182237192,-2.716,-5.551,-7.159
1621787084116.776,0.122,0.127,0.237,-2.703052823665002,-5.553510166840459,-7.153847552274848
1621787084122.283,0.124,0.099,0.206,-2.6727226277372265,-5.559390510948905,-7.141777372262774
1621787084127.79,0.115,0.08,0.183,-2.6423924318094505,-5.565270855057352,-7.1297071922507
1621787084132.219,0.10212262644188111,0.05665976042590949,0.1620742679680568,-2.618,-5.57,-7.12
1621787084133.293,0.099,0.051,0.157,-2.598474412532637,-5.577133186752783,-7.12707273601759
1621787084138.796,0.084,0.03,0.138,-2.498427415143603,-5.613682863817507,-7.163312670056342
1621787084144.297,0.056,0.026,0.115,-2.3984114882506526,-5.650221190050845,-7.199541349457194
1621787084149.788,0.035,0.003,0.099,-2.2985819843342035,-5.686691411295864,-7.235702501030644
1621787084149.985,0.03460516834941956,0.002712849708668772,0.09846159320375396,-2.295,-5.688,-7.237
1621787084155.277,0.024,-0.005,0.084,-2.175012227699595,-5.743516730467351,-7.339676103660048
1621787084160.765,0.007,-0.026,0.063,-2.0505849742502273,-5.801087549227507,-7.446151166313239
1621787084166.25,0.005,-0.049,0.051,-1.9262186114400595,-5.858630194706838,-7.55257412354383
1621787084167.715,0.0060686492743299795,-0.04980148695574749,0.04806121449559256,-1.893,-5.874,-7.581
1621787084171.734,0.009,-0.052,0.04,-1.706025694750772,-5.960906746250551,-7.571923577415086
1621787084177.217,0.023,-0.044,0.031,-1.4509223643581826,-6.079480260255845,-7.559539920599912
1621787084182.697,0.04,-0.045,0.03,-1.1959666960741067,-6.197985140052933,-7.547163431848258
1621787084185.426,0.05245431856671718,-0.04250913628665656,0.032490863713343435,-1.069,-6.257,-7.541
1621787084188.175,0.065,-0.04,0.035,-0.9653479532970825,-6.293519086919319,-7.49375828755969
1621787084193.651,0.089,-0.023,0.038,-0.7588815451709956,-6.366262124265091,-7.39965665626984
1621787084199.127,0.124,0.0,0.038,-0.5524059317121642,-6.4390084048690275,-7.305550829446024
1621787084203.116,0.14586501918101524,0.015305513426710679,0.04237300383620305,-0.402,-6.492,-7.237
1621787084204.6,0.154,0.021,0.044,-0.355901805323425,-6.487045913504703,-7.225496443222785
1621787084210.071,0.185,0.047,0.051,-0.18597016450957915,-6.468783678881722,-7.183090915369421
1621787084215.541,0.213,0.096,0.061,-0.016068856444327817,-6.450524704062323,-7.1406929568904784
1621787084220.791,0.23796780243826196,0.13441200375117224,0.07252360112535167,0.147,-6.433,-7.1
1621787084221.008,0.239,0.136,0.073,0.14917605896751532,-6.428537234998824,-7.099754117630789
1621787084226.473,0.264,0.164,0.084,0.20396672705397517,-6.316169932652017,-7.093563081688816
1621787084231.938,0.283,0.206,0.089,0.25875984290080345,-6.2037976103220815,-7.087371769163751
1621787084237.4,0.293,0.234,0.098,0.3135211378628424,-6.091490547772815,-7.081184052218888
1621787084238.445,0.29472273641851104,0.24108236083165663,0.09953132126089873,0.324,-6.07,-7.08
1621787084242.86,0.302,0.271,0.106,0.30922896736948485,-5.984127725554802,-7.033433693741088
1621787084248.32,0.302,0.297,0.119,0.29096202566693896,-5.877931776334917,-6.975846386000859
1621787084253.776,0.29,0.316,0.133,0.27270896958453894,-5.771816551991472,-6.918302853266512
1621787084256.08,0.2819744897959184,0.32909425349087,0.13511197636949518,0.265,-5.727,-6.894
1621787084259.231,0.271,0.347,0.138,0.21580395880404196,-5.681381852709203,-6.855358745824266
1621787084264.685,0.25,0.358,0.147,0.1306467016896996,-5.602417850657722,-6.788471591145364
1621787084270.135,0.216,0.368,0.154,0.04555424642723477,-5.523513937596164,-6.721635335375574
1621787084273.693,0.1898852304797742,0.3738758231420508,0.15922295390404514,-0.01,-5.472,-6.678
1621787084275.585,0.176,0.377,0.162,-0.04375440105431089,-5.455122799472845,-6.686492349309843
1621787084281.033,0.134,0.372,0.162,-0.14095784143719223,-5.406521079281404,-6.710947991953943
1621787084286.479,0.086,0.372,0.164,-0.23812643407088857,-5.357936782964556,-6.735394867170701
1621787084291.292,0.04268029956500292,0.3516662630611238,0.17195667967173414,-0.324,-5.315,-6.757
1621787084291.923,0.037,0.349,0.173,-0.3384339190221543,-5.3178365164247525,-6.7671970970206266
1621787084297.365,-0.012,0.34,0.175,-0.46289506215709425,-5.342295298284603,-6.855124869782624
1621787084302.806,-0.054,0.326,0.171,-0.5873338704076672,-5.366749690950761,-6.943036863671089
1621787084308.244,-0.101,0.297,0.173,-0.7117056740051393,-5.391190916035836,-7.030901520938954
1621787084308.869,-0.10502334979793444,0.29481589582397844,0.17196542433767398,-0.726,-5.394,-7.041
1621787084313.681,-0.136,0.278,0.164,-0.778102839600921,-5.465431312356102,-7.159211818879509
1621787084319.117,-0.168,0.25,0.162,-0.8369623944742901,-5.546125863392172,-7.292753389613712
1621787084324.215,-0.169,0.22,0.145,-0.8921633836445809,-5.62180463886757,-7.417994343537705
1621787084326.047,-0.16415870967741936,0.21204645161290323,0.13842967741935483,-0.912,-5.649,-7.463
1621787084329.513,-0.155,0.197,0.126,-0.8743034335070312,-5.710611592547648,-7.498669869369691
1621787084334.808,-0.134,0.173,0.108,-0.8167096866300235,-5.80474330787351,-7.553167178242559
1621787084340.099,-0.106,0.157,0.098,-0.7591610821614676,-5.898801242058677,-7.607621771718182
1621787084343.148,-0.08927937577912184,0.1500811210120504,0.08762168151807563,-0.726,-5.953,-7.639
1621787084345.387,-0.077,0.145,0.08,-0.6628901685312885,-5.947751781166843,-7.608166714355203
1621787084350.671,-0.042,0.148,0.068,-0.5139548198803972,-5.935366305187559,-7.5354020429769095
1621787084355.953,-0.014,0.152,0.061,-0.365074522876191,-5.922985407307792,-7.462664267933274
1621787084360.213,0.0013380060143418932,0.16007263474439049,0.04808378440897525,-0.245,-5.913,-7.404
1621787084361.23,0.005,0.162,0.045,-0.21573934980792386,-5.904818961068746,-7.3823232326128085
1621787084366.503,0.012,0.173,0.033,-0.06404191273436158,-5.8624055960094035,-7.269943294535864
1621787084371.775,0.017,0.194,0.03,0.08762742961986125,-5.820000086004243,-7.157584169485695
1621787084377.041,0.016,0.206,0.017,0.2391282036580471,-5.777641706324179,-7.0453499225961815
1621787084377.245,0.015379620611288902,0.20665915310050553,0.016806131441027782,0.245,-5.776,-7.041
1621787084382.305,0.0,0.223,0.012,0.3822753200477018,-5.787613313409675,-7.02343114125203
1621787084387.565,-0.007,0.241,0.005,0.5249820399718387,-5.7996861161798305,-7.005167157574103
1621787084392.822,-0.009,0.264,0.007,0.6676092759953447,-5.811752194715441,-6.986913346456127
1621787084394.237,-0.012232571109871724,0.27100390407138875,0.007538761851645287,0.706,-5.815,-6.982
1621787084398.075,-0.021,0.29,0.009,0.77027411459833,-5.877237258854017,-7.022058162971494
1621787084403.325,-0.03,0.3,0.0,0.858197178232076,-5.962374028217679,-7.07685528361647
1621787084408.571,-0.031,0.297,-0.003,0.946054822919666,-6.047447451770803,-7.131611632594299
1621787084411.195,-0.03450407526431,0.29950291090307857,-0.005002328722462857,0.99,-6.09,-7.159
1621787084413.813,-0.038,0.302,-0.007,0.9931130788213093,-6.155685963129627,-7.227643388009871
1621787084419.053,-0.037,0.311,-0.005,0.9993441718681957,-6.287162026418929,-7.365038989693715
1621787084424.289,-0.028,0.316,-0.014,1.0055706198287124,-6.418540078385832,-7.502332167223109
1621787084428.014,-0.016357323412982308,0.3145446654266228,-0.01763833643344303,1.01,-6.512,-7.6
1621787084429.408,-0.012,0.314,-0.019,0.9912595726059369,-6.55447830209321,-7.66046911239151
1621787084434.592,0.003,0.311,-0.031,0.9215688133615345,-6.712444023047189,-7.885337962220115
1621787084439.772,0.028,0.312,-0.049,0.8519338487345927,-6.87028327620159,-8.110026781416382
1621787084444.751,0.06359833938764921,0.3043030617540218,-0.06439387649195641,0.785,-7.022,-8.326
1621787084444.947,0.065,0.304,-0.065,0.7813127970402001,-7.026720559203311,-8.331871342292676
1621787084450.12,0.098,0.302,-0.087,0.6840174751034613,-7.151283359899391,-8.48680019887984
1621787084455.288,0.15,0.291,-0.106,0.5868185806413875,-7.27572270886039,-8.641575508532823
1621787084460.451,0.211,0.283,-0.131,0.4897161136539783,-7.400038606086309,-8.796197271251627
1621787084461.446,0.22507511825922422,0.2799150425733207,-0.13639867549668874,0.471,-7.424,-8.826
1621787084465.612,0.284,0.267,-0.159,0.4807547161514445,-7.453264148454334,-8.720448968822831
1621787084470.767,0.37,0.239,-0.187,0.4928252055758322,-7.489475616727497,-8.58984008325638
1621787084475.919,0.463,0.211,-0.213,0.5048882634888527,-7.525664790466559,-8.459311610453952
1621787084478.102,0.5011665560087262,0.19997410604192356,-0.21893701982357963,0.51,-7.541,-8.404
1621787084481.067,0.553,0.185,-0.227,0.657055064881626,-7.465866283598102,-8.221965817743618
1621787084486.211,0.627,0.159,-0.237,0.9121975399356328,-7.33550829573677,-7.906134113186474
1621787084491.35,0.7,0.136,-0.23,1.1670978294414156,-7.205274045880054,-7.590602201419607
1621787084494.715,0.735372938548548,0.12093374839598879,-0.22344945582434295,1.334,-7.12,-7.384
1621787084496.487,0.754,0.113,-0.22,1.3665053698492906,-7.005696577733909,-7.253016190574405
1621787084501.618,0.784,0.105,-0.206,1.4606267328628884,-6.674723758452541,-6.873744250799216
1621787084506.746,0.787,0.093,-0.201,1.5546988317447221,-6.343924173897671,-6.494670826028669
1621787084511.287,0.7683893653516295,0.08059291023441967,-0.1841618067467124,1.638,-6.051,-6.159
1621787084511.87,0.766,0.079,-0.182,1.6490767867166956,-6.030574969716667,-6.115045617041392
1621787084516.99,0.724,0.075,-0.157,1.7463511980382307,-5.851205911897657,-5.7290458829438355
1621787084522.105,0.654,0.079,-0.126,1.8435328389517533,-5.672007917983869,-5.343414276006737
1621787084527.218,0.585,0.084,-0.082,1.940677371702071,-5.492878349632169,-4.95792991993382
1621787084527.814,0.5743559346398964,0.08505270976088936,-0.07732128995160285,1.952,-5.472,-4.913
1621787084532.313,0.494,0.093,-0.042,1.9571926795989796,-5.426359079314231,-4.808599810167883
1621787084537.412,0.396,0.094,0.007,1.9630779794744024,-5.374630390935517,-4.690274307409385
1621787084542.507,0.298,0.091,0.058,1.968958489054992,-5.322943806727175,-4.572045114789108
1621787084544.276,0.26533355717574825,0.08960993860322333,0.07433322141212587,1.971,-5.305,-4.531
1621787084547.597,0.204,0.087,0.105,1.8541458125882442,-5.330877743925094,-4.6242003121052235
1621787084552.684,0.126,0.066,0.15,1.6751492160214014,-5.370517128631938,-4.766964033588467
1621787084557.767,0.065,0.033,0.188,1.4962986549751058,-5.41012417329271,-4.909611280374526
1621787084560.703,0.039561276984470414,0.01681172171739026,0.2134387230155296,1.393,-5.433,-4.992
1621787084562.845,0.021,0.005,0.232,1.290399225383584,-5.456003485773872,-5.082968330105765
1621787084567.919,-0.016,-0.042,0.258,1.0473684641739909,-5.510491911217041,-5.298445285267391
1621787084572.99,-0.044,-0.077,0.293,0.8044780277074333,-5.56494887531655,-5.513797825115447
1621787084577.092,-0.06748231325301204,-0.09805310843373494,0.315672578313253,0.608,-5.609,-5.688
1621787084578.056,-0.073,-0.103,0.321,0.5646464972435121,-5.622330464793151,-5.7215620994128455
1621787084583.118,-0.096,-0.131,0.347,0.33696373985926226,-5.692339040533071,-5.897822628598748
1621787084588.177,-0.105,-0.162,0.365,0.10941275603962175,-5.762307098142919,-6.073981145324429
1621787084593.23,-0.122,-0.192,0.382,-0.11786369952041587,-5.832190742981788,-6.249927136091315
1621787084593.433,-0.12264355813391346,-0.19264355813391346,0.3821608895334784,-0.127,-5.835,-6.257
1621787084598.28,-0.138,-0.208,0.386,-0.20875831498869374,-5.942920975785076,-6.501680339038891
1621787084603.326,-0.157,-0.208,0.372,-0.29387295026730764,-6.0552722943528465,-6.756405229345433
1621787084608.367,-0.171,-0.202,0.365,-0.3789052218578253,-6.16751489285233,-7.010883627596328
1621787084609.736,-0.1761634037604187,-0.19411901531304518,0.3598365962395813,-0.402,-6.198,-7.08
1621787084613.405,-0.19,-0.173,0.346,-0.2914419337887546,-6.255535320171159,-7.296829186997973
1621787084618.439,-0.206,-0.126,0.318,-0.13975197057277983,-6.334476015314166,-7.594327257713385
1621787084623.468,-0.215,-0.063,0.295,0.011790856542301609,-6.413340139629157,-7.891536761504392
1621787084625.997,-0.21147687299582157,-0.029781945389175002,0.28694713827616364,0.088,-6.453,-8.041
1621787084628.493,-0.208,0.003,0.279,0.27285550640977585,-6.561215578379189,-8.102771781992654
1621787084633.554,-0.173,0.065,0.265,0.647701896693905,-6.780653017467577,-8.228031396656421
1621787084638.586,-0.105,0.105,0.255,1.0203964914911163,-6.998830781917685,-8.352571961916187
1621787084642.28,-0.03667356154406408,0.13291832969167272,0.2461836853605244,1.294,-7.159,-8.444
1621787084643.614,-0.012,0.143,0.243,1.3222776590943284,-7.134010440800361,-8.399610651421694
1621787084648.639,0.077,0.168,0.237,1.4287950052655334,-7.03987883255604,-8.232403189408757
1621787084653.659,0.15,0.195,0.23,1.535208846095983,-6.945838694147736,-8.065358206709794
1621787084658.508,0.18576822739219312,0.20756721502968947,0.22516645575781175,1.638,-6.855,-7.904
1621787084658.675,0.187,0.208,0.225,1.6283832008327173,-6.8475088023654,-7.894290334746338
1621787084663.689,0.202,0.209,0.218,1.339640211799846,-6.622586688590867,-7.602759055046841
1621787084668.697,0.199,0.206,0.208,1.0512346543167042,-6.397927423856145,-7.311568465356244
1621787084673.701,0.182,0.195,0.204,0.7630681108479537,-6.173454343857955,-7.020619197755284
1621787084674.692,0.17783875219683656,0.19301845342706503,0.203603690685413,0.706,-6.129,-6.963
1621787084678.702,0.161,0.185,0.202,0.43071789441839353,-6.104651943730146,-6.836290727575253
1621787084683.699,0.129,0.161,0.194,0.08767532899712593,-6.074310633792164,-6.678392073816367
1621787084688.691,0.096,0.136,0.187,-0.25501527756769027,-6.044000453789139,-6.520655422780215
1621787084690.832,0.08484169317347688,0.1261291901149988,0.18399584046978223,-0.402,-6.031,-6.453
1621787084693.68,0.07,0.113,0.18,-0.5373289304074855,-6.067441515900578,-6.4928026265904375
1621787084698.665,0.038,0.094,0.176,-0.7742154653402284,-6.1312305697517475,-6.562475136864773
1621787084703.645,0.012,0.079,0.159,-1.010858373394398,-6.1949540195022825,-6.632075992174823
1621787084706.931,0.007379450711132908,0.06975890142226582,0.1543794507111329,-1.167,-6.237,-6.678
1621787084708.623,0.005,0.065,0.152,-1.1908149724815278,-6.24110966339283,-6.730687992215769
1621787084713.595,0.01,0.047,0.133,-1.2607892784382888,-6.253184875482713,-6.885498403624532
1621787084718.564,0.035,0.04,0.103,-1.3307223522972604,-6.265252972299085,-7.040217593578009
1621787084722.989,0.058172050941633476,0.023066578158037077,0.07626301814426906,-1.393,-6.276,-7.178
1621787084723.529,0.061,0.021,0.073,-1.378858105958459,-6.272079143121184,-7.169152938324723
1621787084728.49,0.089,0.01,0.045,-1.2489470359204327,-6.236061145030073,-7.087881558016574
1621787084733.514,0.098,0.003,0.024,-1.117386504461648,-6.1995858318057175,-7.005578287151362
1621787084738.494,0.094,-0.012,0.0,-0.9869767600406018,-6.163429575651067,-6.923994939930613
1621787084739.104,0.09301913453046806,-0.015187812775978804,-0.0023295554901383575,-0.971,-6.159,-6.914
1621787084743.47,0.086,-0.038,-0.019,-0.8003077788248169,-6.10300860260814,-6.818053576313949
1621787084748.441,0.075,-0.056,-0.031,-0.6059631881326565,-6.039258625406572,-6.708812110526796
1621787084753.41,0.059,-0.075,-0.042,-0.41169495698695935,-5.97553369608171,-6.599613566586619
1621787084755.167,0.05050671190441068,-0.0842010621035551,-0.048016079067709105,-0.343,-5.953,-6.561
1621787084758.375,0.035,-0.101,-0.059,-0.24490145351494655,-5.933380290702989,-6.535374257244721
1621787084763.335,0.003,-0.119,-0.063,-0.09322945424627482,-5.903045890849255,-6.495753816619435
1621787084768.292,-0.026,-0.12,-0.072,0.05835295730871193,-5.872729408538258,-6.456156778498949
1621787084771.191,-0.0494108832807571,-0.1264379929022082,-0.07375581624605677,0.147,-5.855,-6.433
1621787084773.245,-0.066,-0.131,-0.075,0.18607092122748864,-5.890215238211618,-6.479653764492034
1621787084778.195,-0.101,-0.143,-0.072,0.2802191180289306,-5.9750724945392335,-6.592074144225335
1621787084783.141,-0.127,-0.145,-0.072,0.3742930178563246,-6.059862785831029,-6.704405807506072
1621787084787.174,-0.14005978851665182,-0.1433675264354185,-0.06628634252396481,0.451,-6.129,-6.796
1621787084788.082,-0.143,-0.143,-0.065,0.4610809060001838,-6.150813485864804,-6.831767282305737
1621787084793.02,-0.145,-0.138,-0.058,0.515906505559129,-6.26944741033416,-7.026289748537475
1621787084797.955,-0.138,-0.133,-0.059,0.5706995773224295,-6.388010949799381,-7.220696805415174
1621787084802.885,-0.117,-0.127,-0.045,0.625435725443352,-6.506451315507366,-7.414901895923306
1621787084803.116,-0.1158749814181656,-0.1266718695802983,-0.044953124225756896,0.628,-6.512,-7.424
1621787084807.812,-0.093,-0.12,-0.044,0.6336101960302719,-6.5843420014429785,-7.548310133091814
1621787084812.735,-0.052,-0.108,-0.037,0.6394916414656986,-6.660181692584007,-7.678630581950478
1621787084817.654,-0.003,-0.094,-0.035,0.6453681285786654,-6.735957447461738,-7.808841164822007
1621787084819.02,0.011451619312537256,-0.09177667395191734,-0.03388833697595867,0.647,-6.757,-7.845
1621787084822.569,0.049,-0.086,-0.031,0.6209938380147093,-6.735217060901209,-7.831885781562972
1621787084827.482,0.101,-0.072,-0.031,0.584994526077583,-6.705063791073531,-7.813732282381003
1621787084832.473,0.15,-0.058,-0.026,0.5484227458295745,-6.674431017874344,-7.79529010259782
1621787084834.987,0.17037392422593728,-0.05850934810564843,-0.026,0.53,-6.659,-7.786
1621787084837.409,0.19,-0.059,-0.026,0.5120634069352293,-6.61279047210432,-7.705589341260477
1621787084842.344,0.227,-0.044,-0.023,0.47551398231715725,-6.518629242579795,-7.54173641225234
1621787084847.273,0.248,-0.038,-0.016,0.4390097608066073,-6.4245844685187175,-7.3780861310736885
1621787084850.92,0.25170100589663547,-0.03725979882067291,-0.011558792924037461,0.412,-6.355,-7.257
1621787084852.2,0.253,-0.037,-0.01,0.4064440980434315,-6.325771124489357,-7.216739840894431
1621787084857.123,0.248,-0.037,-0.003,0.38507565193353194,-6.213354516693799,-7.061896028503854
1621787084862.042,0.23,-0.031,0.007,0.36372522038271343,-6.10103268114384,-6.907182756396473
1621787084866.817,0.20960280095351608,-0.032942590385379424,0.007,0.343,-5.992,-6.757
1621787084866.958,0.209,-0.033,0.007,0.3412562223898287,-5.991475087352041,-6.754295365339326
1621787084871.87,0.182,-0.026,0.014,0.28055586682469563,-5.973203041544169,-6.660147875075038
1621787084876.779,0.141,-0.019,0.021,0.21989473117121,-5.954942801730109,-6.566061215694122
1621787084881.685,0.11,-0.017,0.024,0.15926979851309125,-5.9366934597564915,-6.472030707897856
1621787084882.678,0.10250378599183023,-0.016392198864202453,0.024810401514396733,0.147,-5.933,-6.453
1621787084886.586,0.073,-0.014,0.028,0.09364580343502615,-5.9572069965896635,-6.457693193216364
1621787084891.484,0.042,-0.016,0.031,0.026775565946021013,-5.9875462710059715,-6.463575297439934
1621787084896.379,0.017,-0.009,0.028,-0.040054673394750245,-6.0178673981142845,-6.469453883307872
1621787084898.499,0.008330737745832087,-0.009,0.029300389338125187,-0.069,-6.031,-6.472
1621787084901.27,-0.003,-0.009,0.031,-0.0998943843857777,-6.070671198131737,-6.504825283409889
1621787084906.157,-0.017,-0.014,0.024,-0.1543801017646422,-6.140635812493233,-6.562716358124932
1621787084911.041,-0.026,-0.016,0.017,-0.20883315547719575,-6.2105584837377625,-6.620572727694521
1621787084914.285,-0.029322913019556845,-0.023974991246936427,0.012347921772620417,-0.245,-6.257,-6.659
1621787084915.922,-0.031,-0.028,0.01,-0.25321253177900416,-6.275296273330439,-6.677296273330439
1621787084920.799,-0.026,-0.033,0.009,-0.2776762262045018,-6.329797668506232,-6.731797668506232
1621787084925.672,-0.028,-0.037,-0.005,-0.3021203261610963,-6.384255410181683,-6.786255410181683
1621787084930.034,-0.024417305860530404,-0.05401779716248058,-0.008582694139469594,-0.324,-6.433,-6.835
1621787084930.542,-0.024,-0.056,-0.009,-0.32682108636041535,-6.436462242351419,-6.839712496533876
1621787084935.451,-0.014,-0.061,-0.023,-0.354078935206581,-6.469915056844441,-6.885245494038266
1621787084940.358,-0.005,-0.073,-0.033,-0.3813259389345904,-6.503354561419725,-6.930760375265736
1621787084945.26,0.007,-0.082,-0.044,-0.4085458298672089,-6.536760791200666,-6.976229965800906
1621787084945.882,0.008523771553872222,-0.08441263829363102,-0.045523771553872217,-0.412,-6.541,-6.982
1621787084950.159,0.019,-0.101,-0.056,-0.412,-6.5464076246334315,-6.982
1621787084955.055,0.035,-0.115,-0.068,-0.412,-6.552598086124402,-6.982
1621787084959.949,0.045,-0.126,-0.082,-0.412,-6.558786078098472,-6.982
1621787084961.7,0.047148377433849226,-0.13208706939590614,-0.08450644033949077,-0.412,-6.561,-6.982
1621787084964.839,0.051,-0.143,-0.089,-0.41001116765401924,-6.555033502962058,-6.94898538305672
1621787084969.726,0.056,-0.145,-0.096,-0.40691500518166773,-6.545745015545003,-6.897589086015684
1621787084974.609,0.061,-0.152,-0.11,-0.4038214722123401,-6.5364644166370205,-6.846236438724846
1621787084977.484,0.06217824803642003,-0.16437160438241033,-0.11412386812747011,-0.402,-6.531,-6.816
1621787084979.489,0.063,-0.173,-0.117,-0.38952133333333333,-6.516102,-6.796008666666666
1621787084984.366,0.054,-0.175,-0.129,-0.3591702015503876,-6.479866465116279,-6.747384914728682
1621787084989.24,0.044,-0.176,-0.127,-0.3288373023255814,-6.443652697674418,-6.698790372093023
1621787084993.231,0.03662467415279728,-0.17927792259875677,-0.13437532584720274,-0.304,-6.414,-6.659
1621787084994.11,0.035,-0.18,-0.136,-0.2973987167736022,-6.408461635259209,-6.6578811384362035
1621787084998.978,0.03,-0.195,-0.145,-0.2608469294225481,-6.3777953051934935,-6.65168592024111
1621787085003.841,0.017,-0.188,-0.148,-0.22433180568285976,-6.347159735276298,-6.645496916217434
1621787085008.701,0.005,-0.202,-0.15,-0.18784051329055912,-6.316544159455639,-6.63931195140518
1621787085008.946,0.004596442747324524,-0.20210088931316889,-0.1504540019092599,-0.186,-6.315,-6.639
1621787085013.56,-0.003,-0.204,-0.159,-0.11685265222874403,-6.303524482710302,-6.644884880661383
1621787085018.414,-0.016,-0.204,-0.159,-0.04410872035996202,-6.291452085506547,-6.651075853586386
1621787085023.264,-0.026,-0.202,-0.152,0.02857301219075495,-6.2793900107428104,-6.657261532952404
1621787085024.627,-0.02740544758835968,-0.1980647467525929,-0.152,0.049,-6.276,-6.659
1621787085028.113,-0.031,-0.188,-0.152,0.08376094709421322,-6.280428146126651,-6.6720630310736215
1621787085032.995,-0.049,-0.194,-0.145,0.13244185325311664,-6.286629535446257,-6.690357129566458
1621787085037.874,-0.052,-0.188,-0.141,0.18109111207591638,-6.292826893258079,-6.708639335111331
1621787085040.372,-0.055584784784784784,-0.18543943943943944,-0.13741521521521521,0.206,-6.296,-6.718
1621787085042.752,-0.059,-0.183,-0.134,0.21189605918205925,-6.307792118364119,-6.747631476914965
1621787085047.625,-0.066,-0.175,-0.126,0.223968827059973,-6.331937654119946,-6.808304874455249
1621787085052.495,-0.075,-0.164,-0.122,0.23603433676080585,-6.356068673521611,-6.868941795003024
1621787085056.114,-0.06831058516772803,-0.164,-0.11531058516772803,0.245,-6.374,-6.914
1621787085057.364,-0.066,-0.164,-0.113,0.2434882203021073,-6.381797600547025,-6.922593274072232
1621787085062.228,-0.063,-0.141,-0.108,0.23760556660657675,-6.412139709081868,-6.956031516131038
1621787085067.09,-0.056,-0.141,-0.105,0.23172527506682414,-6.442469633865855,-6.989456331199105
1621787085071.824,-0.05112863028841322,-0.13320580846146116,-0.09915435634609587,0.226,-6.472,-7.022
1621787085071.949,-0.051,-0.133,-0.099,0.22584055059871383,-6.472709549835724,-7.0221514769312225
1621787085076.804,-0.037,-0.129,-0.094,0.2196475607667274,-6.500268354588063,-7.028034817271609
1621787085081.657,-0.028,-0.12,-0.087,0.21345706233163605,-6.52781607262422,-7.033915790784946
1621787085086.507,-0.007,-0.112,-0.086,0.20727030099188737,-6.555347160586101,-7.039793214057707
1621787085087.503,-0.005150858812270186,-0.10973993854833022,-0.08476723920818012,0.206,-6.561,-7.041
1621787085091.354,0.002,-0.101,-0.08,0.19640181608262863,-6.556077854401348,-7.019342559365931
1621787085096.198,0.017,-0.099,-0.075,0.1843289387462165,-6.54988663525447,-6.992101195119668
1621787085101.039,0.031,-0.099,-0.072,0.17226336318532157,-6.543699160607858,-6.964876306674572
1621787085103.151,0.03405622854835453,-0.0968169796083182,-0.07025358368665455,0.167,-6.541,-6.953
1621787085105.876,0.038,-0.094,-0.068,0.17031516913649722,-6.525645532420434,-6.918801413118239
1621787085110.712,0.038,-0.087,-0.063,0.17619824298130432,-6.498397611455012,-6.858112861877071
1621787085115.544,0.038,-0.082,-0.056,0.18207656474707684,-6.471171700118802,-6.797473332082786
1621787085118.769,0.038,-0.0786600930420712,-0.048652204692556635,0.186,-6.453,-6.757
1621787085120.372,0.038,-0.077,-0.045,0.17591998245504104,-6.4448742715709,-6.740851400463688
1621787085125.199,0.033,-0.063,-0.045,0.14556786139482425,-6.420406745410113,-6.692226063663137
1621787085130.021,0.026,-0.059,-0.037,0.11524644401278275,-6.39596397017357,-6.643649915408234
1621787085134.354,0.013414678620270475,-0.059,-0.03520209694575293,0.088,-6.374,-6.6
1621787085134.841,0.012,-0.059,-0.035,0.08555764129769435,-6.3752524916422075,-6.600594933530049
1621787085139.659,0.0,-0.054,-0.031,0.06139849010406039,-6.3876417999466355,-6.606479854974651
1621787085144.472,-0.012,-0.045,-0.028,0.037263823709447044,-6.400018551943873,-6.61235881217334
1621787085149.283,-0.021,-0.038,-0.03,0.013138951234441948,-6.412390281418235,-6.618235383673661
1621787085149.909,-0.021911158493248047,-0.03852066199614174,-0.02973966900192913,0.01,-6.414,-6.619
1621787085154.092,-0.028,-0.042,-0.028,-0.011290163264022145,-6.424510333763251,-6.656190411777659
1621787085158.896,-0.031,-0.033,-0.026,-0.03574017741986221,-6.436580593916134,-6.69890056308786
1621787085163.698,-0.031,-0.031,-0.026,-0.06018025103023058,-6.448645946711126,-6.741593349900909
1621787085165.431,-0.031,-0.030638980723259244,-0.026,-0.069,-6.453,-6.757
1621787085168.498,-0.031,-0.03,-0.026,-0.08840078789788844,-6.464680066183423,-6.764720721714466
1621787085173.293,-0.021,-0.037,-0.024,-0.11873044437440908,-6.4829397573274505,-6.776790687046959
1621787085178.086,-0.026,-0.04,-0.031,-0.1490477466120391,-6.501192010715411,-6.788855735896628
1621787085180.924,-0.02303806563391765,-0.04236954749286588,-0.030407613126783528,-0.167,-6.512,-6.796
1621787085182.877,-0.021,-0.044,-0.03,-0.167,-6.515662777111097,-6.796
1621787085187.664,-0.019,-0.044,-0.033,-0.167,-6.5246413661340235,-6.796
1621787085192.448,-0.019,-0.047,-0.031,-0.167,-6.533614002400051,-6.796
1621787085196.386,-0.019,-0.044528979216667514,-0.03264734718888832,-0.167,-6.541,-6.796
1621787085197.229,-0.019,-0.044,-0.033,-0.16590736492366112,-6.541,-6.797092635076339
1621787085202.007,-0.016,-0.049,-0.035,-0.15971450043509217,-6.541,-6.803285499564908
1621787085206.782,-0.012,-0.049,-0.037,-0.15352574954513093,-6.541,-6.809474250454869
1621787085211.555,-0.005,-0.058,-0.035,-0.14733953010046674,-6.541,-6.815660469899533
1621787085211.817,-0.004725350670625576,-0.057890140268250234,-0.03510985973174977,-0.147,-6.541,-6.816
1621787085216.324,0.0,-0.056,-0.037,-0.13558607460486055,-6.538073352462785,-6.804293409851139
1621787085221.09,-0.003,-0.049,-0.037,-0.12351616227270565,-6.5349785031468475,-6.79191401258739
1621787085225.853,-0.002,-0.058,-0.037,-0.11145428748077807,-6.531885714738661,-6.779542858954644
1621787085227.217,-0.0014268861876186082,-0.05599410165666513,-0.03843278453095348,-0.108,-6.531,-6.776
1621787085230.613,0.0,-0.051,-0.042,-0.09496137775447627,-6.522381249702111,-6.763182371351858
1621787085235.37,0.003,-0.058,-0.04,-0.07669699569451727,-6.510308183594681,-6.745227555089525
1621787085240.125,0.003,-0.058,-0.04,-0.05844104983874299,-6.498240693961203,-6.727281032044866
1621787085242.584,0.0014472764645426517,-0.054376978417266186,-0.04103514902363824,-0.049,-6.492,-6.718
1621787085244.876,0.0,-0.051,-0.042,-0.04018357341822523,-6.492,-6.72083918822125
1621787085249.625,-0.003,-0.054,-0.035,-0.021915877437325905,-6.492,-6.72672200557103
1621787085254.37,-0.009,-0.049,-0.042,-0.0036632073219259875,-6.492,-6.7325999840827695
1621787085257.922,-0.006003758430726458,-0.051247181176955155,-0.03525845646913453,0.01,-6.492,-6.737
1621787085259.112,-0.005,-0.052,-0.033,0.013032206607219769,-6.495809695480866,-6.733967793392781
1621787085263.851,-0.012,-0.044,-0.04,0.02510815294549283,-6.510982038316132,-6.721891847054508
1621787085268.588,-0.012,-0.042,-0.033,0.037178500215348784,-6.526147346424413,-6.709821499784652
1621787085273.227,-0.007099293340898541,-0.040039717336359415,-0.031039717336359417,0.049,-6.541,-6.698
1621787085273.321,-0.007,-0.04,-0.031,0.049,-6.541123077906717,-6.698363079824814
1621787085278.052,-0.007,-0.035,-0.03,0.049,-6.547317892650491,-6.716637783318948
1621787085282.779,-0.002,-0.035,-0.026,0.049,-6.5535075924682715,-6.734897397781401
1621787085287.503,-0.002,-0.028,-0.028,0.049,-6.559693136408683,-6.753144752405613
1621787085288.501,-0.0015772929376486403,-0.02863406059352704,-0.02757729293764864,0.049,-6.561,-6.757
1621787085292.225,0.0,-0.031,-0.026,0.053885970531710445,-6.565641672005125,-6.75211402946829
1621787085296.943,0.0,-0.03,-0.024,0.06007591287636131,-6.5715221172325435,-6.745924087123639
1621787085301.658,0.0,-0.026,-0.024,0.06626169122357464,-6.577398606662396,-6.739738308776426
1621787085303.745,0.003099228339116474,-0.02201527784970739,-0.020900771660883527,0.069,-6.58,-6.737
1621787085306.372,0.007,-0.017,-0.017,0.062092379790717085,-6.57326507029595,-6.737
1621787085311.081,0.007,-0.023,-0.017,0.04971002118508057,-6.561192270655454,-6.737
1621787085315.787,0.009,-0.023,-0.014,0.037335366245104966,-6.5491269820889775,-6.737
1621787085318.957,0.009,-0.018282711371775576,-0.016021695126381897,0.029,-6.541,-6.737
1621787085320.491,0.009,-0.016,-0.017,0.025058533996043048,-6.5380691663047505,-6.725074538757259
1621787085325.191,0.007,-0.016,-0.005,0.012981952420016409,-6.529089144107192,-6.688535138091332
1621787085329.889,0.007,-0.021,-0.007,0.0009103894223809333,-6.520112853673052,-6.652010921842075
1621787085334.135,0.0024771935299318665,-0.017381754823945494,-0.007,-0.01,-6.512,-6.619
1621787085334.583,0.002,-0.017,-0.007,-0.01,-6.512561849357011,-6.617846730267186
1621787085339.275,-0.005,-0.017,-0.007,-0.01,-6.518446111451317,-6.605768508073613
1621787085343.964,-0.01,-0.012,-0.005,-0.01,-6.524327005511329,-6.593697199213588
1621787085348.649,-0.019,-0.012,0.0,-0.01,-6.530202388242498,-6.581637203081187
1621787085349.285,-0.019543217599833178,-0.010370347200500469,0.0,-0.01,-6.531,-6.58
1621787085353.332,-0.023,0.0,0.0,-0.025794247787610622,-6.539030973451327,-6.601148230088495
1621787085358.012,-0.026,0.0,0.0,-0.04405810348168723,-6.548317679736451,-6.625603223305988
1621787085362.688,-0.019,0.003,0.002,-0.06230671468251405,-6.557596634584329,-6.6500378044054
1621787085364.403,-0.018265973564599552,0.0018989603468993262,0.0012659735645995508,-0.069,-6.561,-6.659
1621787085367.361,-0.017,0.0,0.0,-0.07272522493365266,-6.568646514337497,-6.670567803741342
1621787085372.033,-0.017,0.003,0.002,-0.07860884199624571,-6.580723412518609,-6.688837983040973
1621787085376.7,-0.009,0.003,0.002,-0.08448630979351414,-6.592787688523528,-6.707089067253544
1621787085379.49,-0.004813481264391878,0.003,0.0008038517898262508,-0.088,-6.6,-6.718
1621787085381.365,-0.002,0.003,0.0,-0.08563366577475066,-6.589040136219897,-6.715509121868158
1621787085386.027,0.0,0.0,0.0,-0.07974987432092759,-6.5617888915916645,-6.709315657179924
1621787085390.685,-0.002,0.002,-0.002,-0.07387132084650937,-6.53456190707857,-6.703127706154221
1621787085394.545,-0.004487022180273715,0.00034198521315085737,0.0013160295736982853,-0.069,-6.512,-6.698
1621787085395.341,-0.005,0.0,0.002,-0.06688023076298043,-6.512,-6.690739790363208
1621787085399.994,-0.016,0.003,0.0,-0.05449183391565776,-6.512,-6.648309531161128
1621787085404.643,-0.019,0.002,0.002,-0.042113187616803445,-6.512,-6.6059126675875515
1621787085409.29,-0.024,0.007,0.003,-0.029740391647030143,-6.512,-6.5635358413910785
1621787085409.568,-0.024538902323625277,0.007,0.0031197560719167282,-0.029,-6.512,-6.561
1621787085413.934,-0.033,0.007,0.005,-0.029,-6.537622429541346,-6.566532115469155
1621787085418.575,-0.037,0.012,0.012,-0.029,-6.564858170924307,-6.572412559631385
1621787085423.212,-0.042,0.016,0.012,-0.029,-6.5920709878050765,-6.578288054185187
1621787085424.563,-0.04141713623676866,0.01629143188161567,0.011417136236768656,-0.029,-6.6,-6.58
1621787085427.848,-0.04,0.017,0.01,-0.033390387156771575,-6.591438745044295,-6.6059032842249525
1621787085432.479,-0.037,0.017,0.019,-0.03958000097890461,-6.579368998091136,-6.642422005775537
1621787085437.108,-0.031,0.021,0.017,-0.0457666780872204,-6.56730497772992,-6.6789234007146
1621787085439.527,-0.027339297023432553,0.018908169727675745,0.020137745408486386,-0.049,-6.561,-6.698
1621787085441.734,-0.024,0.017,0.023,-0.05772019556224145,-6.558044001504325,-6.703764197066567
1621787085446.357,-0.019,0.017,0.017,-0.07598832513040209,-6.551851415210034,-6.715839740340436
1621787085450.977,-0.017,0.017,0.023,-0.09424487793711268,-6.545662753241657,-6.72790763117877
1621787085454.458,-0.014738141822219872,0.014738141822219872,0.023,-0.108,-6.541,-6.737
1621787085455.594,-0.014,0.014,0.023,-0.10647540097314831,-6.538789331411065,-6.732502432870787
1621787085460.208,-0.016,0.017,0.016,-0.10028296662789364,-6.529810301610445,-6.714234751552286
1621787085464.819,-0.016,0.021,0.024,-0.09409446419502285,-6.520836973082783,-6.695978669375317
1621787085469.36,-0.0228983787220515,0.029869344071209072,0.023014517325421213,-0.088,-6.512,-6.678
1621787085469.427,-0.023,0.03,0.023,-0.08808997323788727,-6.512085474575993,-6.6780899732378876
1621787085474.031,-0.023,0.023,0.017,-0.0942823649170046,-6.517968246671154,-6.684282364917005
1621787085478.634,-0.023,0.028,0.021,-0.10047344311819659,-6.523849770962286,-6.690473443118197
1621787085483.232,-0.026,0.026,0.023,-0.10665762556028043,-6.529724744282266,-6.696657625560281
1621787085484.23,-0.026868632138114208,0.025348525896414342,0.023217158034528552,-0.108,-6.531,-6.698
1621787085487.828,-0.03,0.023,0.024,-0.108,-6.526392565655236,-6.721764661357204
1621787085492.422,-0.031,0.023,0.017,-0.108,-6.5205092312249056,-6.752110281050484
1621787085497.011,-0.031,0.019,0.021,-0.108,-6.514632774962153,-6.782420423879419
1621787085499.067,-0.031,0.017655365126676602,0.020103576751117735,-0.108,-6.512,-6.796
1621787085501.598,-0.031,0.016,0.019,-0.11466633140972794,-6.512,-6.799418631492168
1621787085506.183,-0.03,0.017,0.019,-0.1267431492168178,-6.512,-6.80561187139324
1621787085510.764,-0.021,0.019,0.017,-0.13880839241549875,-6.512,-6.811799175597692
1621787085513.874,-0.018282636518771333,0.010847909556313992,0.0149619773890785,-0.147,-6.512,-6.816
1621787085515.342,-0.017,0.007,0.014,-0.15087499586899764,-6.506137826762285,-6.812025645262566
1621787085519.917,-0.017,0.009,0.01,-0.16295108893221852,-6.4878688654615155,-6.799639908787468
1621787085524.489,-0.012,0.003,0.009,-0.1750194487590469,-6.46961160315939,-6.787262103836875
1621787085528.649,-0.010179107667646273,-0.0024626769970611806,0.0035373230029388195,-0.186,-6.453,-6.776
1621787085529.058,-0.01,-0.003,0.003,-0.18655504040270235,-6.451917671214731,-6.772753013644191
1621787085533.625,-0.007,0.0,0.002,-0.1927499006490926,-6.43983769373427,-6.7365130812028085
1621787085538.188,-0.007,-0.009,0.0,-0.19893946218042124,-6.427768048748178,-6.700304146244536
1621787085542.748,-0.009,-0.017,-0.003,-0.2051250496754537,-6.415706153132865,-6.664118459398596
1621787085543.393,-0.009424645057594428,-0.017566193410125906,-0.002858451647468524,-0.206,-6.414,-6.659
1621787085547.305,-0.012,-0.021,-0.002,-0.20068275038162872,-6.4033655007632575,-6.643314113625805
1621787085551.859,-0.017,-0.03,-0.009,-0.1944927324616712,-6.390985464923342,-6.62505356076193
1621787085556.411,-0.023,-0.026,-0.009,-0.18830536935023562,-6.378610738700471,-6.606800839583195
1621787085558.107,-0.02822078479789575,-0.027491652799398785,-0.011610392398947877,-0.186,-6.374,-6.6
1621787085560.959,-0.037,-0.03,-0.016,-0.17453982242027202,-6.37788480595923,-6.603690565661268
1621787085565.504,-0.044,-0.038,-0.007,-0.15627731036546838,-6.384075488011706,-6.60957171361112
1621787085570.047,-0.056,-0.023,-0.014,-0.13802166539190583,-6.3902638422400315,-6.61545065012803
1621787085572.79,-0.060231183084951845,-0.023,-0.012791090547156615,-0.127,-6.394,-6.619
1621787085574.585,-0.063,-0.023,-0.012,-0.12467240977105343,-6.3987776852067855,-6.631127970140301
1621787085579.122,-0.073,-0.017,-0.016,-0.11878884926850401,-6.4108544672909655,-6.661784416969374
1621787085583.656,-0.075,-0.028,-0.01,-0.1129094044722898,-6.422922801346353,-6.692419418802279
1621787085587.442,-0.08252320629615655,-0.024656352757263758,-0.015851382674788424,-0.108,-6.433,-6.718
1621787085588.185,-0.084,-0.024,-0.017,-0.10698329993319973,-6.434982565130261,-6.7219651302605214
1621787085592.712,-0.08,-0.021,-0.017,-0.10079024716098864,-6.4470590180360725,-6.746118036072144
1621787085597.237,-0.079,-0.019,-0.012,-0.09459953239812958,-6.459130911823648,-6.770261823647295
1621787085601.759,-0.08,-0.019,-0.017,-0.0884131596526386,-6.471194338677355,-6.79438867735471
1621787085602.061,-0.08,-0.018866313628012537,-0.01666578407003134,-0.088,-6.472,-6.796
1621787085606.277,-0.08,-0.017,-0.012,-0.088,-6.472,-6.807272193211489
1621787085610.792,-0.072,-0.019,-0.019,-0.088,-6.472,-6.819343342036554
1621787085615.305,-0.075,-0.021,-0.017,-0.088,-6.472,-6.831409268929504
1621787085616.648,-0.07410664212634656,-0.01980885616846208,-0.016106642126346563,-0.088,-6.472,-6.835
1621787085619.815,-0.072,-0.017,-0.014,-0.07516332897252692,-6.476351413907619,-6.826514742880145
1621787085624.321,-0.07,-0.028,-0.019,-0.05689887960819831,-6.4825427526751875,-6.814441632283385
1621787085628.824,-0.07,-0.019,-0.016,-0.03864729462279024,-6.488729730636343,-6.8023770252591325
1621787085631.204,-0.06788479062703406,-0.02270161640269039,-0.016528802343241486,-0.029,-6.492,-6.796
1621787085633.325,-0.066,-0.026,-0.017,-0.02330504286434695,-6.486305042864347,-6.790305042864347
1621787085637.822,-0.063,-0.023,-0.014,-0.011229399899142716,-6.4742293998991425,-6.778229399899143
1621787085642.316,-0.066,-0.019,-0.012,0.0008377206253151782,-6.462162279374685,-6.766162279374685
1621787085645.728,-0.06751913043478261,-0.02431695652173913,-0.008202173913043478,0.01,-6.453,-6.757
1621787085646.808,-0.068,-0.026,-0.007,0.01,-6.454415870769957,-6.7496970876075935
1621787085651.297,-0.068,-0.017,-0.009,0.01,-6.460300503646807,-6.719344770663836
1621787085655.782,-0.072,-0.017,-0.007,0.01,-6.466179695790591,-6.689020516448532
1621787085660.222,-0.07299041498747413,-0.022942489924844787,-0.003038340050103475,0.01,-6.472,-6.659
1621787085660.265,-0.073,-0.023,-0.003,0.009970286833353029,-6.471943544983371,-6.6589405736667056
1621787085664.744,-0.08,-0.01,0.005,0.0068730268600273505,-6.466058751034052,-6.652746053720055
1621787085669.22,-0.084,-0.021,0.0,0.0037777927844276004,-6.460177806290413,-6.646555585568855
1621787085673.695,-0.093,0.0,-0.007,0.0006832340080698274,-6.454298144615333,-6.64036646801614
1621787085674.683,-0.0914527281664755,-0.0011051941668032115,-0.003242339832869081,0.0,-6.453,-6.639
1621787085678.165,-0.086,-0.005,0.01,-0.006997208546921789,-6.453,-6.639
1621787085682.633,-0.082,-0.01,0.014,-0.01597602733932227,-6.453,-6.639
1621787085687.097,-0.08,0.002,0.01,-0.024946505608283,-6.453,-6.639
1621787085689.114,-0.08497247907205778,0.004260217760026263,0.008643869343984242,-0.029,-6.453,-6.639
1621787085691.559,-0.091,0.007,0.007,-0.025774065032380566,-6.459621655986166,-6.6323783440138335
1621787085696.018,-0.086,-0.003,0.012,-0.019891041942155768,-6.471697334960838,-6.620302665039162
1621787085700.473,-0.091,0.007,0.017,-0.014013494727562472,-6.483761773980267,-6.608238226019734
1621787085703.515,-0.09236622807017544,0.010415570175438597,0.021781798245614034,-0.01,-6.492,-6.6
1621787085704.926,-0.093,0.012,0.024,-0.008036017669045192,-6.495829765545362,-6.5980360176690445
1621787085709.376,-0.105,0.017,0.028,-0.001842677539925246,-6.507906778797146,-6.591842677539925
1621787085713.823,-0.106,0.028,0.03,0.00434658511722732,-6.519975840978593,-6.585653414882772
1621787085717.885,-0.10965690422550689,0.02342886971811638,0.03914226056376724,0.01,-6.531,-6.58
1621787085718.266,-0.11,0.023,0.04,0.00973412590271154,-6.531265874097288,-6.579494839215152
1621787085722.707,-0.117,0.024,0.045,0.006635951764545579,-6.534364048235454,-6.573608308352637
1621787085727.145,-0.122,0.033,0.045,0.0035398215015669705,-6.537460178498433,-6.567725660852977
1621787085731.579,-0.122,0.037,0.049,0.00044641640550483613,-6.5405535835944955,-6.561848191170459
1621787085732.219,-0.12228876769679943,0.03772191924199857,0.05029945463559742,0.0,-6.541,-6.561
1621787085736.011,-0.124,0.042,0.058,-0.012989060126636288,-6.538349171402728,-6.576374805864182
1621787085740.44,-0.122,0.045,0.059,-0.02815996791425597,-6.535253067772601,-6.594332206918915
1621787085744.866,-0.126,0.052,0.059,-0.04332084037342345,-6.532159012168689,-6.612277729421603
1621787085746.524,-0.12375095214439477,0.05162515869073246,0.060499365237070155,-0.049,-6.531,-6.619
1621787085749.289,-0.12,0.051,0.063,-0.052874322267261874,-6.5234450715788395,-6.6114450715788395
1621787085753.708,-0.124,0.066,0.063,-0.05906584911146459,-6.511371594232644,-6.599371594232644
1621787085758.126,-0.124,0.059,0.066,-0.06525600766244206,-6.499300785058238,-6.587300785058238
1621787085760.798,-0.12521099800840893,0.06444949103784023,0.066,-0.069,-6.492,-6.58
1621787085762.539,-0.126,0.068,0.066,-0.07608956272819212,-6.492,-6.571688098870395
1621787085766.95,-0.134,0.066,0.073,-0.09405157784672347,-6.492,-6.550629184593497
1621787085771.358,-0.14,0.07,0.073,-0.11200166269562387,-6.492,-6.529584257529268
1621787085775.041,-0.14083611372831567,0.06832777254336862,0.07885279609820983,-0.127,-6.492,-6.512
1621787085775.763,-0.141,0.068,0.08,-0.12999702810417096,-6.490984058269772,-6.510984058269772
1621787085780.165,-0.15,0.068,0.079,-0.14827210884353742,-6.484789115646259,-6.5047891156462585
1621787085784.564,-0.154,0.075,0.084,-0.16653401360544218,-6.478598639455782,-6.498598639455782
1621787085788.96,-0.162,0.073,0.084,-0.18478375592661306,-6.4724122861265725,-6.492412286126572
1621787085789.253,-0.1624001333777926,0.07253317772590863,0.08446682227409137,-0.186,-6.472,-6.492
1621787085793.353,-0.168,0.066,0.091,-0.214336007713233,-6.466506284218863,-6.480723425501877
1621787085797.743,-0.176,0.068,0.087,-0.2446748045866189,-6.460624272580145,-6.468649822664509
1621787085802.13,-0.182,0.077,0.089,-0.27499335422333937,-6.454746186426088,-6.456584277400916
1621787085803.433,-0.1837835941415604,0.07759453138052014,0.089,-0.284,-6.453,-6.453
1621787085806.514,-0.188,0.079,0.089,-0.2798631940370613,-6.448645467407433,-6.427308257703855
1621787085810.895,-0.201,0.075,0.089,-0.27398039959971016,-6.4424530522102215,-6.390773008040306
1621787085815.273,-0.206,0.08,0.091,-0.26810186686911214,-6.436265123020118,-6.354264225818696
1621787085817.583,-0.2149762276785714,0.08105602678571429,0.091,-0.265,-6.433,-6.335
1621787085819.648,-0.223,0.082,0.091,-0.25929610416558596,-6.433,-6.332074925213121
1621787085824.02,-0.23,0.089,0.089,-0.24721932873372413,-6.433,-6.325881707042935
1621787085828.389,-0.246,0.099,0.093,-0.23515132022617627,-6.433,-6.319692984731373
1621787085831.702,-0.25662052772808586,0.099,0.0937586091234347,-0.226,-6.433,-6.315
1621787085832.756,-0.26,0.099,0.094,-0.22742165000259926,-6.433,-6.315
1621787085837.118,-0.272,0.098,0.094,-0.23330381742882392,-6.433,-6.315
1621787085841.478,-0.286,0.105,0.098,-0.23918368018853212,-6.433,-6.315
1621787085845.791,-0.2968866106442577,0.10104123249299721,0.0960206162464986,-0.245,-6.433,-6.315
1621787085845.836,-0.297,0.101,0.096,-0.24506392329204954,-6.433,-6.315188573711547
1621787085850.19,-0.305,0.106,0.099,-0.25125961889211207,-6.433,-6.333465875731731
1621787085854.541,-0.314,0.112,0.105,-0.2574511455818236,-6.433,-6.35173087946638
1621787085858.889,-0.328,0.122,0.101,-0.2636381559519881,-6.433,-6.369982560058364
1621787085859.846,-0.3299823565769512,0.1213392144743496,0.10188104736753385,-0.265,-6.433,-6.374
1621787085863.234,-0.337,0.119,0.105,-0.27925214545581145,-6.423579090291921,-6.378831235747732
1621787085867.577,-0.346,0.124,0.103,-0.29752204640799346,-6.411502376103191,-6.385024422511184
1621787085871.916,-0.353,0.12,0.099,-0.315775514822358,-6.399436524100476,-6.391212038922833
1621787085873.871,-0.3566072072072072,0.12,0.099,-0.324,-6.394,-6.394
1621787085876.252,-0.361,0.12,0.099,-0.3073278788618879,-6.404037297419884,-6.400634823718228
1621787085880.586,-0.377,0.119,0.096,-0.27697887409940164,-6.422308637021789,-6.412712488878809
1621787085884.916,-0.387,0.124,0.096,-0.24665722310416413,-6.44056350853933,-6.424779268356506
1621787085887.866,-0.38972707780849747,0.12536353890424873,0.09804530835637308,-0.226,-6.453,-6.433
1621787085889.243,-0.391,0.126,0.099,-0.2240278685945067,-6.454873524835219,-6.442663443886917
1621787085893.567,-0.393,0.131,0.098,-0.21783488644509327,-6.460756857877162,-6.473009056419043
1621787085897.888,-0.394,0.14,0.098,-0.21164610031994685,-6.466636204696051,-6.50333410843226
1621787085901.83,-0.39765089593578656,0.14912723983946638,0.09434910406421344,-0.206,-6.472,-6.531
1621787085902.207,-0.398,0.15,0.094,-0.20654113729957066,-6.471485919565408,-6.532866923683518
1621787085906.522,-0.394,0.159,0.096,-0.21273547708753177,-6.465601296766845,-6.554237395951985
1621787085910.834,-0.391,0.168,0.094,-0.21892561114518533,-6.459720669412074,-6.575593358450889
1621787085915.144,-0.398,0.169,0.098,-0.22511294138263385,-6.453842705686498,-6.596939647770086
1621787085915.762,-0.3977129897374837,0.16957402052503262,0.09699546408119294,-0.226,-6.453,-6.6
1621787085919.45,-0.396,0.173,0.091,-0.24669496794590323,-6.437346113989638,-6.589652516027048
1621787085923.753,-0.396,0.175,0.086,-0.2708409238605427,-6.419081865284975,-6.577579538069728
1621787085928.054,-0.398,0.176,0.082,-0.2949759199086678,-6.400825906735752,-6.565512040045666
1621787085929.662,-0.40174155069582507,0.176,0.08125168986083499,-0.304,-6.394,-6.561
1621787085932.352,-0.408,0.176,0.08,-0.30787855319897917,-6.390121446801021,-6.557121446801021
1621787085936.646,-0.415,0.176,0.082,-0.31406987591305113,-6.383930124086949,-6.550930124086949
1621787085940.938,-0.428,0.187,0.079,-0.3202583824694183,-6.377741617530582,-6.544741617530582
1621787085943.533,-0.43279783332392935,0.18759972916549117,0.07959972916549117,-0.324,-6.374,-6.541
1621787085945.265,-0.436,0.188,0.08,-0.32606958711440726,-6.367573387381578,-6.560279837855267
1621787085950.261,-0.44,0.197,0.075,-0.3320397070339491,-6.349034593947211,-6.615896218158368
1621787085955.258,-0.443,0.185,0.066,-0.33801099390421796,-6.3304921768237445,-6.671523469528767
1621787085959.433,-0.4421642965352099,0.18082148267604944,0.06349288960562967,-0.343,-6.315,-6.718
1621787085960.254,-0.442,0.18,0.063,-0.34203380575681036,-6.318000287386747,-6.729950297218399
1621787085965.25,-0.436,0.169,0.061,-0.3361527233675677,-6.336262595858606,-6.802690000453769
1621787085970.245,-0.429,0.166,0.063,-0.3302727905253127,-6.354521334684555,-6.8754154856079746
1621787085975.241,-0.412,0.175,0.058,-0.324391995522817,-6.372782750744936,-6.948151634323053
1621787085975.574,-0.4112001563721657,0.1742668100078186,0.05760007818608288,-0.324,-6.374,-6.953
1621787085980.237,-0.4,0.164,0.052,-0.3069551985963639,-6.317376591947243,-7.057868862873219
1621787085985.232,-0.377,0.162,0.051,-0.28869762833892976,-6.256724324651359,-7.170199337507941
1621787085990.227,-0.354,0.161,0.051,-0.27043916568351634,-6.196069092779139,-7.282535302659044
1621787085991.715,-0.3468514880516053,0.16338283731613157,0.05189356399354933,-0.265,-6.178,-7.316
1621787085995.223,-0.33,0.169,0.054,-0.18827967447700011,-6.10345305480343,-7.369247817997549
1621787086000.218,-0.311,0.162,0.056,-0.07903010180157016,-5.997298370872347,-7.4450725922340375
1621787086005.212,-0.286,0.166,0.058,0.03019277254231645,-5.891169628946134,-7.5208788364670465
1621787086007.855,-0.2743614151681001,0.1707612392494136,0.060645132916340896,0.088,-5.835,-7.561
1621787086010.208,-0.264,0.175,0.063,0.19677873428446072,-5.787755616745087,-7.528045584519721
1621787086015.202,-0.239,0.185,0.07,0.42764291874063876,-5.6874875259088915,-7.458105496467313
1621787086020.198,-0.22,0.197,0.082,0.6586086811806889,-5.587175318093106,-7.3881346354600055
1621787086023.992,-0.20632510388658032,0.20915546321192863,0.10175262771938401,0.834,-5.511,-7.335
1621787086025.192,-0.202,0.213,0.108,0.896693413427348,-5.497910983673531,-7.292014480473301
1621787086030.186,-0.19,0.239,0.131,1.1576204663408434,-5.443435110230144,-7.113110759733087
1621787086035.181,-0.18,0.26,0.166,1.4185857858342539,-5.388951247560108,-6.9341808016462645
1621787086040.127,-0.1710866738365272,0.2827785001955416,0.19472071763785687,1.677,-5.335,-6.757
1621787086040.175,-0.171,0.283,0.195,1.6785500310187778,-5.33461845390307,-6.755917959115737
1621787086045.168,-0.173,0.314,0.23,1.8394621343945285,-5.295009320764423,-6.643588933105358
1621787086050.163,-0.178,0.335,0.264,2.0004450513701224,-5.255382756585816,-6.531210473755088
1621787086055.156,-0.188,0.36,0.3,2.161357154745873,-5.21577362344717,-6.418881447744708
1621787086056.262,-0.19420092886824739,0.3648721583964801,0.30708677584942556,2.197,-5.207,-6.394
1621787086060.15,-0.216,0.382,0.332,2.2844748430052206,-5.318090640841341,-6.394
1621787086065.144,-0.253,0.415,0.361,2.3968381327078765,-5.460788923356284,-6.394
1621787086070.137,-0.29,0.454,0.403,2.5091739577816448,-5.603452326549141,-6.394
1621787086072.396,-0.30900278714977264,0.4603342623832576,0.4102391570094372,2.56,-5.668,-6.394
1621787086075.13,-0.332,0.468,0.419,2.4020644966026543,-5.774420060229113,-6.48211852120882
1621787086080.125,-0.379,0.48,0.419,2.1134986456016103,-5.9688614276418335,-6.643120927346741
1621787086085.117,-0.431,0.483,0.415,1.8251161453367835,-6.1631792497086915,-6.804021034790636
1621787086088.529,-0.4617510267944455,0.49051691766086447,0.40543301388617253,1.628,-6.296,-6.914
1621787086090.11,-0.476,0.494,0.401,1.5088146264680953,-6.408422387698269,-6.949579186342172
1621787086095.104,-0.503,0.496,0.375,1.1323574282600797,-6.763518116600073,-7.061959090083545
1621787086100.096,-0.499,0.497,0.351,0.7560474633732895,-7.1184749667029905,-7.174295041772612
1621787086104.66,-0.4752395385217051,0.4988277278060227,0.3144454438795463,0.412,-7.443,-7.277
1621787086105.09,-0.473,0.499,0.311,0.38218395919417575,-7.462095067278148,-7.282467163117347
1621787086110.082,-0.422,0.508,0.265,0.036185896562684505,-7.683682377514416,-7.345910457249239
1621787086115.074,-0.37,0.517,0.218,-0.30981216606880674,-7.905269687750685,-7.409353751381132
1621787086120.067,-0.309,0.501,0.164,-0.65587791551257,-8.126900346607336,-7.472809456780033
1621787086120.79,-0.3005983959311424,0.4986823161189358,0.156902093114241,-0.706,-8.159,-7.482
1621787086125.059,-0.251,0.485,0.115,-0.8981218578325287,-8.10713239099838,-7.497613208832121
1621787086130.051,-0.213,0.459,0.056,-1.122776760446146,-8.046481756132996,-7.51587028769466
1621787086135.044,-0.19,0.447,0.012,-1.3474756117862494,-7.98581925632217,-7.534130938147919
1621787086136.922,-0.18473159516704984,0.43834476348872475,-0.00681573154625055,-1.432,-7.963,-7.541
1621787086140.035,-0.176,0.424,-0.038,-1.4981971724388472,-7.841799346088641,-7.582686849116009
1621787086145.027,-0.176,0.41,-0.084,-1.6043618612254782,-7.647422015015742,-7.649542746427707
1621787086150.02,-0.185,0.398,-0.131,-1.7105421258173892,-7.453016166141923,-7.716408452409785
1621787086153.051,-0.19532407180942132,0.37917375140634935,-0.16075761874480263,-1.775,-7.335,-7.757
1621787086155.011,-0.202,0.367,-0.18,-1.7606599455040872,-7.250417983651226,-7.793943869209809
1621787086160.002,-0.208,0.351,-0.232,-1.724143536179231,-7.0350330608537694,-7.88802004238571
1621787086164.994,-0.208,0.321,-0.286,-1.6876199818346957,-6.819605994550409,-7.982114623069936
1621787086169.179,-0.19290725885345333,0.30087634513793776,-0.32708579534337706,-1.657,-6.639,-8.061
1621787086169.985,-0.19,0.297,-0.335,-1.6016100647974323,-6.625752407194332,-8.052201598740385
1621787086174.977,-0.176,0.279,-0.384,-1.2586185429661478,-6.543719236359232,-7.9977191909404715
1621787086179.968,-0.164,0.243,-0.414,-0.9156941197844122,-6.461702113486344,-7.943247441409798
1621787086184.958,-0.15,0.237,-0.435,-0.5728367952522253,-6.379701038575667,-7.888786350148368
1621787086185.305,-0.14930503252310853,0.23665251626155426,-0.4363204382060938,-0.549,-6.374,-7.885
1621787086189.95,-0.14,0.232,-0.454,-0.26669803779069773,-6.334535337936046,-7.78590625
1621787086194.94,-0.131,0.229,-0.464,0.03656958575581393,-6.292139761991279,-7.679453125
1621787086199.931,-0.12,0.227,-0.468,0.33989656007751934,-6.249735889050387,-7.572979166666667
1621787086201.43,-0.11789767168851496,0.22760066523185288,-0.4716039913911172,0.431,-6.237,-7.541
1621787086204.922,-0.113,0.229,-0.48,0.6350334342822532,-6.275337492428831,-7.5197735917625685
1621787086209.912,-0.096,0.236,-0.482,0.9265770139309509,-6.330117973955178,-7.489443155663235
1621787086214.902,-0.086,0.251,-0.476,1.2181205935796486,-6.384898455481526,-7.4591127195639
1621787086217.553,-0.08015751112850364,0.25312454140781687,-0.4696263757765494,1.373,-6.414,-7.443
1621787086219.893,-0.075,0.255,-0.464,1.4868030046038285,-6.472353071238187,-7.431677762297068
1621787086224.883,-0.063,0.262,-0.457,1.7294758904773444,-6.596784831596802,-7.407534286406591
1621787086229.873,-0.056,0.267,-0.447,1.9721487763508603,-6.721216591955415,-7.383390810516113
1621787086233.674,-0.04914442976662264,0.2647148099222076,-0.4325271295073144,2.157,-6.816,-7.365
1621787086234.863,-0.047,0.264,-0.428,2.1837724250730717,-6.841297360330754,-7.345455392164286
1621787086239.852,-0.037,0.276,-0.405,2.2961121594402627,-6.9474475776529205,-7.263444291317715
1621787086244.843,-0.037,0.281,-0.387,2.40849587315049,-7.053639351213824,-7.181401084339174
1621787086249.795,-0.0240966968436506,0.28397768534377293,-0.3611933936873012,2.52,-7.159,-7.1
1621787086249.832,-0.024,0.284,-0.361,2.5189846713117237,-7.159,-7.099074462284156
1621787086254.821,-0.024,0.293,-0.337,2.3824830808845805,-7.159,-6.974644441078461
1621787086259.811,-0.021,0.293,-0.321,2.24595477128143,-7.159,-6.850190063617086
1621787086264.8,-0.016,0.281,-0.311,2.109453180854287,-7.159,-6.725760042411391
1621787086265.913,-0.016223053965458194,0.28033083810362547,-0.30899251431087627,2.079,-7.159,-6.698
1621787086269.79,-0.017,0.278,-0.302,2.001070793511352,-7.177760734895415,-6.610690426063645
1621787086274.778,-0.023,0.279,-0.288,1.9008080971782562,-7.201898050679309,-6.4983590718386015
1621787086279.767,-0.033,0.283,-0.271,1.800525771322115,-7.226040092089121,-6.386005725277554
1621787086282.032,-0.04571132860288721,0.27482843161242965,-0.2678221678492782,1.755,-7.237,-6.335
1621787086284.756,-0.061,0.265,-0.264,1.6804657295627017,-7.223817067813811,-6.341591466093094
1621787086289.745,-0.082,0.251,-0.262,1.543962071524864,-7.199673563671064,-6.353663218164468
1621787086294.733,-0.098,0.227,-0.26,1.407491812962935,-7.1755359669186145,-6.365732016540693
1621787086298.15,-0.10347922681673599,0.213986836310252,-0.257945289943724,1.314,-7.159,-6.374
1621787086299.722,-0.106,0.208,-0.257,1.2843487639360156,-7.164754680683471,-6.370196058531265
1621787086304.71,-0.11,0.19,-0.257,1.1902651478429471,-7.183014329859428,-6.358126120940378
1621787086309.698,-0.12,0.164,-0.26,1.0961815317498789,-7.201273979035386,-6.346056183349491
1621787086314.267,-0.1282424761438708,0.13560924883777833,-0.2618316613653046,1.01,-7.218,-6.335
1621787086314.687,-0.129,0.133,-0.262,1.0046317591624623,-7.2169576231383425,-6.329631759162463
1621787086319.674,-0.141,0.11,-0.264,0.9408776570761935,-7.204578185840037,-6.265877657076193
1621787086324.663,-0.15,0.079,-0.269,0.8770985864278897,-7.19219390027726,-6.20209858642789
1621787086329.65,-0.154,0.051,-0.274,0.8133476054118752,-7.179815069012014,-6.138347605411875
1621787086330.381,-0.15443977289413147,0.04660227105868533,-0.274,0.804,-7.178,-6.129
1621787086334.638,-0.157,0.021,-0.274,0.8378116866392958,-7.167698001727089,-6.056621858287757
1621787086339.626,-0.162,-0.007,-0.276,0.8774312421409851,-7.1556264184101686,-5.971811247291954
1621787086344.613,-0.171,-0.019,-0.278,0.9170430408896026,-7.143557198478949,-5.887017240595695
1621787086346.496,-0.1770414157732413,-0.02843971214568953,-0.2757344690850345,0.932,-7.139,-5.855
1621787086349.6,-0.187,-0.044,-0.272,0.9772736612419312,-7.116459496317847,-5.83034030366397
1621787086354.588,-0.195,-0.07,-0.278,1.0500234566778799,-7.080239385398673,-5.790714883171198
1621787086359.575,-0.208,-0.091,-0.278,1.122762569324484,-7.044024593144831,-5.751095281389217
1621787086362.608,-0.21225715964165076,-0.09525715964165075,-0.27556733734762817,1.167,-7.022,-5.727
1621787086364.562,-0.215,-0.098,-0.274,1.1645740676193796,-7.0314611362844195,-5.71984349947717
1621787086369.549,-0.232,-0.11,-0.272,1.1583828481367542,-7.055606892266659,-5.701579402003425
1621787086374.535,-0.232,-0.126,-0.274,1.1521931441041418,-7.0797467379938475,-5.683319775107218
1621787086378.718,-0.24206353090891292,-0.13019313787871373,-0.27232274484851454,1.147,-7.1,-5.668
1621787086379.523,-0.244,-0.131,-0.272,1.1509474856779123,-7.112741884150222,-5.67094812221515
1621787086384.509,-0.25,-0.138,-0.279,1.1753998666302932,-7.1916704555787945,-5.6892100269770545
1621787086389.495,-0.253,-0.14,-0.281,1.199852247582674,-7.270599027007366,-5.70747193173896
1621787086394.482,-0.244,-0.145,-0.284,1.2243082204237519,-7.349539192507048,-5.725736519050651
1621787086394.827,-0.24282382607844097,-0.14534593350634087,-0.28476105371394994,1.226,-7.355,-5.727
1621787086399.468,-0.227,-0.15,-0.295,1.226,-7.4255813266249415,-5.808816721475442
1621787086404.455,-0.192,-0.164,-0.298,1.226,-7.501423765287102,-5.8967320381287225
1621787086409.441,-0.154,-0.168,-0.311,1.226,-7.577247639686605,-5.98462583539182
1621787086410.937,-0.14019481855134924,-0.177903717126206,-0.3134009011215045,1.226,-7.6,-6.011
1621787086414.426,-0.108,-0.201,-0.319,1.2175509656489707,-7.629679941181821,-6.036563744959524
1621787086419.413,-0.075,-0.222,-0.339,1.2054742443076736,-7.672103295637147,-6.073103568504988
1621787086424.398,-0.044,-0.243,-0.34,1.1934028438892763,-7.714507958645362,-6.10962729284783
1621787086427.042,-0.032861844360644495,-0.25201660218424016,-0.34689504872912486,1.187,-7.737,-6.129
1621787086429.383,-0.023,-0.26,-0.353,1.1755163417518115,-7.775521132098354,-6.130453627626353
1621787086434.369,0.0,-0.288,-0.367,1.1510592274808236,-7.857560819209897,-6.133549464875845
1621787086439.354,0.017,-0.323,-0.38,1.126605705969742,-7.939588454658461,-6.136644847345602
1621787086443.147,0.03221421926259609,-0.34810346178328355,-0.39597493022572594,1.108,-8.002,-6.139
1621787086444.34,0.037,-0.356,-0.401,1.093481371449359,-8.033259496165156,-6.136851835571589
1621787086449.325,0.07,-0.401,-0.424,1.0328222026859066,-8.163862400339529,-6.127876754479037
1621787086454.31,0.106,-0.461,-0.445,0.972160063055143,-8.29447170097311,-6.118901233819384
1621787086459.254,0.17046517778430798,-0.5214980899206583,-0.4569012635909492,0.912,-8.424,-6.11
1621787086459.295,0.171,-0.522,-0.457,0.9134746672326491,-8.421501470543646,-6.111023862223705
1621787086464.28,0.244,-0.576,-0.475,1.092708180467542,-8.117826036202661,-6.235465783329796
1621787086469.264,0.34,-0.635,-0.501,1.2718978047967013,-7.814224962857402,-6.359877232345896
1621787086474.25,0.445,-0.672,-0.524,1.451166429156181,-7.510490039719838,-6.48434353112398
1621787086475.358,0.4641176643479965,-0.6695547173508377,-0.5255560889585579,1.491,-7.443,-6.512
1621787086479.234,0.531,-0.661,-0.531,1.5263826980805968,-6.664099244974074,-6.894229418721004
1621787086484.218,0.586,-0.632,-0.501,1.571881424542891,-5.662508232511598,-7.385739470572182
1621787086489.203,0.581,-0.606,-0.496,1.6173868370781406,-4.660770035477121,-7.8773217502046755
1621787086491.461,0.5438499632623071,-0.606,-0.5077792799412197,1.638,-4.207,-8.1
1621787086494.187,0.499,-0.606,-0.522,1.596521545319465,-3.909878824635352,-8.226297662006854
1621787086499.171,0.391,-0.567,-0.567,1.5206894502228825,-3.366673408739424,-8.45719865360706
1621787086504.155,0.293,-0.466,-0.555,1.4448536404160475,-2.823441383388422,-8.688110956120934
1621787086507.563,0.22118740813326798,-0.3893999020088192,-0.5146481626653602,1.393,-2.452,-8.846
1621787086509.138,0.188,-0.354,-0.496,1.2423625473843822,-2.5469798483699773,-8.881409583017437
1621787086514.123,0.047,-0.314,-0.449,0.7655579984836998,-2.8476144048521608,-8.993489613343442
1621787086519.106,-0.082,-0.326,-0.469,0.2889636087945413,-3.148116451857468,-9.105520242608037
1621787086523.664,-0.14144403624785695,-0.35983737447954933,-0.517469752632868,-0.147,-3.423,-9.208
1621787086524.09,-0.147,-0.363,-0.522,-0.10834744837623941,-3.4953842445192396,-9.223847281603446
1621787086529.073,-0.115,-0.356,-0.565,0.34374342763576826,-4.342010279268625,-9.409201446374967
1621787086534.056,0.005,-0.314,-0.588,0.795834303647776,-5.188636314018011,-9.594555611146488
1621787086539.04,0.171,-0.23,-0.571,1.2480359319566998,-6.035469753479487,-9.779955183601686
1621787086539.767,0.19726874448691561,-0.21832500245025974,-0.5631193766539253,1.314,-6.159,-9.807
1621787086544.022,0.351,-0.15,-0.517,1.6585804133246402,-6.1640207268812635,-9.941766879444453
1621787086549.005,0.459,-0.117,-0.466,2.0621199035676923,-6.169900520067321,-10.099592907070187
1621787086553.989,0.51,-0.066,-0.431,2.4657582520886088,-6.17578175367307,-10.257457598592937
1621787086555.869,0.5164147799666765,-0.052793100068607275,-0.40986896010977164,2.618,-6.178,-10.317
1621787086558.971,0.527,-0.031,-0.375,2.521663603554423,-6.344276620265066,-10.059974494283201
1621787086563.953,0.513,0.012,-0.29,2.3669461074212235,-6.611319018590969,-9.647188214599824
1621787086568.936,0.473,0.058,-0.206,2.2121907014830313,-6.878426849240288,-9.234300791556729
1621787086571.969,0.43708129961775943,0.06408791531902382,-0.15364392825639517,2.118,-7.041,-8.983
1621787086573.918,0.414,0.068,-0.12,1.9007870413905024,-7.099238257018489,-8.954546797506561
1621787086578.9,0.358,0.042,-0.044,1.3455512110779124,-7.248105834710994,-8.88181523667966
1621787086583.883,0.314,-0.028,0.024,0.7901793335658926,-7.3970098888265365,-8.809065854731317
1621787086588.066,0.28377418406351074,-0.11699823581299619,0.07689517788885622,0.324,-7.522,-8.748
1621787086588.865,0.278,-0.134,0.087,0.263628850967008,-7.471856200227531,-8.810803868031854
1621787086593.847,0.243,-0.258,0.131,-0.11276395904436859,-7.159227303754266,-9.202363822525596
1621787086598.829,0.216,-0.391,0.169,-0.48917521425862714,-6.8465830868411075,-9.593942965491088
1621787086603.811,0.202,-0.499,0.211,-0.8655680242700037,-6.533954190367842,-9.985502919984832
1621787086604.161,0.20249166748358005,-0.5068666797372806,0.2133178609940202,-0.892,-6.512,-10.013
1621787086608.792,0.209,-0.611,0.244,-0.93717113605339,-6.305996602457151,-10.122906840588502
1621787086613.774,0.237,-0.698,0.264,-0.985764219626877,-6.0843873805551345,-10.24113969361444
1621787086618.756,0.258,-0.761,0.281,-1.0343596845138783,-5.862767298650084,-10.35937834066434
1621787086620.257,0.2634241741005784,-0.7682322321341045,0.29094431918439373,-1.049,-5.796,-10.395
1621787086623.737,0.276,-0.785,0.314,-0.9281282595834407,-5.668641404104914,-10.172284628570562
1621787086628.718,0.26,-0.813,0.337,-0.7551224192594166,-5.486350813852945,-9.853508214377817
1621787086633.699,0.232,-0.838,0.367,-0.5821165789353924,-5.304060223600977,-9.534731800185071
1621787086636.351,0.21229943142829136,-0.8353377610038231,0.3723244779923537,-0.49,-5.207,-9.365
1621787086638.68,0.195,-0.833,0.377,-0.3751123852863102,-5.143189624573378,-9.153601001137657
1621787086643.66,0.145,-0.794,0.396,-0.12943908987485775,-5.006738839590444,-8.701549761092151
1621787086648.642,0.087,-0.745,0.424,0.11634260144103159,-4.870227849829352,-8.24929906712173
1621787086652.446,0.045752132562015886,-0.698405186783018,0.4469154819099912,0.304,-4.766,-7.904
1621787086653.622,0.033,-0.684,0.454,0.3699192268596483,-4.761688210216498,-7.8552548510915905
1621787086658.602,-0.009,-0.634,0.48,0.6490598516225934,-4.743429566246416,-7.648839333667107
1621787086663.583,-0.017,-0.578,0.511,0.9282552152079255,-4.725167341799038,-7.4423833386433635
1621787086668.538,-0.02396499656829101,-0.5252650259829396,0.5358749877438965,1.206,-4.707,-7.237
1621787086668.563,-0.024,-0.525,0.536,1.2062584511743641,-4.706757024943861,-7.236636311221703
1621787086673.544,-0.028,-0.501,0.559,1.257953753717303,-4.658157249499302,-7.163891424409783
1621787086678.524,-0.019,-0.475,0.574,1.3096389209200705,-4.609567002488317,-7.0911607999028945
1621787086683.503,0.005,-0.459,0.581,1.3613139527826668,-4.560986283910906,-7.018444437701038
1621787086684.629,0.01178168806979708,-0.45673943731006766,0.5814521125379865,1.373,-4.55,-7.002
1621787086688.484,0.035,-0.449,0.583,1.358863492208009,-4.634579444924963,-6.828049073610416
1621787086693.463,0.058,-0.428,0.581,1.340605104626637,-4.743820306216901,-6.603378067100651
1621787086698.443,0.063,-0.405,0.588,1.3223422406336778,-4.853087950106978,-6.378651977966951
1621787086700.718,0.05797509559760761,-0.38992528679282284,0.5902840474556329,1.314,-4.903,-6.276
1621787086703.423,0.052,-0.372,0.593,1.2084121396054628,-4.908044006069803,-6.228250075872534
1621787086708.402,0.024,-0.321,0.602,1.014065675265554,-4.917328072837632,-6.1403609104704096
1621787086713.382,0.003,-0.271,0.607,0.8196810925644917,-4.926613960546282,-6.0524545068285285
1621787086716.807,-0.005942041776993233,-0.23798323036187113,0.6166298911444542,0.686,-4.933,-5.992
1621787086718.361,-0.01,-0.223,0.621,0.605513121347803,-4.938700751309099,-6.001469044547317
1621787086723.339,-0.03,-0.178,0.623,0.34771741671093576,-4.956959990893223,-6.031797950975184
1621787086728.319,-0.045,-0.124,0.616,0.08982056613796774,-4.9752263944752215,-6.062138756924945
1621787086732.892,-0.05051181951937224,-0.09184771947032859,0.6178372731731241,-0.147,-4.992,-6.09
1621787086733.297,-0.051,-0.089,0.618,-0.16354165907849208,-4.992478373702422,-6.091233700600983
1621787086738.276,-0.038,-0.065,0.621,-0.366877435804043,-4.998358708189158,-6.106398773750986
1621787086743.255,-0.023,-0.042,0.614,-0.5702231833910034,-5.004239331026528,-6.121564590542099
1621787086748.233,0.005,-0.024,0.599,-0.7735290475323257,-5.0101188004613615,-6.136727432768773
1621787086748.979,0.012042855741884868,-0.021152888104344417,0.596602432087869,-0.804,-5.011,-6.139
1621787086753.212,0.052,-0.005,0.583,-0.8479449672170957,-5.0162628703254,-5.999533936376882
1621787086758.19,0.098,-0.005,0.572,-0.8996255463817387,-5.022452161243322,-5.835517727051967
1621787086763.168,0.136,0.009,0.567,-0.9513061255463817,-5.028641452161243,-5.671501517727052
1621787086765.065,0.1455248602530156,0.011666960870844366,0.5643330391291557,-0.971,-5.031,-5.609
1621787086768.147,0.161,0.016,0.56,-0.9127436395652437,-5.049780010929625,-5.398587224482361
1621787086773.125,0.173,0.028,0.553,-0.8186492804663307,-5.080113060902301,-5.058733256421155
1621787086778.102,0.182,0.056,0.56,-0.7245733802902423,-5.110440160301171,-4.718945959074626
1621787086781.148,0.17649426301853485,0.06884671962341865,0.5655057369814651,-0.667,-5.129,-4.511
1621787086783.081,0.173,0.077,0.569,-0.6716876252352906,-5.20207887546299,-4.380227275487279
1621787086788.058,0.15,0.11,0.579,-0.6837565729552493,-5.390230675815168,-4.043534580120226
1621787086793.035,0.127,0.141,0.59,-0.6958249286538345,-5.578373246705932,-3.7068584006314893
1621787086797.231,0.1143563021088769,0.16375865620402158,0.5824137812653261,-0.706,-5.737,-3.423
1621787086798.013,0.112,0.168,0.581,-0.7265195834345397,-5.7503231418508625,-3.4181861640757836
1621787086802.99,0.099,0.195,0.567,-0.8571197170269613,-5.83512038498907,-3.3875477441097885
1621787086807.968,0.096,0.22,0.548,-0.9877454760748117,-5.919934266456157,-3.356903312484819
1621787086812.945,0.087,0.239,0.522,-1.1183456096672333,-6.0047315095943645,-3.3262648925188243
1621787086813.313,0.08677817575192581,0.2405527697365193,0.5200775231833571,-1.128,-6.011,-3.324
1621787086817.921,0.084,0.26,0.496,-1.0772850072868592,-6.05884973888754,-3.461818709011416
1621787086822.899,0.07,0.293,0.464,-1.0224964780179742,-6.110542871022589,-3.6107073111488948
1621787086827.875,0.059,0.319,0.438,-0.9677294449842118,-6.162215721399077,-3.7595374969638087
1621787086829.395,0.060221622682232905,0.32449730207004807,0.43280810360051014,-0.951,-6.178,-3.805
1621787086832.852,0.063,0.337,0.421,-1.0206562613871006,-6.2940937689785015,-3.887125592129236
1621787086837.829,0.075,0.356,0.389,-1.1209396331835295,-6.461232721972549,-4.0053609255435445
1621787086842.805,0.103,0.349,0.365,-1.2211984088424632,-6.628330681404106,-4.123567259808089
1621787086845.475,0.12285033846757579,0.3366606004120475,0.3424671833611302,-1.275,-6.718,-4.187
1621787086847.782,0.14,0.326,0.323,-1.4649469504881343,-6.61943991315306,-4.3390723319618
1621787086852.758,0.18,0.271,0.278,-1.874672714574192,-6.406840517437711,-4.66710051166816
1621787086857.733,0.215,0.223,0.211,-2.2842979669920895,-6.194293275435373,-4.995048221307866
1621787086861.555,0.22959065044638477,0.1738525458648092,0.154941185127048,-2.599,-6.031,-5.247
1621787086862.71,0.234,0.159,0.138,-2.597563141590233,-6.00635787827249,-5.287806778837393
1621787086867.686,0.232,0.087,0.063,-2.5913728967988825,-5.900195180100832,-5.463609730911742
1621787086872.661,0.195,0.031,0.0,-2.585184170564296,-5.794058525177671,-5.639369555974002
1621787086877.632,0.1190745756059268,0.014016681385536255,-0.03696369345500932,-2.579,-5.688,-5.815
1621787086877.637,0.119,0.014,-0.037,-2.578785550476133,-5.6885750041766014,-5.815169797852468
1621787086882.613,0.033,-0.035,-0.038,-2.3602400407028843,-6.274561760551615,-5.988210789301824
1621787086887.589,-0.044,-0.089,-0.017,-2.1416945309296356,-6.860548516926629,-6.161251780751181
1621787086892.563,-0.087,-0.159,0.016,-1.9232455234421275,-7.446276521422171,-6.334216363166927
1621787086893.707,-0.0814811070762587,-0.17302718618117577,0.023588477770144275,-1.873,-7.581,-6.374
1621787086897.538,-0.063,-0.22,0.049,-1.699955388471178,-7.767869112174376,-6.766806501101238
1621787086902.514,0.026,-0.253,0.079,-1.4752025062656642,-8.010577458798512,-7.276989352168299
1621787086907.489,0.182,-0.23,0.093,-1.2504827067669173,-8.253250079744817,-7.78709710640237
1621787086909.78,0.2773461934913857,-0.19821793550287145,0.10635767928140186,-1.147,-8.365,-8.022
1621787086912.463,0.389,-0.161,0.122,-0.9964406015037595,-8.0098,-8.578502255639098
1621787086917.439,0.595,-0.061,0.18,-0.7171884711779448,-7.350987878787879,-9.61068252449305
1621787086922.413,0.745,0.017,0.227,-0.4380459482038429,-6.692434343434344,-10.642457659299765
1621787086925.853,0.781647691024194,0.05019036168228885,0.22561706826323796,-0.245,-6.237,-11.356
1621787086927.388,0.798,0.065,0.225,0.047236484331090234,-5.988789992556699,-11.695987543862314
1621787086932.362,0.716,0.106,0.25,0.9942742021236196,-5.184426911333566,-12.797769986784342
1621787086937.336,0.489,0.063,0.319,1.9412654372560039,-4.380103309990734,-13.899498351840318
1621787086941.925,0.3018229667418817,-0.1029697831845384,0.3872320219758658,2.815,-3.638,-14.916
1621787086942.313,0.286,-0.117,0.393,2.803298825762795,-3.7553766438555396,-14.871384711952112
1621787086947.247,0.283,-0.367,0.485,2.654475206295259,-5.248253907745067,-14.303936649366953
1621787086952.182,0.454,-0.492,0.571,2.505629495246406,-6.741352776374408,-13.736404354016443
1621787086957.115,0.714,-0.511,0.646,2.356835331220625,-8.233934567277515,-13.169068601785087
1621787086957.872,0.7554285007422068,-0.5027142998515587,0.6542857001484413,2.334,-8.463,-13.082
1621787086962.049,0.984,-0.457,0.7,2.2826326399313746,-8.190700575962746,-12.488392497166142
1621787086966.982,1.232,-0.361,0.737,2.2219699764100365,-7.869126558622591,-11.787367329432309
1621787086971.915,1.426,-0.29,0.759,2.161304310529702,-7.547536625716124,-11.08630746607028
1621787086973.81,1.4674977476362556,-0.2746304638384238,0.7536206623434484,2.138,-7.424,-10.817
1621787086976.847,1.534,-0.25,0.745,2.0369861334559105,-6.932272121351414,-10.50290405270819
1621787086981.78,1.581,-0.22,0.717,1.8728984907684056,-6.133505860721673,-9.992684363747799
1621787086986.711,1.55,-0.143,0.686,1.7088839347276488,-5.335095380372328,-9.482691932888992
1621787086989.744,1.4921842756708585,-0.07780354490543617,0.674313842954748,1.608,-4.844,-9.169
1621787086991.642,1.456,-0.037,0.667,1.685199595476694,-5.009955303239251,-8.70639810303086
1621787086996.573,1.318,0.089,0.654,1.8857398179645122,-5.441054886457663,-7.5047041463638875
1621787087001.504,1.18,0.22,0.672,2.0862800404523303,-5.872154469676075,-6.303010189696914
1621787087005.677,1.0488018718431216,0.32157274437951866,0.67623219768248,2.256,-6.237,-5.286
1621787087006.434,1.025,0.34,0.677,2.203274679954005,-6.200629513223458,-5.231895929474894
1621787087011.364,0.819,0.424,0.644,1.8599395017247986,-5.963793254120353,-4.879582644691452
1621787087016.293,0.569,0.492,0.583,1.5166723342276733,-5.727003909543887,-4.527339149099271
1621787087021.223,0.269,0.564,0.524,1.1733371559984669,-5.490167650440783,-4.175025864315829
1621787087021.601,0.24405945008669805,0.5721344562794154,0.5206234332425068,1.147,-5.472,-4.148
1621787087026.151,-0.056,0.67,0.48,0.7155581994357905,-5.177705261866798,-4.828878020360603
1621787087031.08,-0.375,0.806,0.449,0.24813976450386366,-4.858870170489391,-5.566532411382314
1621787087036.008,-0.642,0.915,0.396,-0.21916291549123024,-4.5401140377775056,-6.304004124248743
1621787087037.525,-0.7029449591280654,0.9427022541491207,0.37445380232846176,-0.363,-4.442,-6.531
1621787087040.936,-0.84,1.005,0.326,-0.5100037576110796,-4.868653762979095,-7.169802042913452
1621787087045.863,-0.965,1.096,0.269,-0.7223343353629545,-5.484907670127759,-8.09248054477692
1621787087050.79,-1.005,1.161,0.215,-0.9346649131148295,-6.101161577276422,-9.01515904664039
1621787087053.443,-0.9861495762501858,1.164770084749963,0.1950724091787679,-1.049,-6.433,-9.512
1621787087055.716,-0.97,1.168,0.178,-1.1288363170570819,-6.580104484022888,-9.7936408179545
1621787087060.643,-0.852,1.134,0.14,-1.30189504042217,-6.898978339239418,-10.404144936873918
1621787087065.569,-0.688,1.066,0.098,-1.4749194624695108,-7.217788991670118,-11.014528050071334
1621787087069.358,-0.5464425936942297,1.0113773051754908,0.0495319750148721,-1.608,-7.463,-11.484
1621787087070.494,-0.504,0.995,0.035,-1.6584053581292582,-7.434298932056712,-11.395040968514087
1621787087075.419,-0.328,0.909,-0.031,-1.8769369054195053,-7.309865954704474,-11.009360645676058
1621787087080.344,-0.178,0.824,-0.099,-2.0954684527097527,-7.185432977352237,-10.623680322838029
1621787087085.268,-0.073,0.754,-0.162,-2.3139566685079482,-7.061024673172528,-10.238076474559627
1621787087085.269,-0.07298314578892579,0.7539857234917959,-0.16201427650820405,-2.314,-7.061,-10.238
1621787087090.193,0.012,0.682,-0.234,-2.235068540032843,-6.7817993063122515,-9.615834374376524
1621787087095.116,0.068,0.618,-0.286,-2.156156647585138,-6.502667827928605,-8.993822986847558
1621787087100.039,0.124,0.565,-0.33,-2.0772408416335426,-6.223522506484139,-8.371780751699688
1621787087101.177,0.13439989091630306,0.5557556525188417,-0.3380888040460135,-2.059,-6.159,-8.228
1621787087104.963,0.169,0.525,-0.365,-1.937604233502694,-5.9814289376333525,-7.8590520822140695
1621787087109.885,0.197,0.48,-0.391,-1.7797748630021337,-5.750564799607043,-7.379374583633935
1621787087114.808,0.194,0.438,-0.403,-1.6219141787035474,-5.519654857476169,-6.899601915667644
1621787087117.082,0.19215198412698414,0.4162858134920635,-0.40531001984126985,-1.549,-5.413,-6.678
1621787087119.73,0.19,0.391,-0.408,-1.5000406264394288,-5.308586642100415,-6.48049722094273
1621787087124.651,0.188,0.349,-0.421,-1.4090554583141408,-5.114546844771994,-6.113461814831875
1621787087129.573,0.169,0.295,-0.424,-1.3180477199447258,-4.920458912943344,-5.746335360049133
1621787087132.983,0.1426628622469234,0.2686628622469234,-0.42677233028979755,-1.255,-4.786,-5.492
1621787087134.493,0.131,0.257,-0.428,-1.1720824951243107,-4.7691885471214235,-5.4304529860716535
1621787087139.414,0.091,0.22,-0.436,-0.9018532072052703,-4.714399791151584,-5.229870421843088
1621787087144.334,0.068,0.185,-0.435,-0.6316909504138577,-4.659624625685284,-5.029337612678328
1621787087148.881,0.052285040698828666,0.14987244391502877,-0.4377732281119714,-0.382,-4.609,-4.844
1621787087149.253,0.051,0.147,-0.438,-0.35125784598368587,-4.608555478747101,-4.827716484630629
1621787087154.173,0.047,0.117,-0.435,0.055535738974146265,-4.6026733797256405,-4.612245909949768
1621787087159.092,0.035,0.079,-0.422,0.4622283976220103,-4.596792740064826,-4.396828793953638
1621787087164.01,0.0,0.058,-0.401,0.8688403152218996,-4.590913267892529,-4.181454444905295
1621787087164.774,-0.00947334723049434,0.057689398451459206,-0.39649627754615846,0.932,-4.59,-4.148
1621787087168.929,-0.061,0.056,-0.372,1.3294569031742618,-4.651448929109178,-3.958423516578066
1621787087173.847,-0.115,0.073,-0.33,1.799894170789417,-4.7241810066681005,-3.7340373198537318
1621787087178.764,-0.166,0.115,-0.29,2.270238023538088,-4.796898641797007,-3.5096956795624252
1621787087180.664,-0.1849320393169182,0.1258183081810961,-0.2718406969817315,2.452,-4.825,-3.423
1621787087183.682,-0.215,0.143,-0.243,2.604733928598872,-4.845516497871491,-3.4192006485423168
1621787087188.599,-0.265,0.183,-0.201,2.8535984262859424,-4.878946057262291,-3.413009989395872
1621787087193.516,-0.314,0.227,-0.162,3.1024505678587344,-4.9123739568765465,-3.4068196376154543
1621787087196.55,-0.34424802543341115,0.24860573245243656,-0.14039426754756346,3.256,-4.933,-3.403
1621787087198.431,-0.363,0.262,-0.127,3.3256358605423353,-5.001451577199778,-3.436633646928611
1621787087203.347,-0.403,0.304,-0.086,3.507643608190371,-5.180363954989854,-3.5245421508946686
1621787087208.263,-0.436,0.342,-0.04,3.689651355838406,-5.35927633277993,-3.6124506548607265
1621787087212.432,-0.447874826147427,0.37932088217762766,-0.006071925293065765,3.844,-5.511,-3.687
1621787087213.178,-0.45,0.386,0.0,3.8393956799139057,-5.541444891997847,-3.7197470520408946
1621787087218.093,-0.473,0.412,0.038,3.809063817357214,-5.7420065954339305,-3.9354746867553234
1621787087223.007,-0.48,0.44,0.089,3.778737981397494,-5.9425284495349375,-4.15115945883619
1621787087227.921,-0.476,0.452,0.126,3.7484136520870166,-6.143040341302175,-4.3668335152586675
1621787087228.312,-0.47369187201907786,0.4531142686804452,0.1282285373608903,3.746,-6.159,-4.384
1621787087232.835,-0.447,0.466,0.154,3.469352208415354,-6.460719888041338,-4.562638687253937
1621787087237.748,-0.415,0.468,0.173,3.168841566190945,-6.788465274360236,-4.756686238927165
1621787087242.66,-0.365,0.461,0.194,2.8684055887057087,-7.116129229207677,-4.950685577632874
1621787087244.187,-0.34386404293381034,0.4588242397137746,0.2008381037567084,2.775,-7.218,-5.011
1621787087247.573,-0.297,0.454,0.216,2.3984496523504797,-7.27026902842727,-5.203435361801625
1621787087252.485,-0.209,0.431,0.211,1.8521815007383706,-7.346096618877676,-5.482604694806793
1621787087257.397,-0.113,0.368,0.199,1.3059404996308146,-7.421920440561162,-5.761760152596604
1621787087260.058,-0.0609920477137177,0.34145427435387676,0.18491451292246522,1.01,-7.463,-5.913
1621787087262.309,-0.017,0.319,0.173,0.823553917419474,-7.422560781175457,-5.950601378907032
1621787087267.219,0.075,0.267,0.138,0.416870927530433,-7.334353283368473,-6.032618876867911
1621787087272.131,0.155,0.222,0.103,0.010005940380738432,-7.246106311269795,-6.114673078994752
1621787087275.922,0.20364323007309432,0.18957117995127043,0.06825483566207549,-0.304,-7.178,-6.178
1621787087277.041,0.218,0.18,0.058,-0.31994209635216253,-7.178,-6.170381653070648
1621787087281.95,0.265,0.15,0.033,-0.3898848699399723,-7.178,-6.1369576727720485
1621787087286.861,0.291,0.122,0.021,-0.4598589502847468,-7.178,-6.103518731722334
1621787087291.77,0.297,0.106,0.023,-0.5298017238725565,-7.178,-6.070094751423734
1621787087291.784,0.2969291150574541,0.1058724071034174,0.023,-0.53,-7.178,-6.07
1621787087296.678,0.272,0.061,0.023,-0.6296822107612963,-7.190344546224309,-6.057964067431299
1621787087301.587,0.241,0.007,0.031,-0.729667754599338,-7.202726656916327,-6.045891509506581
1621787087306.495,0.195,-0.042,0.042,-0.8296383804172118,-7.215106920175506,-6.033820752828881
1621787087307.642,0.1872880167139233,-0.05181525145500672,0.04363587524250112,-0.853,-7.218,-6.031
1621787087311.403,0.162,-0.084,0.049,-0.6670145985401459,-7.252872262773723,-6.117113138686131
1621787087316.311,0.134,-0.136,0.059,-0.42430998798854286,-7.298379377252148,-6.229487849949182
1621787087321.218,0.119,-0.182,0.052,-0.18165366965413154,-7.3438774369398505,-6.341840201422896
1621787087323.496,0.12039275585850041,-0.20289133787750635,0.042250708990497036,-0.069,-7.365,-6.394
1621787087326.125,0.122,-0.227,0.031,-0.0104620383774294,-7.374783965257031,-6.577739550928635
1621787087331.031,0.143,-0.264,0.012,0.09878019219515197,-7.3930425816983405,-6.920630178334925
1621787087335.937,0.176,-0.278,-0.026,0.20802242276773336,-7.4113011981396495,-7.263520805741214
1621787087339.349,0.20034237372480715,-0.28217297835282407,-0.0684252799203782,0.284,-7.424,-7.502
1621787087340.843,0.211,-0.284,-0.087,0.28956264156176326,-7.298227731467929,-7.783997642563288
1621787087345.748,0.251,-0.281,-0.164,0.30782690559467496,-6.885269626045824,-8.70990295989276
1621787087350.653,0.295,-0.232,-0.227,0.32609116962758666,-6.47231152062372,-9.635808277222232
1621787087355.194,0.31259434431942645,-0.17736493079757043,-0.27515294234790405,0.343,-6.09,-10.493
1621787087355.557,0.314,-0.173,-0.279,0.29044625768572885,-6.095610312360347,-10.515693141016751
1621787087360.461,0.283,-0.133,-0.401,-0.41994877721788165,-6.17144769081411,-10.822447598354215
1621787087365.365,0.244,-0.126,-0.555,-1.1303438121214922,-6.247285069267872,-11.129202055691676
1621787087370.269,0.291,-0.096,-0.698,-1.8407388470251025,-6.323122447721634,-11.43595651302914
1621787087371.037,0.31402753572673403,-0.08362465767066674,-0.7119418413583628,-1.952,-6.335,-11.484
1621787087375.172,0.438,-0.017,-0.787,-2.2999812114673244,-6.591091199136868,-11.76045319050555
1621787087380.075,0.644,0.026,-0.845,-2.7125784062885328,-6.894735496300863,-12.088240459309494
1621787087384.977,0.883,-0.01,-0.927,-3.1251139642416774,-7.1983344327990135,-12.415978760789148
1621787087386.877,0.9698025097101882,-0.06308903495667761,-0.9707887660591575,-3.285,-7.316,-12.543
1621787087389.88,1.107,-0.147,-1.04,-2.9150652083429685,-6.893921657494334,-12.474170512879803
1621787087394.781,1.311,-0.297,-1.166,-2.311289521959642,-6.20504176108773,-12.361832955649076
1621787087399.682,1.477,-0.398,-1.248,-1.7075439115756372,-5.516196179993525,-12.249500994311612
1621787087402.714,1.5339185554171855,-0.416560398505604,-1.251093399750934,-1.334,-5.09,-12.18
1621787087404.583,1.569,-0.428,-1.253,-1.1117344569172887,-5.006665176093258,-11.580366989452909
1621787087409.484,1.538,-0.417,-1.21,-0.5288790014186148,-4.788133072225992,-10.00792635539382
1621787087414.385,1.363,-0.389,-1.161,0.05400548942206873,-4.569590082032937,-8.435407389132177
1621787087418.547,1.121714641682448,-0.3609633210405661,-1.12956493571215,0.549,-4.384,-7.1
1621787087419.284,1.079,-0.356,-1.124,0.6069963910609356,-4.426868921482441,-6.959430898070606
1621787087424.184,0.744,-0.344,-1.11,0.9926973734943476,-4.711965715078888,-6.024585820262496
1621787087429.083,0.384,-0.305,-1.072,1.3783022717808726,-4.996991486605284,-5.08997362698376
1621787087433.981,0.024,-0.258,-0.993,1.7638303027498883,-5.28196044047564,-4.155547741328522
1621787087434.377,-0.0025994417306350326,-0.25775745189911276,-0.9828129797627355,1.795,-5.305,-4.08
1621787087438.879,-0.305,-0.255,-0.867,2.389040268456376,-5.598037105608269,-4.785849571858366
1621787087443.778,-0.569,-0.255,-0.688,3.035493959731544,-5.9169294916300235,-5.553977736635038
1621787087448.675,-0.756,-0.291,-0.466,3.681657718120805,-6.235678855203271,-6.321761397824577
1621787087450.201,-0.7912033695543814,-0.30314983550991925,-0.40182394576811886,3.883,-6.335,-6.561
1621787087453.573,-0.869,-0.33,-0.26,3.3814856256654786,-6.621457849173649,-7.167165270126382
1621787087458.47,-0.942,-0.372,-0.098,2.6531786954307672,-7.037456367760752,-8.04744784963659
1621787087463.366,-0.991,-0.433,0.035,1.9250170053855533,-7.453371927225591,-8.92755488171844
1621787087466.022,-0.991,-0.4639154950643135,0.08218680825605743,1.53,-7.679,-9.405
1621787087468.263,-0.991,-0.49,0.122,1.2590708573898546,-7.719242613232888,-9.809268223779677
1621787087473.159,-0.942,-0.592,0.192,0.6671531075365094,-7.807163450554201,-10.692501142363147
1621787087478.055,-0.859,-0.726,0.244,0.07523535768316414,-7.895084287875513,-11.575734060946617
1621787087481.837,-0.7686036408977556,-0.810988029925187,0.27413211970074813,-0.382,-7.963,-12.258
1621787087482.95,-0.742,-0.836,0.283,-0.40205920585420074,-7.944348457714515,-12.273906598326489
1621787087487.844,-0.59,-0.913,0.302,-0.4902598727884645,-7.862337311266867,-12.343848179825239
1621787087492.739,-0.433,-0.958,0.295,-0.5784781393769105,-7.780309800228487,-12.413803717540988
1621787087497.633,-0.269,-0.967,0.276,-0.6666788063111743,-7.698298653780839,-12.483745299039738
1621787087497.651,-0.26834434409460606,-0.9669745022703458,0.2759562896063071,-0.667,-7.698,-12.484
1621787087502.526,-0.089,-0.96,0.264,-0.47644093393866394,-7.462113777448346,-11.851886593162234
1621787087507.42,0.089,-0.922,0.236,-0.28513749652552584,-7.22530612433985,-11.21730399332901
1621787087512.313,0.257,-0.869,0.215,-0.09387223200222361,-6.9885457240804225,-10.582848018777602
1621787087513.461,0.28961041812194394,-0.8584426703921764,0.21171549745534377,-0.049,-6.933,-10.434
1621787087517.206,0.396,-0.824,0.201,0.20664297408334104,-6.71929289840299,-9.66256948691811
1621787087522.098,0.503,-0.787,0.208,0.5405620269978066,-6.440150186884131,-8.654932381923206
1621787087526.99,0.55,-0.731,0.22,0.8744977450344421,-6.160993544002718,-7.647244988107373
1621787087529.268,0.537892703862661,-0.7049227467811159,0.22884763948497855,1.03,-6.031,-7.178
1621787087531.882,0.524,-0.675,0.239,1.153240092699884,-5.831499930475086,-6.7887598146002315
1621787087536.772,0.447,-0.616,0.269,1.3837786017767477,-5.458306048667439,-6.060629463113171
1621787087541.664,0.368,-0.536,0.278,1.614420702974121,-5.0849444727694095,-5.332171927385091
1621787087545.07,0.33038683908332916,-0.4677390783364122,0.2814827000848769,1.775,-4.825,-4.825
1621787087546.554,0.314,-0.438,0.283,1.8293819075287427,-4.78724261342564,-4.743943719866485
1621787087551.444,0.262,-0.342,0.288,2.008597045370256,-4.662813450364693,-4.476823402151069
1621787087556.334,0.208,-0.255,0.3,2.1878032358758808,-4.538390499443689,-4.2097164204475215
1621787087560.869,0.1560549313358302,-0.17893757802746565,0.32968289637952564,2.354,-4.423,-3.962
1621787087561.223,0.152,-0.173,0.332,2.339275205960091,-4.4280427376849,-3.942658299457471
1621787087566.112,0.099,-0.091,0.354,2.1359105677233874,-4.497688161738566,-3.675529406309412
1621787087571.001,0.037,-0.021,0.368,1.9325560845170564,-4.567330108042103,-3.408413852265175
1621787087575.889,-0.04,0.045,0.377,1.729242221432215,-4.636958143345131,-3.1413516546362277
1621787087576.664,-0.0541132254520028,0.05229447607631605,0.3784271801018879,1.697,-4.648,-3.099
1621787087580.777,-0.129,0.091,0.386,1.3239883109654278,-4.574022821448451,-3.142500664852496
1621787087585.665,-0.216,0.131,0.387,0.8807006617601584,-4.4861082318015955,-3.1941969200321605
1621787087590.552,-0.288,0.148,0.384,0.43750157709196613,-4.398211206629971,-3.245882846805616
1621787087592.454,-0.30551836306400837,0.1522822665267576,0.3793284365162644,0.265,-4.364,-3.266
1621787087595.438,-0.333,0.159,0.372,0.05367294576161094,-4.338103929847353,-3.3455784345566744
1621787087600.325,-0.365,0.161,0.361,-0.29243519077003965,-4.295691752114942,-3.475910747150435
1621787087605.211,-0.387,0.161,0.353,-0.638474164462797,-4.25328804961413,-3.606217015419354
1621787087608.24,-0.396919152550842,0.16533962924099335,0.353,-0.853,-4.227,-3.687
1621787087610.097,-0.403,0.168,0.353,-0.9165254814012838,-4.281231938751837,-3.6362972546593455
1621787087614.983,-0.415,0.176,0.347,-1.0836745031320083,-4.423927677673807,-3.5028875725001933
1621787087619.867,-0.429,0.173,0.347,-1.2507567086845564,-4.5665663753770005,-3.3695312195499185
1621787087624.025,-0.44432100554750364,0.16108366235194163,0.3529581688240292,-1.393,-4.688,-3.256
1621787087624.752,-0.447,0.159,0.354,-1.38079111681802,-4.725916644750074,-3.2347611503890836
1621787087629.636,-0.476,0.162,0.365,-1.298776775630811,-4.980625334550349,-3.0920871455313352
1621787087634.521,-0.506,0.162,0.375,-1.2167460356750568,-5.235384953356332,-2.9493846130045327
1621787087639.404,-0.52,0.168,0.405,-1.1347480932563931,-5.4900427141509,-2.8067391358158384
1621787087639.806,-0.5207406629668517,0.16841147942602872,0.40672821358932054,-1.128,-5.511,-2.795
1621787087644.287,-0.529,0.173,0.426,-1.1640720641257756,-5.630861504417932,-2.870268480262445
1621787087649.171,-0.527,0.176,0.443,-1.2033848165513825,-5.761491280194358,-2.9522990266623337
1621787087654.053,-0.506,0.185,0.442,-1.242683812264983,-5.892075344691518,-3.0343008681119725
1621787087655.583,-0.494404310646597,0.1859401910286543,0.43761244186627996,-1.255,-5.933,-3.06
1621787087658.935,-0.469,0.188,0.428,-1.4114042717845534,-5.8809360780065,-3.2682556879739977
1621787087663.817,-0.417,0.19,0.407,-1.6391872156013,-5.805111592632719,-3.5715536294691224
1621787087668.698,-0.356,0.187,0.38,-1.8669359851416192,-5.729298483206934,-3.8748060671722646
1621787087671.357,-0.3238667300095014,0.179375156273441,0.3505898884832725,-1.991,-5.688,-4.04
1621787087673.58,-0.297,0.173,0.326,-1.9743641740207463,-5.657547979563399,-4.188030654900139
1621787087678.46,-0.237,0.164,0.274,-1.9378479331165817,-5.590704691128658,-4.51296330701347
1621787087683.34,-0.199,0.159,0.229,-1.9013298653042268,-5.5238580585229915,-4.837912215513237
1621787087687.126,-0.19201905762304922,0.16675660264105643,0.20960849339735893,-1.873,-5.472,-5.09
1621787087688.221,-0.19,0.169,0.204,-1.8116786565916199,-5.533321343408381,-5.084513718992908
1621787087693.1,-0.201,0.202,0.195,-1.5384329379703323,-5.806567062029668,-5.060067046545477
1621787087697.98,-0.234,0.248,0.195,-1.2651462017280357,-6.079853798271965,-5.035616704344864
1621787087702.858,-0.26,0.264,0.195,-0.9919688458084296,-6.353031154191571,-5.011176148152736
1621787087702.893,-0.26016572429321994,0.26375501626219666,0.19494235676757568,-0.99,-6.355,-5.011
1621787087707.737,-0.283,0.23,0.187,-1.4270656979536196,-6.412168930955959,-5.357701903861943
1621787087712.615,-0.297,0.147,0.164,-1.8671933450033307,-6.469738370021533,-5.706832695614456
1621787087717.493,-0.305,0.051,0.113,-2.3073209920530418,-6.527307809087107,-6.05596348736697
1621787087718.653,-0.30309701156329777,0.02840201231416128,0.09825183961555789,-2.412,-6.541,-6.139
1621787087722.37,-0.297,-0.044,0.051,-2.631859002169197,-6.578036334056399,-6.636277657266811
1621787087727.248,-0.293,-0.124,-0.021,-2.9203833281685774,-6.626639680818098,-7.288862720793307
1621787087732.124,-0.278,-0.239,-0.073,-3.2087921289123025,-6.675223566780292,-7.941186488999071
1621787087734.41,-0.2555018021625951,-0.30368231878253904,-0.07909326191429715,-3.344,-6.698,-8.247
1621787087737.001,-0.23,-0.377,-0.086,-3.135934211545912,-6.941593227431229,-8.3261143432778
1621787087741.877,-0.143,-0.497,-0.075,-2.744387059279349,-7.399997442851609,-8.47499511817125
1621787087746.752,-0.007,-0.583,-0.056,-2.3529183262301436,-7.858309848895777,-8.623846075164664
1621787087750.163,0.11542639695573803,-0.6025882235129181,-0.054600841177648705,-2.079,-8.179,-8.728
1621787087751.628,0.168,-0.611,-0.054,-1.8418017301520861,-8.158907911259941,-8.601215199293057
1621787087756.502,0.377,-0.583,-0.044,-1.0525640202781266,-8.092054834658853,-8.179359905740817
1621787087761.378,0.604,-0.513,-0.014,-0.26301004604436984,-8.02517496860611,-7.7573355657876375
1621787087765.911,0.7909722945891784,-0.4078862224448898,0.03995220440881763,0.471,-7.963,-7.365
1621787087766.251,0.805,-0.4,0.044,0.5161271168041685,-7.92359748154581,-7.377918150238819
1621787087771.125,0.934,-0.244,0.168,1.162873534520191,-7.358894051237517,-7.563056665219279
1621787087775.999,0.979,-0.11,0.309,1.8096199522362135,-6.794190620929223,-7.7481951801997395
1621787087780.872,0.953,0.005,0.391,2.456236787420135,-6.229600334966814,-7.933296600707152
1621787087781.654,0.9326150839388624,0.028916161363066902,0.4011122024555249,2.56,-6.139,-7.963
1621787087785.744,0.826,0.154,0.454,3.576548373586486,-5.208982968030155,-9.441048862208572
1621787087790.617,0.562,0.26,0.614,4.787765275257108,-4.1008681185722935,-11.202143375680581
1621787087795.489,0.218,0.239,0.826,5.9987394480897205,-2.9929753362185303,-12.962884964400391
1621787087797.393,0.12811375025055122,0.15653913609941872,0.8994722389256364,6.472,-2.56,-13.651
1621787087800.361,-0.012,0.028,1.014,6.226080201045561,-3.3588621689961684,-13.99875775250919
1621787087805.232,-0.063,-0.152,1.126,5.822498239300064,-4.669884553930162,-14.569467213750523
1621787087810.103,0.037,-0.178,1.173,5.418896048896267,-5.980972650978082,-15.140205280548532
1621787087813.131,0.15822017842822775,-0.12143058340016039,1.2239746391339215,5.168,-6.796,-15.495
1621787087814.974,0.232,-0.087,1.255,4.732656452663916,-7.0222802618922024,-15.492657554224717
1621787087819.844,0.496,0.017,1.384,3.5823322059142955,-7.6201889099202536,-15.486468023706829
1621787087824.713,0.815,0.052,1.419,2.4322386353057994,-8.217977658485122,-15.480279734384212
1621787087828.867,1.1024501203128132,-0.004295869260076204,1.337115099258071,1.451,-8.728,-15.475
1621787087829.583,1.152,-0.014,1.323,1.357263822059417,-8.711474389221742,-15.324084298264676
1621787087834.452,1.484,-0.162,1.147,0.7199025548691522,-8.599108124049296,-14.29792956259895
1621787087839.322,1.792,-0.227,0.977,0.08238149194424604,-8.486713687020767,-13.271517555024369
1621787087844.19,2.044,-0.239,0.887,-0.554851938658306,-8.374369959333189,-12.245568636885729
1621787087844.596,2.0522566198595786,-0.2331619859578736,0.880161183550652,-0.608,-8.365,-12.16
1621787087849.058,2.143,-0.169,0.805,-0.12121850069843237,-8.153664209219308,-10.040401303740493
1621787087853.926,2.103,-0.033,0.742,0.40982796833773094,-7.923110817941953,-7.728059102902375
1621787087858.792,1.92,0.122,0.712,0.9406613689275184,-7.692649930156759,-5.416644668632624
1621787087860.326,1.8197946737549526,0.1730479963889864,0.7053826671347609,1.108,-7.62,-4.688
1621787087863.66,1.602,0.284,0.691,0.8461267662494953,-6.998289618334835,-4.034907238905624
1621787087868.526,1.173,0.438,0.665,0.4639214775938636,-6.090900220490047,-3.0817151020154654
1621787087873.392,0.66,0.585,0.621,0.08169701251513928,-5.183465296108817,-2.1284751405235864
1621787087876.049,0.3652009029345373,0.6679804865813895,0.5904282417858038,-0.127,-4.688,-1.608
1621787087878.259,0.12,0.737,0.565,-0.1463968416639493,-4.410821943758637,-2.137336997872704
1621787087883.124,-0.384,0.92,0.508,-0.18909689290538967,-3.800644399931678,-3.3026152078383877
1621787087887.989,-0.82,1.098,0.45,-0.23179694414683005,-3.1904668561047194,-4.467893417804071
1621787087891.772,-1.0929334571184826,1.2107502885532193,0.3986791790033623,-0.265,-2.716,-5.374
1621787087892.854,-1.171,1.243,0.384,-0.2926754741600261,-2.9071122295229666,-5.705486089752551
1621787087897.718,-1.429,1.337,0.321,-0.4170839740901254,-3.766211721577582,-7.195602823989934
1621787087902.582,-1.56,1.384,0.269,-0.5414924740202247,-4.625311213632198,-8.685719558227317
1621787087907.446,-1.56,1.375,0.216,-0.6659009739503239,-5.484410705686813,-10.175836292464702
1621787087907.489,-1.5590280636578142,1.374540539183694,0.21547868868919123,-0.667,-5.492,-10.189
1621787087912.309,-1.45,1.323,0.157,-1.171103947042044,-6.143325561205507,-10.810330305097358
1621787087917.173,-1.267,1.222,0.084,-1.6798038881309687,-6.800589358799455,-11.437325375170532
1621787087922.041,-1.065,1.103,0.003,-2.1889123620240607,-7.458380999627931,-12.064823979908223
1621787087923.237,-1.0129773427942255,1.0744714460484464,-0.01737753853682408,-2.314,-7.62,-12.219
1621787087927.03,-0.848,0.984,-0.082,-2.40847805763558,-7.677579910748053,-11.926400045382346
1621787087932.025,-0.613,0.878,-0.168,-2.532894032221466,-7.753405566901142,-11.541081915135013
1621787087937.02,-0.389,0.799,-0.253,-2.657316088041752,-7.829234929279178,-11.155744951213977
1621787087939.376,-0.2880615377095655,0.7565492448311256,-0.2860172540202356,-2.716,-7.865,-10.974
1621787087942.015,-0.175,0.709,-0.323,-2.603830360789653,-7.730265622872703,-10.560313138189244
1621787087947.01,0.01,0.602,-0.377,-2.391508146131155,-7.475231359201271,-9.777258906285455
1621787087952.005,0.133,0.522,-0.414,-2.1791963089025037,-7.220209560547614,-8.994242946827018
1621787087955.515,0.18077345582486318,0.4707137900703675,-0.4287535672400313,-2.03,-7.041,-8.444
1621787087957.001,0.201,0.449,-0.435,-2.015543536138928,-6.905551220766648,-8.23534810758479
1621787087961.996,0.25,0.379,-0.438,-1.9669515777690374,-6.450272426103531,-7.534014491876683
1621787087966.99,0.278,0.311,-0.443,-1.9183714942667836,-5.995104892142923,-6.832852267570266
1621787087971.654,0.29853792025019543,0.26152228303362,-0.45793666927286947,-1.873,-5.57,-6.178
1621787087971.986,0.3,0.258,-0.459,-1.8671575277193726,-5.5476175709812585,-6.143294891769653
1621787087976.981,0.311,0.201,-0.483,-1.7792669833154335,-5.21091013326476,-5.621212679060339
1621787087981.977,0.276,0.145,-0.503,-1.6913549592339923,-4.874120407206281,-5.099002874041355
1621787087986.972,0.213,0.094,-0.513,-1.6034644148300534,-4.5374129694897825,-4.576920661332042
1621787087987.794,0.1995083072713057,0.08659602228303362,-0.5126709343236904,-1.589,-4.482,-4.491
1621787087991.968,0.131,0.049,-0.511,-1.299904050334251,-4.390720151849723,-4.260343839801567
1621787087996.964,0.04,0.003,-0.497,-0.9538749508454581,-4.281464094497716,-3.9842633775976286
1621787088001.959,-0.047,-0.04,-0.483,-0.6079303971686985,-4.172234731843068,-3.7082503705496235
1621787088003.936,-0.07668475073313782,-0.059394037145650044,-0.48022942326490714,-0.471,-4.129,-3.599
1621787088006.954,-0.122,-0.089,-0.476,-0.3077639344758217,-4.169201321979036,-3.5200932191853345
1621787088011.95,-0.178,-0.12,-0.468,-0.037556879887465366,-4.235747160165172,-3.38947766702464
1621787088016.946,-0.229,-0.15,-0.459,0.23266337936563164,-4.302296250359234,-3.2588557318530396
1621787088020.077,-0.25970791184088354,-0.1619071494893222,-0.4533597712945316,0.402,-4.344,-3.177
1621787088021.942,-0.278,-0.169,-0.45,0.5118812505672021,-4.388252911637475,-3.1521582872008955
1621787088026.938,-0.321,-0.182,-0.429,0.8062404483165442,-4.506801358259976,-3.0856102035877426
1621787088031.933,-0.34,-0.187,-0.41,1.1005421090843088,-4.625326632785795,-3.019075127809541
1621787088036.218,-0.3631577481307726,-0.182711528123931,-0.3894153349948688,1.353,-4.727,-2.962
1621787088036.929,-0.367,-0.182,-0.386,1.375022900186045,-4.747305113971533,-2.962
1621787088041.925,-0.407,-0.162,-0.361,1.5297882262187468,-4.889998744573685,-2.962
1621787088046.922,-0.443,-0.143,-0.34,1.6845838034879677,-5.032720266815906,-2.962
1621787088051.917,-0.469,-0.124,-0.316,1.83931131547502,-5.175379032867968,-2.962
1621787088052.359,-0.4707689601250977,-0.12302707193119625,-0.31431948788115716,1.853,-5.188,-2.962
1621787088056.913,-0.489,-0.113,-0.297,1.938773300662492,-5.528271712496597,-3.0864277157636812
1621787088061.91,-0.494,-0.08,-0.279,2.0328829899869922,-5.901614756329976,-3.2229486795534985
1621787088066.906,-0.483,-0.061,-0.258,2.1269788849562876,-6.27490307650422,-3.359449632453036
1621787088068.5,-0.4692809323690383,-0.04759998045347928,-0.2497047498045348,2.157,-6.394,-3.403
1621787088071.902,-0.44,-0.019,-0.232,2.2419360990955566,-6.639956396140234,-3.6407367736471157
1621787088076.898,-0.372,0.01,-0.192,2.366661423515533,-7.001133700353913,-3.98984388517499
1621787088081.894,-0.25,0.051,-0.143,2.4913928430987022,-7.362328654829245,-4.338968057110015
1621787088084.642,-0.18180848153214774,0.049900136798905606,-0.12485225718194254,2.56,-7.561,-4.531
1621787088086.891,-0.126,0.049,-0.11,2.3687131773566645,-7.510426717684245,-4.640227144175073
1621787088091.887,-0.017,0.028,-0.093,1.9437997761679346,-7.398086175345201,-4.882857957381165
1621787088096.883,0.082,-0.021,-0.087,1.5188656100179974,-7.2857401430710365,-5.12550062763721
1621787088100.785,0.16633361020178825,-0.07019460595104314,-0.09637040113353203,1.187,-7.198,-5.315
1621787088101.88,0.19,-0.084,-0.099,1.121820116141911,-7.146113828146267,-5.30903139461029
1621787088106.876,0.309,-0.15,-0.131,0.82441963826634,-6.909369431086109,-5.28179805220337
1621787088111.874,0.429,-0.197,-0.187,0.5269028974987146,-6.672532483440704,-5.254554063454617
1621787088116.87,0.529,-0.229,-0.223,0.22950241962314366,-6.435788086380546,-5.227320721047697
1621787088116.929,0.5299657430484289,-0.22928265650197918,-0.22316488295948786,0.226,-6.433,-5.227
1621787088121.866,0.611,-0.253,-0.237,0.5137673229894444,-6.226272358830112,-5.104064331730333
1621787088126.864,0.653,-0.239,-0.223,0.8050922481323534,-6.016988990714696,-4.979608837673533
1621787088131.86,0.658,-0.208,-0.178,1.0963033300063516,-5.807787405861537,-4.85520197804192
1621787088133.073,0.6461084460944752,-0.19659381564163939,-0.16052669630208588,1.167,-5.757,-4.825
1621787088136.858,0.609,-0.161,-0.106,1.277417556328444,-5.64189380009073,-4.792882791471344
1621787088141.854,0.503,-0.136,-0.017,1.4231690155753818,-5.489953319219719,-4.750487993346439
1621787088146.851,0.358,-0.127,0.056,1.5689489641615,-5.337983139271133,-4.708084908513534
1621787088149.218,0.27178853764596667,-0.11231563003859872,0.08726349733717692,1.638,-5.266,-4.688
1621787088151.848,0.176,-0.096,0.122,1.5389680950796867,-5.443377869174706,-4.812441406840657
1621787088156.845,0.012,-0.066,0.162,1.3507964435842381,-5.7804155804881,-5.048893942601385
1621787088161.843,-0.106,-0.031,0.176,1.162588018265945,-6.117519158073003,-5.285392687573713
1621787088165.364,-0.13066624315871775,-0.014086004691164972,0.17036200156372167,1.03,-6.355,-5.452
1621787088166.839,-0.141,-0.007,0.168,0.8784885205239118,-6.477726126017122,-5.6375056111800115
1621787088171.836,-0.091,-0.017,0.147,0.3652502798027769,-6.893455292053601,-6.265897425814453
1621787088176.834,0.035,-0.079,0.093,-0.14811334281133726,-7.309286018935842,-6.894442753864303
1621787088181.506,0.19955501270275552,-0.142578073089701,-0.01171682626538989,-0.628,-7.698,-7.482
1621787088181.831,0.211,-0.147,-0.019,-0.6248402485862038,-7.700576103063478,-7.520701923367708
1621787088186.828,0.401,-0.206,-0.187,-0.5762522454410742,-7.740189252124475,-8.115827592463786
1621787088191.826,0.579,-0.229,-0.377,-0.5276523724559228,-7.779812078507273,-8.71109864819911
1621787088196.823,0.756,-0.157,-0.517,-0.47906199534278887,-7.81942716303263,-9.306253394623038
1621787088197.652,0.7813804220398594,-0.12863364595545135,-0.5294413833528723,-0.471,-7.826,-9.405
1621787088201.821,0.909,0.014,-0.592,-1.341918861705023,-7.208120119756857,-10.164633350470258
1621787088206.818,0.946,0.124,-0.667,-2.3858382375177665,-6.467503734841382,-11.075161308857773
1621787088211.815,0.824,0.098,-0.81,-3.429706610820455,-5.726923534036954,-11.985644781806634
1621787088213.798,0.7617046209456819,0.06189248729972646,-0.8814214536928489,-3.844,-5.433,-12.347
1621787088216.813,0.667,0.007,-0.99,-4.195543056269464,-5.773528164968403,-12.368843089529223
1621787088221.811,0.611,-0.07,-1.133,-4.778326232878784,-6.338051008375412,-12.405054258760924
1621787088226.808,0.632,-0.131,-1.232,-5.360995540168718,-6.902463550328061,-12.44125835273486
1621787088229.947,0.6583784866396366,-0.1561223682282253,-1.2671713155195155,-5.727,-7.257,-12.464
1621787088231.806,0.674,-0.171,-1.288,-5.482018416039191,-7.282902658078562,-12.492205116574436
