time,gyro_x,gyro_y,gyro_z,acc_x,acc_y,acc_z
1621787352706.767,,,,-2.334,-3.442,-8.041
1621787352725.499,,,,-2.256,-3.383,-7.943
1621787352744.534,,,,-2.197,-3.56,-7.924
1621787352744.739,0.126,0.798,0.775,-2.199703692016409,-3.5640502366677187,-7.926078131902809
1621787352750.697,0.119,0.806,0.791,-2.278252382455033,-3.681719255285579,-7.986452811612496
1621787352756.683,0.117,0.819,0.808,-2.3571712212054274,-3.799942770590092,-8.047111997475543
1621787352762.699,0.127,0.822,0.819,-2.4364827390343957,-3.918754534553487,-8.10807300725781
1621787352763.876,0.13011534733441033,0.8237523828756058,0.821725928917609,-2.452,-3.942,-8.12
1621787352768.744,0.143,0.831,0.833,-2.5030379731106636,-4.036890988841671,-8.25601867591143
1621787352774.82,0.168,0.838,0.85,-2.5667439300181414,-4.1553345883347,-8.425798143592038
1621787352780.923,0.213,0.845,0.869,-2.63073145455901,-4.274301684932528,-8.596328002683963
1621787352783.524,0.24143716632443532,0.8493749486652977,0.8766561601642711,-2.658,-4.325,-8.669
1621787352785.679,0.265,0.853,0.883,-2.658,-4.332448519000558,-8.70990373146069
1621787352791.293,0.325,0.864,0.894,-2.658,-4.351852472146341,-8.8164610334816
1621787352796.915,0.384,0.859,0.902,-2.658,-4.371284271800226,-8.923171255309716
1621787352800.594,0.4225747570288094,0.8714223793821589,0.9065766660881639,-2.658,-4.384,-8.993
1621787352802.542,0.443,0.878,0.909,-2.664203512064343,-4.351485040214477,-8.966795509383378
1621787352808.176,0.499,0.885,0.916,-2.682145415549598,-4.25744471849866,-8.891006434316354
1621787352813.816,0.546,0.888,0.925,-2.700105978552279,-4.163306595174263,-8.815138538873994
1621787352818.807,0.5875400345871162,0.9003736273238219,0.9232323389537398,-2.716,-4.08,-8.748
1621787352819.463,0.593,0.902,0.923,-2.720234830575256,-4.062737682146626,-8.737771807508915
1621787352825.116,0.634,0.911,0.935,-2.756728132387707,-3.9139810874704493,-8.649631205673758
1621787352830.776,0.66,0.934,0.946,-2.793265563435776,-3.7650446100626414,-8.561384020515286
1621787352836.441,0.682,0.935,0.948,-2.8298360914105594,-3.6159732206061093,-8.473056897864327
1621787352837.086,0.6838191677066747,0.9368191677066747,0.9487958858716702,-2.834,-3.599,-8.463
1621787352842.114,0.698,0.951,0.955,-2.6701060616142125,-3.4564835318384457,-8.352823807305874
1621787352847.792,0.709,0.977,0.97,-2.4850280657395705,-3.2955461441213654,-8.228406826801518
1621787352853.478,0.705,1.016,0.998,-2.2996874575820083,-3.1343803978973988,-8.103813307605297
1621787352855.432,0.7015667095667095,1.032823123123123,1.0093298584298585,-2.236,-3.079,-8.061
1621787352859.169,0.695,1.065,1.031,-2.1383829682859568,-2.9736710198345357,-8.033196396372507
1621787352864.867,0.67,1.112,1.077,-1.9895436200678829,-2.8130730536699193,-7.990803484302079
1621787352870.571,0.637,1.134,1.114,-1.840544839838778,-2.6523030600339417,-7.948365162282563
1621787352873.846,0.6209435704514363,1.1661128590971273,1.1277626538987688,-1.755,-2.56,-7.924
1621787352876.282,0.609,1.19,1.138,-1.6115644372803424,-2.5302054805380125,-7.966582432682399
1621787352881.998,0.588,1.262,1.175,-1.2749983088021564,-2.460293766350448,-8.06650050207436
1621787352887.722,0.564,1.344,1.216,-0.9379721745104775,-2.3902864994847133,-8.166555135692201
1621787352892.324,0.5431180230080954,1.3986144013634427,1.2585671069450362,-0.667,-2.334,-8.247
1621787352893.452,0.538,1.412,1.269,-0.66815560821485,-2.3501176935229067,-8.242864139020536
1621787352899.188,0.494,1.454,1.316,-0.6740324512901528,-2.4320841890468667,-8.221831226961559
1621787352904.93,0.449,1.475,1.349,-0.6799152975250132,-2.514134412848868,-8.20077682991048
1621787352910.68,0.403,1.491,1.386,-0.6858063981042655,-2.5962997630331754,-8.17969289099526
1621787352910.869,0.40145679378950494,1.492017859415433,1.3877730454333346,-0.686,-2.599,-8.179
1621787352916.435,0.356,1.522,1.44,-0.36063749524521577,-2.8158086543632526,-8.263929183226432
1621787352922.197,0.323,1.583,1.518,-0.02382971969726777,-3.0402439827384935,-8.351845918755492
1621787352927.965,0.298,1.634,1.599,0.3133348286310156,-3.264917050328572,-8.439855782473536
1621787352929.482,0.2990506468250613,1.65028502578845,1.6173863194385727,0.402,-3.324,-8.463
1621787352933.74,0.302,1.696,1.669,0.5048153846153847,-3.3955832167832165,-8.650848951048951
1621787352939.521,0.332,1.745,1.728,0.6444040258806614,-3.4927691000588195,-8.905884517351808
1621787352945.308,0.365,1.803,1.78,0.7841400431344356,-3.5900575910071235,-9.161189347101498
1621787352948.16,0.3837037754930052,1.8182583431653463,1.7991959801112423,0.853,-3.638,-9.287
1621787352951.102,0.403,1.834,1.819,0.9131521288657778,-3.628733745161669,-9.337885874027448
1621787352956.902,0.419,1.873,1.843,1.0317343316260703,-3.610466512882668,-9.438200844508739
1621787352962.708,0.422,1.922,1.874,1.1504363295147986,-3.59218082652383,-9.53861715603863
1621787352966.893,0.4169491097360778,1.9645717893673444,1.900697562823589,1.236,-3.579,-9.611
1621787352968.508,0.415,1.981,1.911,1.2216242436072613,-3.5756427874292407,-9.559436658208082
1621787352974.312,0.412,2.021,1.941,1.1699606220313619,-3.5635776302947493,-9.37412821914243
1621787352980.123,0.414,2.051,1.958,1.1182339774871495,-3.55149775522155,-9.188593727633549
1621787352985.654,0.41209797666023,2.0643141633783895,1.9399307782721855,1.069,-3.54,-9.012
1621787352985.939,0.412,2.065,1.939,1.0759775106027003,-3.5446012217423446,-8.997303334500604
1621787352991.763,0.405,2.082,1.906,1.2186069154248214,-3.6386561871781904,-8.696884349506504
1621787352997.591,0.377,2.086,1.873,1.3613379635033658,-3.7327781798373603,-8.396251274269485
1621787353003.426,0.34,2.1,1.871,1.504236424004254,-3.827010570276124,-8.095265579808828
1621787353004.478,0.33063300029262993,2.106304711341499,1.8728013460975712,1.53,-3.844,-8.041
1621787353009.266,0.288,2.135,1.881,1.6592915034707412,-4.013093005519577,-8.04607025503807
1621787353015.113,0.22,2.145,1.92,1.8171745453135302,-4.2195792582825975,-8.05226174687504
1621787353020.965,0.138,2.136,1.955,1.975196029006864,-4.426246571269761,-8.05845866780419
1621787353023.365,0.11506142178514878,2.1233018584882073,1.9685173764480375,2.04,-4.511,-8.061
1621787353026.824,0.082,2.105,1.988,1.873558120362737,-4.5790732687551525,-8.612338726298434
1621787353032.687,0.049,2.032,1.998,1.5914363149216817,-4.694458612427865,-9.54686720682193
1621787353038.558,0.042,1.922,1.993,1.308926834295136,-4.810002511850784,-10.482679861397362
1621787353042.318,0.05543556829511466,1.8292305998670655,1.969967597208375,1.128,-4.884,-11.082
1621787353044.435,0.063,1.777,1.957,0.9346999345087513,-4.934217931760688,-11.278529156447036
1621787353050.317,0.099,1.613,1.906,0.397624028867515,-5.073746292039603,-11.824576952217072
1621787353056.204,0.154,1.452,1.838,-0.13994231633557197,-5.213402064900543,-12.37112338037574
1621787353061.33,0.22530257599602416,1.3233075457632735,1.7893055578563737,-0.608,-5.335,-12.847
1621787353062.099,0.236,1.304,1.782,-0.5996959932431568,-5.367006705655017,-12.755293129263018
1621787353067.999,0.318,1.19,1.737,-0.5359897623587525,-5.612554022753158,-12.051741307602727
1621787353073.905,0.4,1.124,1.698,-0.47221762665881784,-5.85835536132475,-11.347461653635001
1621787353079.817,0.471,1.115,1.681,-0.4083822223359738,-6.104400560510857,-10.642483280652137
1621787353080.408,0.4742957798770678,1.1191946289344499,1.6805006394125654,-0.402,-6.129,-10.572
1621787353085.735,0.504,1.157,1.676,-0.041867860513762456,-6.063597331700722,-9.867599346955434
1621787353091.66,0.497,1.248,1.686,0.3586677380679064,-5.990857095482258,-9.084171526236576
1621787353097.589,0.464,1.346,1.688,0.7595004209076298,-5.918062906558506,-8.300162623402464
1621787353099.549,0.451452638506149,1.370104141817135,1.6889905811705672,0.892,-5.894,-8.041
1621787353103.525,0.426,1.419,1.691,1.044391705127716,-5.790473026407802,-7.8339460528156035
1621787353109.467,0.398,1.504,1.693,1.2721510978881387,-5.6357451780651235,-7.524490356130246
1621787353115.415,0.374,1.587,1.702,1.5001350777485345,-5.480864756964311,-7.214729513928622
1621787353118.751,0.37287921912808103,1.6295896731329205,1.7104058565393923,1.628,-5.394,-7.041
1621787353121.368,0.372,1.663,1.717,1.7106032929008708,-5.341965359899616,-7.013012700102665
1621787353127.328,0.367,1.738,1.735,1.8987282659670204,-5.223459003510907,-6.949272988833543
1621787353133.293,0.358,1.794,1.744,2.0870150702815065,-5.104850704082538,-6.885478446582253
1621787353138.013,0.358,1.8105975634683782,1.7534843219819305,2.236,-5.011,-6.835
1621787353139.265,0.358,1.815,1.756,2.248882935770409,-4.971036607406078,-6.8575451375982155
1621787353145.242,0.335,1.836,1.773,2.3103884025276544,-4.7802441390978885,-6.965179704423395
1621787353151.226,0.309,1.857,1.803,2.3719667252009176,-4.5892256687645,-7.072941769101606
1621787353156.947,0.274,1.862,1.824,2.4308368176166733,-4.406608239229911,-7.175964430829178
1621787353157.06,0.27317028629944107,1.8617234287664806,1.8245926526432565,2.432,-4.403,-7.178
1621787353162.669,0.232,1.848,1.854,2.202824591073646,-4.331667256824248,-7.2763481225061435
1621787353168.39,0.183,1.813,1.873,1.9690704621726607,-4.25890934915308,-7.3766611526570305
1621787353174.113,0.134,1.782,1.897,1.7352265544486432,-4.186123497080041,-7.477012710408794
1621787353175.538,0.12328899415354415,1.7737799257457432,1.899989117910639,1.677,-4.168,-7.502
1621787353179.834,0.091,1.749,1.909,1.4603451528522737,-4.208913361693133,-7.515715274658493
1621787353185.556,0.054,1.716,1.929,1.1717716331545434,-4.263407931936482,-7.533983340819615
1621787353191.278,0.028,1.676,1.93,0.8831858007239676,-4.3179048273310965,-7.552252186434856
1621787353194.018,0.021297128962074998,1.6582852693997696,1.936224094535216,0.745,-4.344,-7.561
1621787353197.001,0.014,1.639,1.943,0.6738243639533962,-4.402586748038361,-7.554705555995879
1621787353202.724,0.0,1.6,1.943,0.5372636125861932,-4.514993897122929,-7.542628754854562
1621787353208.446,-0.007,1.578,1.934,0.4007319885868273,-4.627377070619006,-7.530554529602917
1621787353212.5,-0.00558325156776588,1.5581655219487223,1.9304581289194147,0.304,-4.707,-7.522
1621787353214.169,-0.005,1.55,1.929,0.31104314057010013,-4.725601114838982,-7.525521570285051
1621787353219.891,-0.009,1.531,1.918,0.3351913454679946,-4.789377143159062,-7.537595672733997
1621787353225.615,-0.012,1.517,1.911,0.3593467624758936,-4.853172218846591,-7.549673381237946
1621787353230.983,-0.0073101403523740454,1.5001165052685466,1.9016202807047482,0.382,-4.913,-7.561
1621787353231.338,-0.007,1.499,1.901,0.38672458293156514,-4.914882150923957,-7.564956358064644
1621787353237.061,-0.012,1.478,1.888,0.46289629756825657,-4.94522698033207,-7.628742428044963
1621787353242.784,-0.005,1.456,1.876,0.5390647628356691,-4.975570515275998,-7.692525777008731
1621787353248.508,-0.009,1.428,1.862,0.6152494749494762,-5.0059205225408485,-7.756322731055253
1621787353249.466,-0.005484620963269484,1.4226432319440296,1.862,0.628,-5.011,-7.767
1621787353254.231,0.012,1.396,1.862,0.8048227105840091,-5.056623352439314,-7.827573377532423
1621787353259.956,0.033,1.379,1.857,1.017278137298925,-5.111440568953221,-7.900353297762752
1621787353265.679,0.056,1.356,1.866,1.2296520246176603,-5.166236746876568,-7.973105285401094
1621787353267.952,0.06853082667592914,1.3462987148315388,1.8672126606460577,1.314,-5.188,-8.002
1621787353271.302,0.087,1.332,1.869,1.4404915715802946,-5.180526347321695,-7.990976362299502
1621787353276.856,0.126,1.316,1.881,1.65019546036328,-5.16813616186923,-7.972700838757115
1621787353282.407,0.154,1.306,1.894,1.8597887312437025,-5.155752512186487,-7.954434955475069
1621787353285.882,0.17342053606795477,1.3016147176620747,1.90590290920294,1.991,-5.148,-7.943
1621787353287.954,0.185,1.299,1.913,2.033021728455684,-5.108293518291186,-7.931655290940339
1621787353293.499,0.213,1.302,1.927,2.145475775431705,-5.002035286575551,-7.901295796164443
1621787353299.041,0.234,1.3,1.941,2.257870406743596,-4.8958331969337365,-7.870952341981067
1621787353303.781,0.25368546111796864,1.3077030065244224,1.9555501234350203,2.354,-4.805,-7.845
1621787353304.579,0.257,1.309,1.958,2.3548487544240837,-4.773015359597698,-7.834948960767433
1621787353310.115,0.274,1.304,1.981,2.3607360308285164,-4.5511579961464355,-7.765231213872832
1621787353315.646,0.272,1.304,2.0,2.3666181144863967,-4.329496317249484,-7.695574960029517
1621787353321.176,0.25,1.311,2.016,2.372499159594966,-4.107873775263395,-7.625931004796458
1621787353321.647,0.246505125939019,1.3115966858152894,2.0168524083075563,2.373,-4.089,-7.62
1621787353326.701,0.209,1.318,2.026,2.323118072289157,-3.975065142387733,-7.4726215772179625
1621787353332.225,0.15,1.325,2.039,2.2685951807228917,-3.850529901423877,-7.311531215772179
1621787353337.744,0.082,1.349,2.049,2.2141253012048194,-3.7261157447973714,-7.15059748083242
1621787353339.479,0.05904579240775153,1.3549743827979825,2.0527732943987256,2.197,-3.687,-7.1
1621787353343.262,0.009,1.368,2.061,2.180211430060483,-3.680837107237392,-7.141652654533485
1621787353348.775,-0.059,1.382,2.08,2.155745299192188,-3.6718558693237147,-7.202353434915584
1621787353354.286,-0.129,1.398,2.094,2.131287836188334,-3.662877813284325,-7.263032710216286
1621787353357.28,-0.16814563106796115,1.4094174757281552,2.1037864077669903,2.118,-3.658,-7.296
1621787353359.793,-0.201,1.419,2.112,2.1124848322479597,-3.7120203610584452,-7.384808342263622
1621787353365.298,-0.253,1.445,2.117,2.1004026873299813,-3.830363421537109,-7.579361855301844
1621787353370.799,-0.293,1.471,2.119,2.08832965130657,-3.948617261561289,-7.773768691781387
1621787353375.05,-0.314645178476292,1.481822589238146,2.124411294619073,2.079,-4.04,-7.924
1621787353376.298,-0.321,1.485,2.126,2.0615720805966826,-4.084672381164422,-7.981192029388846
1621787353381.729,-0.328,1.506,2.133,1.985734039296449,-4.279065401313592,-8.230064622063898
1621787353387.158,-0.328,1.515,2.124,1.9099232717355006,-4.473388511633085,-8.47884771234554
1621787353392.581,-0.307,1.511,2.117,1.834194325392408,-4.667501892463543,-8.727362295446955
1621787353392.595,-0.3069024148495224,1.5109743196972427,2.1169871598486214,1.834,-4.668,-8.728
1621787353398.0,-0.269,1.501,2.112,1.733844510534914,-4.792266996188163,-8.809917298482246
1621787353403.415,-0.232,1.497,2.1,1.6335035395635238,-4.91676412683785,-8.891986302517488
1621787353408.826,-0.19,1.494,2.091,1.533239475558162,-5.04116583588154,-8.97399240425027
1621787353410.08,-0.18188174470582924,1.4923763489411659,2.08984024924369,1.51,-5.07,-8.993
1621787353414.233,-0.155,1.487,2.086,1.4376190476190476,-5.1259523809523815,-8.901809523809524
1621787353419.636,-0.12,1.475,2.079,1.3434472159234063,-5.198749685059209,-8.783165406903501
1621787353425.035,-0.099,1.463,2.068,1.249347722628146,-5.2714910696789,-8.66461242686375
1621787353427.522,-0.08977849189825292,1.4570060197338643,2.0670778491898254,1.206,-5.305,-8.61
1621787353430.429,-0.079,1.45,2.066,1.1405099128677862,-5.288627478216946,-8.575584290945827
1621787353435.819,-0.066,1.435,2.049,1.019077970001824,-5.258269492500456,-8.511770565868305
1621787353441.205,-0.038,1.407,2.04,0.8977395294018604,-5.227934882350465,-8.448005977185671
1621787353444.922,-0.021424060968971148,1.386280076211214,2.033093358737071,0.814,-5.207,-8.404
1621787353446.587,-0.014,1.377,2.03,0.7867569985651183,-5.191939608361703,-8.39277665081732
1621787353451.964,0.012,1.344,2.012,0.6987635821399432,-5.143295360549193,-8.356525841937934
1621787353457.339,0.045,1.295,2.002,0.6108061221618885,-5.0946709900683675,-8.320289846101906
1621787353462.277,0.0698329771270065,1.2646485835114365,1.9716485835114366,0.53,-5.05,-8.287
1621787353462.708,0.072,1.262,1.969,0.5309708060080389,-5.045370002115506,-8.278436993159863
1621787353468.073,0.091,1.248,1.943,0.543057753331923,-4.987724561032367,-8.171823919328679
1621787353473.435,0.106,1.225,1.909,0.5551381002750159,-4.930110598688386,-8.065269064240885
1621787353478.791,0.113,1.21,1.878,0.5672046964247937,-4.872562217050984,-7.958835498201819
1621787353479.588,0.1135953488372093,1.2065767441860464,1.8754697674418603,0.569,-4.864,-7.943
1621787353484.145,0.117,1.187,1.861,0.5146386461956061,-4.864,-7.888638646195606
1621787353489.492,0.101,1.178,1.833,0.4508559391523171,-4.864,-7.824855939152317
1621787353494.837,0.087,1.166,1.812,0.3870965306641785,-4.864,-7.761096530664179
1621787353496.857,0.0839738033191606,1.1591910574681112,1.7972472911809079,0.363,-4.864,-7.737
1621787353500.177,0.079,1.148,1.773,0.2533213182140326,-4.880962608079376,-7.710592303330971
1621787353505.514,0.066,1.121,1.735,0.07701600283486892,-4.908229510985117,-7.668142693125443
1621787353510.845,0.051,1.086,1.693,-0.09909574769666896,-4.935466477675408,-7.625739688164422
1621787353514.081,0.043105781564962434,1.0696043155579988,1.6699245922668133,-0.206,-4.952,-7.6
1621787353516.174,0.038,1.059,1.655,-0.27652308020174754,-4.963936548980606,-7.609622320096611
1621787353521.497,0.03,1.019,1.611,-0.4558785820842509,-4.994293784186971,-7.6340939688854155
1621787353526.817,0.021,0.979,1.569,-0.6351271435675215,-5.024632918945798,-7.658551026497123
1621787353531.265,0.02853162463828028,0.9471998070828166,1.5321787239906297,-0.785,-5.05,-7.679
1621787353532.132,0.03,0.941,1.525,-0.8157646371691502,-5.056982763041682,-7.688411550186616
1621787353537.443,0.024,0.902,1.478,-1.0041807173993562,-5.099748254936038,-7.746051995783356
1621787353542.751,0.026,0.859,1.436,-1.192484201829112,-5.142488190546739,-7.803657995954301
1621787353548.053,0.042,0.805,1.398,-1.380579817088806,-5.185180945326078,-7.861200404569931
1621787353548.403,0.04279266663595744,0.8013669445851951,1.395225666774149,-1.393,-5.188,-7.865
1621787353553.353,0.054,0.75,1.356,-1.5094015081189929,-5.2247736107739104,-7.893376487053884
1621787353558.647,0.061,0.695,1.311,-1.6338922751745903,-5.264102783450679,-7.923724982505249
1621787353563.938,0.079,0.642,1.265,-1.758314148612559,-5.3034101912283464,-7.954056682995102
1621787353565.498,0.08490382039081629,0.626059684944796,1.2511260220815816,-1.795,-5.315,-7.963
1621787353569.223,0.099,0.588,1.218,-1.8076695683298731,-5.323519192497674,-8.025037196649725
1621787353574.506,0.12,0.534,1.178,-1.825639644928055,-5.335602519865416,-8.11302860619944
1621787353579.783,0.15,0.482,1.131,-1.8435881308611926,-5.347671329372181,-8.200914295941011
1621787353582.55,0.16311380571111214,0.4599688064053316,1.1100179108622206,-1.853,-5.354,-8.247
1621787353585.058,0.175,0.44,1.091,-1.9455854106571375,-5.388793243495358,-8.228276517271565
1621787353590.327,0.204,0.384,1.051,-2.140084169285745,-5.461885133680631,-8.188943169587118
1621787353595.593,0.239,0.325,1.014,-2.334483790416326,-5.534939768373014,-8.149629870409436
1621787353599.562,0.27445774745927887,0.24729472365306976,0.964208269525268,-2.481,-5.59,-8.12
1621787353600.854,0.286,0.222,0.948,-2.4579840624910583,-5.601129417150705,-8.068744112850153
1621787353606.111,0.333,0.133,0.871,-2.364332856447967,-5.6464147042833845,-7.86018534149761
1621787353611.365,0.363,0.087,0.822,-2.270738189933904,-5.691672651578013,-7.651752482188331
1621787353616.627,0.3767775444043651,0.044683256472307205,0.7786991461577097,-2.177,-5.737,-7.443
1621787353616.712,0.377,0.044,0.778,-2.1783986188158044,-5.735310823049926,-7.442807936148533
1621787353622.058,0.37,-0.002,0.726,-2.266407109702253,-5.6290188780708705,-7.4307222631042675
1621787353627.4,0.349,-0.073,0.658,-2.3543432582361596,-5.52281430431337,-7.418646524397147
1621787353632.74,0.307,-0.141,0.581,-2.442251273632967,-5.416643708253142,-7.40657464904336
1621787353633.879,0.3008101665446559,-0.15188556918008783,0.5658455801610541,-2.461,-5.394,-7.404
1621787353638.076,0.278,-0.192,0.51,-2.274803566871757,-5.549244931809804,-7.466146715245683
1621787353643.41,0.257,-0.215,0.445,-2.038166973829709,-5.746545337265021,-7.545128824179875
1621787353648.742,0.246,-0.22,0.386,-1.8016170291190565,-5.943773497972724,-7.624082012532252
1621787353651.1,0.246,-0.21822965542521994,0.36254293438416424,-1.697,-6.031,-7.659
1621787353654.07,0.246,-0.216,0.333,-1.6088953960635066,-6.070042432332642,-7.794611988412054
1621787353659.395,0.246,-0.201,0.279,-1.4509299610894941,-6.14004280155642,-8.03775486381323
1621787353664.717,0.264,-0.194,0.22,-1.2930514357124598,-6.210004657899969,-8.28076396659945
1621787353668.292,0.27878344270570415,-0.1892961773209123,0.18102546923041624,-1.187,-6.257,-8.444
1621787353670.037,0.286,-0.187,0.162,-1.1978809947219418,-6.226085772004951,-8.439932338421706
1621787353675.353,0.323,-0.192,0.108,-1.231026319158925,-6.1319158782774466,-8.427541562931243
1621787353680.667,0.367,-0.222,0.058,-1.264159465649941,-6.0377805835739995,-8.415155339943947
1621787353685.453,0.40394598694492967,-0.25444037878091386,0.008438310195826061,-1.294,-5.953,-8.404
1621787353685.978,0.408,-0.258,0.003,-1.3000382603987062,-5.9319427162745635,-8.373348931986262
1621787353691.286,0.44,-0.307,-0.044,-1.3610693247075254,-5.71910849708594,-8.063546575088704
1621787353696.591,0.466,-0.353,-0.079,-1.4220695099534035,-5.506381962751329,-7.7539009647035355
1621787353701.894,0.475,-0.403,-0.105,-1.4830444305114212,-5.293743534206364,-7.444383601464867
1621787353702.586,0.4740860170467634,-0.4093978806726561,-0.1095699147661829,-1.491,-5.266,-7.404
1621787353707.193,0.468,-0.452,-0.14,-1.4697179300499643,-5.099514946466809,-7.110630706638116
1621787353712.49,0.438,-0.487,-0.171,-1.445249921484654,-4.908106980728051,-6.773343854389722
1621787353717.784,0.396,-0.496,-0.187,-1.4207954461099215,-4.71680488222698,-6.4362435546038546
1621787353719.688,0.373324303119808,-0.4909609562488462,-0.18448047812442311,-1.412,-4.648,-6.315
1621787353723.074,0.333,-0.482,-0.18,-1.2797027158445717,-4.686875963559916,-6.208091100210232
1621787353728.363,0.262,-0.466,-0.162,-1.0730484246957368,-4.747601962158374,-6.041094604064471
1621787353733.647,0.187,-0.454,-0.136,-0.8665944538992891,-4.808269096005606,-5.874259985984583
1621787353736.759,0.13928490225980866,-0.4351495910162207,-0.11243698877027589,-0.745,-4.844,-5.776
1621787353738.93,0.106,-0.422,-0.096,-0.6014532745086805,-4.943985962298745,-5.791029737007964
1621787353744.209,0.016,-0.37,-0.049,-0.25238547814129375,-5.187125465536011,-5.827578095456368
1621787353749.486,-0.077,-0.312,0.014,0.09655317137454877,-5.430175012891766,-5.8641129318741765
1621787353753.803,-0.16541818686915455,-0.2579666635799611,0.07703889249004538,0.382,-5.629,-5.894
1621787353754.759,-0.185,-0.246,0.091,0.4294264805062492,-5.683562929587166,-5.971714244715809
1621787353760.031,-0.276,-0.185,0.176,0.6909503364949992,-5.984439308929673,-6.400253928166569
1621787353765.299,-0.351,-0.129,0.246,0.952280417282498,-6.285092754954153,-6.8284760866133825
1621787353770.563,-0.391,-0.089,0.309,1.2134046119186672,-6.585509334328229,-7.256360874743503
1621787353770.817,-0.391,-0.08798687201373104,0.3114604536809389,1.226,-6.6,-7.277
1621787353775.826,-0.391,-0.068,0.36,1.2200436341466956,-6.807281531694996,-7.755891814605682
1621787353781.085,-0.354,-0.052,0.403,1.2137899870810411,-7.024908449579771,-8.258685038684298
1621787353786.193,-0.279,-0.038,0.438,1.2077157538720587,-7.236291765252355,-8.747053388686476
1621787353787.636,-0.251512919289674,-0.041054120078925116,0.44716236023677536,1.206,-7.296,-8.885
1621787353791.39,-0.18,-0.049,0.471,1.0896067196552828,-7.2917471686027895,-8.94856863772673
1621787353796.584,-0.061,-0.051,0.49,0.9285591754738405,-7.285862739103852,-9.036525373395056
1621787353801.774,0.063,-0.037,0.517,0.7676403179316971,-7.279983011616736,-9.124411826360381
1621787353804.407,0.123396,-0.026341882352941173,0.5317183529411765,0.686,-7.277,-9.169
1621787353806.962,0.182,-0.016,0.546,0.576820979367905,-7.1481229462748415,-8.996756733883911
1621787353812.145,0.276,-0.005,0.569,0.3553331047363353,-6.886674322234219,-8.647332506493129
1621787353817.325,0.337,0.01,0.588,0.133980856217352,-6.6253857939125105,-8.29812224589255
1621787353821.139,0.3561545390238151,0.03873180853572271,0.6012608347087951,-0.029,-6.433,-8.041
1621787353822.502,0.363,0.049,0.606,-0.07308211606790367,-6.37055033557047,-7.945733649164364
1621787353827.674,0.358,0.068,0.628,-0.24035412554283456,-6.1335816554809846,-7.584240250910208
1621787353832.843,0.332,0.096,0.646,-0.4075234899328859,-5.896758389261745,-7.222968680089485
1621787353837.836,0.279799489506523,0.1114668179239932,0.6730669313669881,-0.569,-5.668,-6.874
1621787353838.008,0.278,0.112,0.674,-0.5745685082063305,-5.664962631887456,-6.870559715709261
1621787353843.171,0.222,0.129,0.695,-0.7416000586166471,-5.5738545134818285,-6.767365826494724
1621787353848.329,0.171,0.141,0.71,-0.9084815357561549,-5.482828253223915,-6.664264654161782
1621787353853.484,0.136,0.157,0.716,-1.075252432590856,-5.391862309495896,-6.561231799531067
1621787353854.496,0.1299084316792265,0.1601440352623347,0.7165895066116877,-1.108,-5.374,-6.541
1621787353858.635,0.105,0.173,0.719,-1.1983993977230996,-5.369019316929856,-6.580098362100625
1621787353863.783,0.084,0.182,0.712,-1.3108374146162323,-5.362824384869629,-6.628728578773412
1621787353868.926,0.079,0.194,0.712,-1.4231687844289387,-5.356635328681601,-6.677312669849432
1621787353871.116,0.08240789286223109,0.19825986607778887,0.7107220401766633,-1.471,-5.354,-6.698
1621787353874.067,0.087,0.204,0.709,-1.5321986448984413,-5.375053761218706,-6.676946238781294
1621787353879.205,0.098,0.225,0.703,-1.6387583106991026,-5.4117127716107705,-6.64028722838923
1621787353884.338,0.106,0.241,0.698,-1.7452065865611714,-5.448333461265943,-6.603666538734058
1621787353887.655,0.10404146646165673,0.24883413415337305,0.6947357774360945,-1.814,-5.472,-6.58
1621787353889.419,0.103,0.253,0.693,-1.8381824886703593,-5.476173084328071,-6.543298258345429
1621787353894.527,0.098,0.264,0.681,-1.9082129676253665,-5.4882579899884485,-6.437013062409289
1621787353899.631,0.082,0.276,0.674,-1.9781865466070319,-5.500333076626878,-6.330814223512337
1621787353904.14,0.04840413614821197,0.27865230504093064,0.6678112882378285,-2.04,-5.511,-6.237
1621787353904.731,0.044,0.279,0.667,-2.0421204370351678,-5.517361311105503,-6.234879562964832
1621787353909.828,0.003,0.284,0.66,-2.060405593575108,-5.572216780725324,-6.216594406424892
1621787353914.92,-0.04,0.293,0.651,-2.0786732330804747,-5.627019699241423,-6.198326766919526
1621787353920.009,-0.068,0.293,0.634,-2.0969303623650966,-5.68179108709529,-6.180069637634904
1621787353920.586,-0.0693614365277511,0.2945883426157096,0.6332058286921451,-2.099,-5.688,-6.178
1621787353925.094,-0.08,0.307,0.627,-2.1149353936345916,-5.728387980418706,-6.3370791881798025
1621787353930.176,-0.087,0.312,0.602,-2.132899712827533,-5.773918237683574,-6.516412650467957
1621787353935.252,-0.07,0.319,0.572,-2.1508424568869313,-5.8193938131444645,-6.695530733405747
1621787353936.994,-0.05901621205561168,0.3238054072256699,0.5606729686823495,-2.157,-5.835,-6.757
1621787353940.327,-0.038,0.333,0.539,-2.08715161097852,-5.878986157517899,-6.814833651551313
1621787353945.397,0.012,0.353,0.508,-1.9809004027446302,-5.945896539379475,-6.902808412887828
1621787353950.463,0.058,0.375,0.485,-1.8747361724343676,-6.01275214797136,-6.9907111575179
1621787353953.361,0.08490927944439086,0.38187045432622746,0.4701140156265072,-1.814,-6.051,-7.041
1621787353955.525,0.105,0.387,0.459,-1.8088319154344155,-6.035363231314385,-6.992897059043404
1621787353960.583,0.147,0.417,0.428,-1.7967510877203474,-5.998810983359,-6.880452431858619
1621787353965.638,0.182,0.442,0.405,-1.7846778404078765,-5.962281670977677,-6.768078360719465
1621787353969.69,0.20125312968243994,0.45162656484122,0.38815351152786504,-1.775,-5.933,-6.678
1621787353970.689,0.206,0.454,0.384,-1.7936434866015225,-5.907119896888676,-6.675608236916252
1621787353975.736,0.209,0.468,0.361,-1.8878313650260776,-5.7763722498651155,-6.663524923565734
1621787353980.78,0.199,0.463,0.344,-1.9819600143876268,-5.645706822132966,-6.651449208680535
1621787353985.819,0.171,0.461,0.318,-2.0759975421137824,-5.515167885618368,-6.639385183741982
1621787353985.98,0.17004589546836543,0.461,0.31726851985908017,-2.079,-5.511,-6.639
1621787353990.878,0.141,0.461,0.295,-2.143937241503327,-5.517012707546605,-6.7364058622549905
1621787353995.917,0.117,0.449,0.269,-2.210745369537853,-5.523198645327579,-6.836618054306779
1621787354000.954,0.112,0.44,0.243,-2.27752760294911,-5.5293821854582506,-6.936791404423665
1621787354002.272,0.10833341419630295,0.44235709087380526,0.23592872737858425,-2.295,-5.531,-6.963
1621787354005.986,0.098,0.449,0.216,-2.295,-5.566910465937965,-7.048087218655561
1621787354011.016,0.099,0.436,0.192,-2.295,-5.615544090451203,-7.163321029604125
1621787354016.042,0.094,0.438,0.162,-2.295,-5.664137586263926,-7.278459758536182
1621787354018.51,0.09596654021982298,0.4330836494504426,0.15167566384592937,-2.295,-5.688,-7.335
1621787354021.062,0.098,0.428,0.141,-2.3011448381894097,-5.6909936391179174,-7.379904586768762
1621787354026.081,0.101,0.407,0.126,-2.3132299413653286,-5.696881253485673,-7.468218802285094
1621787354031.094,0.101,0.387,0.099,-2.325300348190465,-5.70276170809279,-7.556425621391858
1621787354034.707,0.1060481458018615,0.3725767262803957,0.08169207153647483,-2.334,-5.707,-7.62
1621787354036.104,0.108,0.367,0.075,-2.289053097478814,-5.696886946932733,-7.641176905995559
1621787354041.11,0.115,0.356,0.054,-2.127984199157087,-5.660646444810345,-7.717065136935603
1621787354046.113,0.115,0.34,0.047,-1.9670174171815284,-5.624428918865844,-7.792905255366396
1621787354050.869,0.11690271537409651,0.3200214885719867,0.03082691932017972,-1.814,-5.59,-7.865
1621787354051.112,0.117,0.319,0.03,-1.7963953107960742,-5.5905883315158125,-7.859825699745548
1621787354056.107,0.103,0.323,0.023,-1.4347744910941476,-5.60267334605598,-7.753539546225615
1621787354061.098,0.093,0.332,0.021,-1.073436477644493,-5.614748909487459,-7.647336513994911
1621787354066.086,0.08,0.321,0.023,-0.7123105688840421,-5.626817384587422,-7.541195822731129
1621787354066.988,0.07873303943179034,0.32009502816556457,0.022276022532451627,-0.647,-5.629,-7.522
1621787354071.07,0.073,0.316,0.019,-0.6944776402702908,-5.643979576341963,-7.439739275681422
1621787354076.05,0.073,0.295,0.017,-0.752399225571331,-5.662254301116088,-7.339383159972668
1621787354081.026,0.082,0.283,0.0,-0.8102725381520006,-5.680513795459722,-7.23911068256017
1621787354083.066,0.08651320828832368,0.27643533339880194,-0.009846999901797113,-0.834,-5.688,-7.198
1621787354085.998,0.093,0.267,-0.024,-0.8410990769790387,-5.641582958213977,-7.267716576486459
1621787354090.993,0.099,0.255,-0.038,-0.8531923339244305,-5.562511662801801,-7.386478561360433
1621787354095.983,0.103,0.253,-0.04,-0.8652737689264766,-5.483517664711499,-7.505124448688219
1621787354099.174,0.10044044646791012,0.25108033485093256,-0.03872022323395506,-0.873,-5.433,-7.581
1621787354100.97,0.099,0.25,-0.038,-0.8072376904863092,-5.44617479205877,-7.578766984396819
1621787354105.953,0.08,0.253,-0.024,-0.6247732074555279,-5.482729646044563,-7.572571246433125
1621787354110.933,0.061,0.262,-0.009,-0.4424070639305446,-5.519264798737175,-7.566378847671666
1621787354115.259,0.03491835533094549,0.25765305922182424,0.004910210490162405,-0.284,-5.551,-7.561
1621787354115.909,0.031,0.257,0.007,-0.26812607815994033,-5.555737879732875,-7.566547773704307
1621787354120.882,0.016,0.262,0.03,-0.14665658609306784,-5.591992804660998,-7.609000121697066
1621787354125.851,0.009,0.25,0.051,-0.025288467681823024,-5.628217472656191,-7.651417040631608
1621787354130.816,0.0,0.246,0.075,0.09597827707379403,-5.664411883718454,-7.693798530507934
1621787354131.308,-0.001586698804663289,0.2453058192729598,0.07738004820699493,0.108,-5.668,-7.698
1621787354135.779,-0.016,0.239,0.099,0.11330633502104556,-5.651522433355701,-7.761117458671385
1621787354140.736,-0.03,0.222,0.124,0.11918957786860246,-5.633253416092234,-7.8310970841212715
1621787354145.691,-0.045,0.227,0.143,0.12507021289574818,-5.614992496797414,-7.901045690233636
1621787354147.317,-0.04631360946745562,0.22404437869822486,0.1489112426035503,0.127,-5.609,-7.924
1621787354150.642,-0.049,0.218,0.161,0.11492516278927578,-5.621283024059185,-7.960640885329094
1621787354155.59,-0.04,0.216,0.176,0.09695741493687139,-5.6395605606676655,-8.015163706398459
1621787354160.534,-0.024,0.227,0.188,0.0790047384671823,-5.657822766042004,-8.069640793616825
1621787354163.289,-0.014519149987645169,0.2281153941191006,0.1980385470719051,0.069,-5.668,-8.1
1621787354165.474,-0.007,0.229,0.206,0.07434778611919718,-5.676090240539298,-8.067776160563811
1621787354170.412,0.01,0.246,0.227,0.08643318523058066,-5.694373280220622,-7.994953883867014
1621787354175.344,0.026,0.246,0.243,0.09850364639191053,-5.712633721464686,-7.922221617894898
1621787354179.224,0.03701658662177551,0.24993449522206268,0.2579510818438382,0.108,-5.727,-7.865
1621787354180.275,0.04,0.251,0.262,0.09899705321016872,-5.7128055729445,-7.841145476753951
1621787354185.2,0.051,0.272,0.274,0.05679992365829452,-5.646275792045195,-7.729338483853729
1621787354190.19,0.065,0.279,0.288,0.014046385220245802,-5.5788687533399495,-7.616057210474082
1621787354195.135,0.079,0.284,0.3,-0.02832226887548671,-5.512068539583175,-7.503795740132834
1621787354195.214,0.0791120885638035,0.28443234160324204,0.3001761391716912,-0.029,-5.511,-7.502
1621787354200.075,0.086,0.311,0.311,-0.02320777828816414,-5.463137957433777,-7.373351707242382
1621787354205.012,0.073,0.33,0.319,-0.01732478946562548,-5.414525891900168,-7.242687429183892
1621787354209.946,0.065,0.354,0.319,-0.011445291685806155,-5.365942673403767,-7.11210068902159
1621787354211.159,0.06450804574936872,0.360149428132891,0.3212137941278408,-0.01,-5.354,-7.08
1621787354214.877,0.063,0.379,0.328,0.03580572095021791,-5.338108219262169,-7.00895439199558
1621787354219.803,0.049,0.403,0.326,0.09649401510036217,-5.317053096801915,-6.914825609232091
1621787354224.727,0.033,0.429,0.325,0.157158246884783,-5.296006322509361,-6.820734147688908
1621787354227.068,0.024910827709408497,0.43756500595474396,0.32547583366415245,0.186,-5.286,-6.776
1621787354229.647,0.016,0.447,0.326,0.23864034453587635,-5.270077920479888,-6.779249403983696
1621787354234.564,0.0,0.463,0.326,0.3390073367684381,-5.239720003076213,-6.785444897331385
1621787354239.477,-0.024,0.49,0.321,0.4392945935553334,-5.209386203183881,-6.791635468737984
1621787354242.941,-0.038815175774451795,0.5139864750633981,0.32241096912137635,0.51,-5.188,-6.796
1621787354244.387,-0.045,0.524,0.323,0.5368442861767563,-5.199596001171591,-6.811248285005164
1621787354249.293,-0.077,0.553,0.328,0.6279190676594367,-5.238937828546764,-6.862981239112673
1621787354254.197,-0.103,0.572,0.335,0.7189575914535449,-5.278263993587076,-6.91469359786647
1621787354258.778,-0.13198276033881415,0.5822842052815147,0.3434143497757847,0.804,-5.315,-6.963
1621787354259.097,-0.134,0.583,0.344,0.8000446257494284,-5.318955374250572,-6.970910748501144
1621787354263.993,-0.162,0.6,0.346,0.7393087335434824,-5.379691266456518,-7.092382532913035
1621787354268.886,-0.192,0.604,0.342,0.6786091847456579,-5.440390815254342,-7.213781630508684
1621787354273.775,-0.209,0.599,0.344,0.6179611224426727,-5.501038877557328,-7.335077755114655
1621787354274.578,-0.2124503446897792,0.5978498851034069,0.3428498851034069,0.608,-5.511,-7.355
1621787354278.662,-0.23,0.592,0.337,0.5928170840511937,-5.599524120108295,-7.4810954036426285
1621787354283.544,-0.236,0.583,0.325,0.5746691022643368,-5.70533608171302,-7.6318159303470345
1621787354288.516,-0.225,0.576,0.314,0.5561853156534581,-5.813105956190007,-7.785325344572976
1621787354290.449,-0.22145771812080536,0.5685218493661447,0.3077026099925429,0.549,-5.855,-7.845
1621787354293.427,-0.216,0.557,0.298,0.5343373607236974,-5.95256294595386,-7.889363882938556
1621787354298.333,-0.208,0.545,0.288,0.510182110989536,-6.113288261492703,-7.962448997518839
1621787354303.237,-0.187,0.538,0.272,0.4860364776772642,-6.273949590839742,-8.035505016258533
1621787354306.291,-0.17578116591928253,0.529274240159442,0.26015789735924266,0.471,-6.374,-8.081
1621787354308.137,-0.169,0.524,0.253,0.444612742827141,-6.414164674634794,-8.107270499397757
1621787354313.035,-0.145,0.501,0.23,0.37459804194076407,-6.52073572377158,-8.17697540072269
1621787354317.929,-0.106,0.485,0.199,0.3046391797152475,-6.6272217795484725,-8.246624710460482
1621787354322.101,-0.0650641780616828,0.4713547260205609,0.16915096316997705,0.245,-6.718,-8.306
1621787354322.821,-0.058,0.469,0.164,0.24769244220234596,-6.7345197301228685,-8.300204404072916
1621787354327.709,-0.012,0.438,0.126,0.26597165052149424,-6.846673516758998,-8.260857633623225
1621787354332.594,0.037,0.424,0.098,0.28423990281947326,-6.958760081705921,-8.221534446473337
1621787354337.476,0.089,0.396,0.068,0.302497199096283,-7.070779424963635,-8.182234842623256
1621787354337.878,0.09328388388388388,0.3931166166166166,0.06602282282282283,0.304,-7.08,-8.179
1621787354342.354,0.141,0.361,0.044,0.22041551916635652,-7.08568601910433,-8.072955743704256
1621787354347.229,0.182,0.321,0.01,0.12938165240044658,-7.091878799156432,-7.957460395732539
1621787354352.101,0.222,0.274,-0.024,0.038402493487160405,-7.0980678575859075,-7.842034456022826
1621787354353.622,0.23293366093366094,0.26025482625482627,-0.03618322218322218,0.01,-7.1,-7.806
1621787354356.97,0.257,0.23,-0.063,0.043447380686055186,-7.035235645041014,-7.705657857941834
1621787354361.836,0.29,0.176,-0.099,0.09206108625403928,-6.941104648272433,-7.559816741237882
1621787354366.698,0.316,0.127,-0.129,0.14063576621923937,-6.847049217002238,-7.414092701342282
1621787354369.337,0.32740247149243984,0.10908183051188025,-0.14040247149243984,0.167,-6.796,-7.335
1621787354371.558,0.337,0.094,-0.15,0.24889375983056392,-6.762704094186535,-7.207200395558532
1621787354376.414,0.356,0.079,-0.169,0.42792946911061625,-6.689912759098625,-6.927805568965786
1621787354381.267,0.358,0.063,-0.178,0.6068571628797907,-6.617165340351642,-6.6485793063709835
1621787354385.014,0.349517586172244,0.054517586172244,-0.178,0.745,-6.561,-6.433
1621787354386.126,0.347,0.052,-0.178,0.7761407226381241,-6.543668285590546,-6.380511677906329
1621787354391.016,0.339,0.056,-0.178,0.9130778630204789,-6.467454402029326,-6.149701339479057
1621787354395.902,0.321,0.051,-0.171,1.0498987811668625,-6.391305203241973,-5.9190868959970295
1621787354400.786,0.293,0.047,-0.164,1.186658169894203,-6.3151902493349015,-5.688576161603662
1621787354400.798,0.2929224573515433,0.046977487618190004,-0.1639574766121367,1.187,-6.315,-5.688
1621787354405.666,0.262,0.038,-0.147,1.262704422886189,-6.239295577113811,-5.627436461691048
1621787354410.544,0.229,0.033,-0.126,1.3385645146293081,-6.163435485370692,-5.566748388296554
1621787354415.419,0.192,0.026,-0.11,1.414379044755765,-6.087620955244235,-5.506096764195388
1621787354416.552,0.18223241130487072,0.021116205652435355,-0.10558132892363199,1.432,-6.07,-5.492
1621787354420.291,0.15,0.005,-0.091,1.3946643219825778,-6.032664321982578,-5.5642932873713145
1621787354425.16,0.115,0.002,-0.08,1.3460462725734073,-5.984046272573408,-5.658432695144485
1621787354430.025,0.086,-0.016,-0.063,1.2974672287697395,-5.93546722876974,-5.752496576140122
1621787354432.275,0.07443547658485167,-0.021550971239271195,-0.060687095316970335,1.275,-5.913,-5.796
1621787354434.889,0.061,-0.028,-0.058,1.2243593465577596,-5.9326565694282385,-5.892283873978997
1621787354439.75,0.045,-0.045,-0.04,1.1301867444574096,-5.9692104084014,-6.071335729288215
1621787354444.606,0.035,-0.077,-0.03,1.0361134655775963,-6.00572569428238,-6.2501987397899645
1621787354447.967,0.03361540782460022,-0.08046148043849945,-0.023769335210700997,0.971,-6.031,-6.374
1621787354449.461,0.033,-0.082,-0.021,0.9167297015041695,-6.048740378770166,-6.421689190242382
1621787354454.312,0.035,-0.124,-0.017,0.7404997895721299,-6.106348047696984,-6.576548515314473
1621787354459.162,0.04,-0.157,-0.014,0.5643053542202479,-6.163944119710076,-6.7313766658873035
1621787354463.63,0.05106575963718821,-0.18282010582010583,-0.012155706727135299,0.402,-6.217,-6.874
1621787354464.007,0.052,-0.185,-0.012,0.38875031632222695,-6.221271755939828,-6.883726088382773
1621787354468.85,0.073,-0.209,-0.017,0.21863123857725295,-6.276118890294765,-7.008604027055314
1621787354473.691,0.086,-0.244,-0.017,0.048589343455644585,-6.330941140634519,-7.133425308902323
1621787354478.527,0.112,-0.272,-0.028,-0.12128961057219179,-6.385710858053329,-7.258126981895434
1621787354479.259,0.11563320541304788,-0.2754818218541709,-0.030422136942031913,-0.147,-6.394,-7.277
1621787354483.362,0.136,-0.295,-0.044,-0.19355401662049862,-6.3992603408610735,-7.341439175548148
1621787354488.192,0.171,-0.323,-0.056,-0.24835457063711913,-6.405452493857301,-7.417293049751945
1621787354493.021,0.201,-0.356,-0.065,-0.30314681440443214,-6.411643707842308,-7.493135421068282
1621787354494.859,0.21357015635278045,-0.36399919040631484,-0.07223736274857057,-0.324,-6.414,-7.522
1621787354497.846,0.234,-0.377,-0.084,-0.32016307330458643,-6.372561191689534,-7.518163073304587
1621787354502.669,0.255,-0.408,-0.099,-0.31396785574284597,-6.305652842022736,-7.511967855742846
1621787354507.489,0.271,-0.435,-0.119,-0.30777640141121126,-6.238785135241082,-7.505776401411211
1621787354510.429,0.2771033958438926,-0.44537577293461733,-0.12632407501267107,-0.304,-6.198,-7.502
1621787354512.306,0.281,-0.452,-0.131,-0.32175268614514607,-6.165996858309771,-7.4818319824065345
1621787354517.119,0.272,-0.459,-0.147,-0.3672751178133836,-6.083932610744581,-7.43011602262017
1621787354521.93,0.258,-0.463,-0.175,-0.4127790763430726,-6.001901665095821,-7.378421049324537
1621787354525.971,0.2378330795004569,-0.4512359630419332,-0.19096547872880495,-0.451,-5.933,-7.335
1621787354526.739,0.234,-0.449,-0.194,-0.41070094105057753,-5.946119472508104,-7.318514021338872
1621787354531.544,0.209,-0.433,-0.209,-0.1585948446794448,-6.02819332452082,-7.2153797091870455
1621787354536.346,0.187,-0.405,-0.222,0.09335753627293614,-6.110217134044629,-7.112308280615617
1621787354541.145,0.18,-0.36,-0.22,0.3451562018065654,-6.192190901079534,-7.0092997356245865
1621787354541.485,0.1813470582247557,-0.3560297231270358,-0.21950371539087948,0.363,-6.198,-7.002
1621787354545.942,0.199,-0.304,-0.213,0.704435577984545,-6.181014587604479,-6.982135704147611
1621787354550.735,0.216,-0.271,-0.213,1.0716448194291122,-6.16274701151238,-6.960771928717867
1621787354555.526,0.225,-0.23,-0.209,1.4386670241286863,-6.144488739946381,-6.939419034852547
1621787354556.966,0.22349607383234754,-0.2200740872934938,-0.20809764429940852,1.549,-6.139,-6.933
1621787354560.314,0.22,-0.197,-0.206,1.710642959849574,-6.0518948125207395,-6.8649626147550045
1621787354565.099,0.199,-0.175,-0.202,1.9416793496294658,-5.92739531025329,-6.767716734874461
1621787354569.881,0.169,-0.147,-0.188,2.1725625009875644,-5.802978384186326,-6.670535354812205
1621787354572.417,0.1525497598855625,-0.13744824767548788,-0.18375477674466129,2.295,-5.737,-6.619
1621787354574.66,0.138,-0.129,-0.18,2.3191422533204578,-5.742671975177698,-6.5833683610631795
1621787354579.437,0.11,-0.094,-0.162,2.3705618103816746,-5.754752473523405,-6.507478050942709
1621787354584.209,0.08,-0.073,-0.152,2.4219261821463056,-5.766820006648831,-6.431669189000933
1621787354587.839,0.06402164568621431,-0.0570216456862143,-0.1360216456862143,2.461,-5.776,-6.374
1621787354588.98,0.059,-0.052,-0.131,2.4145168721146066,-5.79053061094982,-6.378374010438976
1621787354593.748,0.031,-0.047,-0.12,2.2202486316691257,-5.851258800945536,-6.396654434978503
1621787354598.512,0.012,-0.038,-0.099,2.02614949312265,-5.911934129741564,-6.414918947218124
1621787354603.228,-0.009787951807228915,-0.03106746987951807,-0.08414457831325302,1.834,-5.972,-6.433
1621787354603.274,-0.01,-0.031,-0.084,1.8312443483514038,-5.972352675590602,-6.4342014880289975
1621787354608.032,-0.03,-0.038,-0.07,1.5455800133541064,-6.0089127531716,-6.558753616737147
1621787354612.789,-0.038,-0.04,-0.056,1.2599743092429494,-6.045465327016629,-6.68328018187021
1621787354617.541,-0.052,-0.044,-0.042,0.9746764172840292,-6.081978506247814,-6.807672538234078
1621787354618.585,-0.05024213771839671,-0.04509866392600206,-0.03958293936279548,0.912,-6.09,-6.835
1621787354622.292,-0.044,-0.049,-0.031,0.7460942915392457,-6.111282364933741,-6.937058613659531
1621787354627.039,-0.045,-0.047,-0.035,0.5336423292558614,-6.138535677879714,-7.067750637104995
1621787354631.783,-0.028,-0.058,-0.035,0.32133240953109066,-6.165770769622834,-7.198355281600407
1621787354633.913,-0.01946501570303249,-0.06114446789888277,-0.03634762909952119,0.226,-6.178,-7.257
1621787354636.525,-0.009,-0.065,-0.038,0.18911505554846125,-6.159557527774231,-7.27544247222577
1621787354641.263,0.014,-0.065,-0.044,0.12220291150555485,-6.126101455752777,-7.3088985442472225
1621787354645.999,0.038,-0.068,-0.059,0.05531835014685227,-6.092659175073426,-7.342340824926574
1621787354649.208,0.04274708492415643,-0.07139077494582602,-0.06781601485914766,0.01,-6.07,-7.365
1621787354650.731,0.045,-0.073,-0.072,0.025659332928272202,-6.050450769083176,-7.342458539861213
1621787354655.461,0.056,-0.072,-0.087,0.07429413833903617,-5.989734706277382,-7.272449202136165
1621787354660.189,0.049,-0.072,-0.098,0.1229088612452432,-5.929043714623773,-7.202468772984554
1621787354664.477,0.03628956890313243,-0.07018422412901892,-0.10889465522588648,0.167,-5.874,-7.139
1621787354664.912,0.035,-0.07,-0.11,0.16585789364054415,-5.870088285718864,-7.135088285718864
1621787354669.634,0.021,-0.084,-0.12,0.15346200189069237,-5.827632356475621,-7.0926323564756215
1621787354674.352,-0.012,-0.089,-0.133,0.1410763647433946,-5.785211549246126,-7.050211549246127
1621787354679.067,-0.035,-0.101,-0.145,0.128699059460672,-5.742819278652802,-7.007819278652802
1621787354679.714,-0.03760965753069789,-0.10347230713434538,-0.14623615356717268,0.127,-5.737,-7.002
1621787354683.779,-0.054,-0.119,-0.154,0.15854269751312472,-5.737,-7.033542697513124
1621787354688.489,-0.075,-0.14,-0.159,0.19509054858959335,-5.737,-7.070090548589594
1621787354693.195,-0.099,-0.161,-0.169,0.23160808836514843,-5.737,-7.106608088365149
1621787354694.921,-0.11184138682721753,-0.16650345149737894,-0.16973379353298387,0.245,-5.737,-7.12
1621787354697.899,-0.134,-0.176,-0.171,0.3085792860475217,-5.783114605620888,-7.166114605620888
1621787354702.601,-0.155,-0.185,-0.171,0.40896763243834555,-5.8559271408117635,-7.2389271408117635
1621787354707.298,-0.171,-0.208,-0.168,0.5092465211306124,-5.928660285387944,-7.311660285387944
1621787354710.097,-0.1781538221528861,-0.21515382215288612,-0.16144232969318772,0.569,-5.972,-7.355
1621787354711.993,-0.183,-0.22,-0.157,0.6144437566495792,-6.0174437566495795,-7.416342812006319
1621787354716.685,-0.185,-0.211,-0.145,0.7269062288422478,-6.129906228842248,-7.568151658767773
1621787354721.375,-0.175,-0.222,-0.131,0.8393160363671535,-6.2423160363671535,-7.719889415481832
1621787354725.242,-0.15849244398124024,-0.21704773319437207,-0.12687311099531007,0.932,-6.335,-7.845
1621787354726.06,-0.155,-0.216,-0.126,0.9341111900877179,-6.35037379448492,-7.856692745101206
1621787354730.744,-0.131,-0.223,-0.112,0.9461980840993167,-6.438391176518101,-7.923635542703908
1621787354735.425,-0.087,-0.218,-0.098,0.9582780479136714,-6.526358092499556,-7.990539957675718
1621787354740.102,-0.047,-0.209,-0.093,0.9703473014231944,-6.614247015491979,-8.057385054036153
1621787354740.355,-0.044457204031542116,-0.20883769387435375,-0.09240487753929709,0.971,-6.619,-8.061
1621787354744.777,0.0,-0.206,-0.082,0.9364041113629006,-6.659459598575591,-7.9317051958562645
1621787354749.449,0.044,-0.188,-0.073,0.8998542894140499,-6.702204305600517,-7.79510797992878
1621787354754.118,0.093,-0.178,-0.068,0.8633273875040466,-6.74492220783425,-7.658596422790547
1621787354755.438,0.10318480535789033,-0.17262468606111342,-0.06658544370029301,0.853,-6.757,-7.62
1621787354758.784,0.129,-0.159,-0.063,0.8616682830314137,-6.743886443619143,-7.463081850764665
1621787354763.447,0.166,-0.136,-0.051,0.8737488525972656,-6.725610710173368,-7.244392565803344
1621787354768.108,0.187,-0.112,-0.044,0.885823729748139,-6.7073435883297385,-7.025806328149073
1621787354770.492,0.195704577630958,-0.10124728645587541,-0.03375932043416706,0.892,-6.698,-6.914
1621787354772.764,0.204,-0.091,-0.024,0.8727961587832898,-6.657928992736786,-6.829472856376842
1621787354777.419,0.202,-0.075,-0.012,0.8334495393464733,-6.575827778951303,-6.656285767674634
1621787354782.07,0.204,-0.056,0.0,0.7941359374746113,-6.493795460084819,-6.483244008254392
1621787354785.517,0.19361947274445962,-0.04042920911668943,0.00667319609284739,0.765,-6.433,-6.355
1621787354786.719,0.19,-0.035,0.009,0.7524157671078983,-6.42514487373614,-6.333759097347727
1621787354791.365,0.173,-0.021,0.024,0.7037710480470213,-6.394780654194956,-6.251651768996565
1621787354796.008,0.15,-0.009,0.031,0.6551570035331087,-6.364435581823214,-6.16959621615461
1621787354800.512,0.1315568534596159,0.002648303078137333,0.04167761115495922,0.608,-6.335,-6.09
1621787354800.648,0.131,0.003,0.042,0.6061280976230484,-6.3355361273798065,-6.090626996427231
1621787354805.285,0.106,0.01,0.047,0.5422985790495456,-6.3538173972625085,-6.112006786629036
1621787354809.919,0.087,0.023,0.061,0.4785093887139664,-6.372087116824641,-6.133373068828817
1621787354814.55,0.072,0.023,0.061,0.4147605266163108,-6.390345286066203,-6.154725843026576
1621787354815.477,0.06919630801687764,0.024401845991561182,0.061801054852320673,0.402,-6.394,-6.159
1621787354819.179,0.058,0.03,0.065,0.3777054851630835,-6.398958064252432,-6.251219995095234
1621787354823.803,0.045,0.038,0.07,0.3473593721899779,-6.405151148532657,-6.366411362707431
1621787354828.427,0.04,0.04,0.07,0.3170132592168724,-6.411344232812883,-6.481602730319627
1621787354830.41,0.04171676178397802,0.03914161910801099,0.07085838089198901,0.304,-6.414,-6.531
1621787354833.047,0.044,0.038,0.072,0.27621771538096096,-6.403559523614501,-6.595235473354848
1621787354837.663,0.044,0.044,0.073,0.22758971544648854,-6.385285307078616,-6.707668364923087
1621787354842.277,0.042,0.042,0.066,0.17898229117179693,-6.367018822797045,-6.82005368346903
1621787354845.313,0.0466099459802987,0.0466099459802987,0.06534143628852876,0.147,-6.355,-6.894
1621787354846.887,0.049,0.049,0.065,0.12212894805962309,-6.342511556898024,-6.9179185435681925
1621787354851.496,0.052,0.049,0.065,0.049298082605555196,-6.30594116488279,-6.987960141834658
1621787354856.102,0.061,0.047,0.058,-0.023482631820868072,-6.269395955085692,-7.057953509751133
1621787354860.185,0.0627749005041125,0.044337649243831254,0.058,-0.088,-6.237,-7.12
1621787354860.703,0.063,0.044,0.058,-0.09211661759626297,-6.234941691201868,-7.120662845206178
1621787354865.303,0.066,0.045,0.052,-0.12868677730809086,-6.216656611345955,-7.126551260752998
1621787354869.899,0.072,0.037,0.045,-0.1652239419708209,-6.198388029014589,-7.132434363537675
1621787354874.493,0.08,0.035,0.042,-0.20174557955162262,-6.180127210224189,-7.13831496619899
1621787354875.028,0.08069953725865646,0.034766820913781186,0.04118387319823414,-0.206,-6.178,-7.139
1621787354879.083,0.086,0.033,0.035,-0.2273490326620744,-6.164588428199466,-7.133799594607956
1621787354883.671,0.08,0.028,0.03,-0.25150407039978906,-6.149414109620645,-7.127915675159026
1621787354888.255,0.08,0.019,0.026,-0.2756385419069905,-6.134252710853301,-7.122036765432913
1621787354889.843,0.08311874067760494,0.015534732580438951,0.021148625612614533,-0.284,-6.129,-7.12
1621787354892.838,0.089,0.009,0.012,-0.3000066894603835,-6.12109796343095,-7.100143600416233
1621787354897.417,0.084,0.009,0.01,-0.32448060056488776,-6.109015906050245,-7.069783558792924
1621787354901.993,0.08,0.0,0.003,-0.34893754851923425,-6.09694222288291,-7.039444560064748
1621787354904.624,0.08,-0.00575356361112594,0.002424643638887406,-0.363,-6.09,-7.022
1621787354906.566,0.08,-0.01,0.002,-0.36945018535681184,-6.095133820998279,-7.007783264927843
1621787354911.136,0.065,-0.017,-0.009,-0.3846300973123262,-6.107215791738382,-6.974325499801403
1621787354915.704,0.052,-0.035,-0.009,-0.39980352177942535,-6.119292598967298,-6.940882033629022
1621787354919.376,0.05119546378517171,-0.05028618808173746,-0.014631753503798011,-0.412,-6.129,-6.914
1621787354920.268,0.051,-0.054,-0.016,-0.4113941303266456,-6.127848847620626,-6.912788260653291
1621787354924.83,0.044,-0.063,-0.019,-0.40829580500746143,-6.121962029514177,-6.906591610014923
1621787354929.389,0.033,-0.077,-0.028,-0.40519963521804014,-6.116079306914276,-6.90039927043608
1621787354933.945,0.019,-0.091,-0.035,-0.4021052893384182,-6.1102000497429945,-6.894210578676836
1621787354934.1,0.018591399002627487,-0.0917150517454019,-0.03517025041557188,-0.402,-6.11,-6.894
1621787354938.498,0.007,-0.112,-0.04,-0.3903247582012165,-6.1246688935420615,-6.905675241798783
1621787354943.048,0.0,-0.119,-0.051,-0.37824573736165124,-6.139845099212284,-6.917754262638349
1621787354947.595,0.0,-0.133,-0.058,-0.36617514208794494,-6.155010718915146,-6.929824857912055
1621787354948.791,0.0,-0.1337896518375242,-0.06168504190844616,-0.363,-6.159,-6.933
1621787354952.139,0.0,-0.136,-0.072,-0.3271534965034965,-6.199184615384615,-6.948754195804195
1621787354956.681,-0.005,-0.148,-0.079,-0.27852166167166165,-6.253701831501831,-6.970127422577423
1621787354961.219,0.003,-0.148,-0.089,-0.22993165168165167,-6.308172161172161,-6.991482267732268
1621787354963.454,0.006449324506162872,-0.15144932450616286,-0.09343484579363798,-0.206,-6.335,-7.002
1621787354965.755,0.01,-0.155,-0.098,-0.17816951414842497,-6.350408969567539,-6.998855312333156
1621787354970.288,0.024,-0.155,-0.103,-0.12333542445274959,-6.380769087026161,-6.992659369994661
1621787354974.817,0.03,-0.159,-0.103,-0.06855449145755471,-6.411099773091297,-6.986469434063
1621787354978.087,0.03722321091517015,-0.16261160545758507,-0.11022321091517015,-0.029,-6.433,-6.982
1621787354979.344,0.04,-0.164,-0.113,-0.0205638144915906,-6.431364413013675,-6.979503577757716
1621787354983.869,0.049,-0.162,-0.113,0.009802521148894908,-6.425477062226235,-6.970517621292674
1621787354988.389,0.047,-0.164,-0.115,0.04013608854114421,-6.419596064466512,-6.9615413615541515
1621787354992.69,0.055565802269043764,-0.16209648838465696,-0.1188070232306861,0.069,-6.414,-6.953
1621787354992.908,0.056,-0.162,-0.119,0.06986776014877612,-6.413117278469348,-6.9518180508318395
1621787354997.422,0.058,-0.173,-0.12,0.08783515673429726,-6.394840099184077,-6.927345217551561
1621787355001.935,0.058,-0.166,-0.122,0.10579769464037395,-6.376567862348585,-6.902879002127767
1621787355006.444,0.066,-0.166,-0.12,0.12374468477222846,-6.358311441352389,-6.878433963844723
1621787355007.262,0.06382231852654388,-0.16509263271939328,-0.11981852654387865,0.127,-6.355,-6.874
1621787355010.951,0.054,-0.161,-0.119,0.15211399503055537,-6.34003307366866,-6.874
1621787355015.454,0.054,-0.162,-0.122,0.18277101940769594,-6.3217627258075355,-6.874
1621787355019.955,0.052,-0.161,-0.119,0.21341308508495066,-6.303501292727151,-6.874
1621787355021.804,0.05076714781853701,-0.15647954200130237,-0.11817809854569133,0.226,-6.296,-6.874
1621787355024.454,0.049,-0.15,-0.117,0.24024516715177416,-6.299469976613894,-6.870530023386106
1621787355028.948,0.045,-0.148,-0.113,0.26440092871443716,-6.305354072379158,-6.864645927620843
1621787355033.441,0.045,-0.152,-0.11,0.28855144102158586,-6.311236889479617,-6.858763110520383
1621787355036.315,0.041798128705869554,-0.14431550889408692,-0.10551738018821737,0.304,-6.315,-6.855
1621787355037.929,0.04,-0.14,-0.103,0.3017710345757683,-6.31288248284698,-6.863692965154504
1621787355042.416,0.04,-0.129,-0.106,0.29557436908916196,-6.306995650634704,-6.887859960552269
1621787355046.9,0.047,-0.147,-0.091,0.2893820866838618,-6.301112982349669,-6.912009861932939
1621787355050.797,0.04091057220708447,-0.1296016348773842,-0.09273983651226159,0.284,-6.296,-6.933
1621787355051.38,0.04,-0.127,-0.093,0.2879520535216502,-6.296,-6.933806541535031
1621787355055.858,0.042,-0.11,-0.091,0.3183201162338869,-6.296,-6.940004105353855
1621787355060.332,0.042,-0.11,-0.079,0.348661688432363,-6.296,-6.946196262945381
1621787355064.804,0.042,-0.112,-0.079,0.37898835971684885,-6.296,-6.952385379534051
1621787355065.248,0.0421987869515327,-0.11110545871810283,-0.07810545871810284,0.382,-6.296,-6.953
1621787355069.272,0.044,-0.103,-0.07,0.382,-6.290419313333785,-6.947419313333785
1621787355073.739,0.042,-0.089,-0.068,0.382,-6.284224080720525,-6.941224080720525
1621787355078.202,0.038,-0.089,-0.063,0.382,-6.278034604185007,-6.935034604185007
1621787355079.669,0.03635541080518912,-0.08735541080518912,-0.06234216432207565,0.382,-6.276,-6.933
1621787355082.662,0.033,-0.084,-0.061,0.382,-6.267889608847576,-6.929048783797537
1621787355087.119,0.035,-0.075,-0.052,0.382,-6.255813329036197,-6.923165467991994
1621787355091.573,0.03,-0.068,-0.047,0.382,-6.2437443260847445,-6.9172856973233365
1621787355094.062,0.027763641349054017,-0.06520455168631753,-0.04811817932547299,0.382,-6.237,-6.914
1621787355096.025,0.026,-0.063,-0.049,0.382,-6.234266375397379,-6.914
1621787355100.473,0.026,-0.054,-0.04,0.382,-6.228071859646737,-6.914
1621787355104.919,0.023,-0.054,-0.038,0.382,-6.221880063920575,-6.914
1621787355108.423,0.018269021589847827,-0.05242300719661594,-0.03563451079492391,0.382,-6.217,-6.914
1621787355109.363,0.017,-0.052,-0.035,0.38075372689326176,-6.218311866428145,-6.912688133571854
1621787355113.802,0.016,-0.049,-0.03,0.37486808075645284,-6.22450728341426,-6.906492716585739
1621787355118.239,0.012,-0.038,-0.03,0.3689850242780475,-6.2306999744441605,-6.90030002555584
1621787355122.673,0.009,-0.035,-0.024,0.3631058522872476,-6.236888576539739,-6.894111423460261
1621787355122.753,0.009,-0.03509008760813268,-0.023945947435120393,0.363,-6.237,-6.894
1621787355127.104,0.009,-0.04,-0.021,0.33896432046707753,-6.237,-6.894
1621787355131.532,0.0,-0.026,-0.017,0.3145038154907216,-6.237,-6.894
1621787355135.958,-0.003,-0.024,-0.014,0.2900540997319767,-6.237,-6.894
1621787355137.054,-0.003495556659491086,-0.024495556659491085,-0.01300888668101783,0.284,-6.237,-6.894
1621787355140.381,-0.005,-0.026,-0.01,0.27047784582748824,-6.246092482978068,-6.884907517021932
1621787355144.8,-0.007,-0.024,-0.012,0.25251842474424335,-6.258168645430595,-6.8728313545694055
1621787355149.217,-0.014,-0.026,-0.012,0.23456694152667054,-6.270239470352756,-6.860760529647244
1621787355151.325,-0.01161161825726141,-0.026955352697095435,-0.00961161825726141,0.226,-6.276,-6.855
1621787355153.63,-0.009,-0.028,-0.007,0.21952502443289953,-6.269686898822077,-6.861313101177923
1621787355158.042,-0.016,-0.014,-0.005,0.2071306002777635,-6.257602335270819,-6.873397664729181
1621787355162.45,-0.016,-0.016,-0.002,0.19474783533083004,-6.24552913944756,-6.885470860552441
1621787355165.564,-0.01670707910638062,-0.01670707910638062,-0.0041212373191418595,0.186,-6.237,-6.894
1621787355166.854,-0.017,-0.017,-0.005,0.186,-6.237,-6.894
1621787355171.257,-0.019,-0.01,-0.002,0.186,-6.237,-6.894
1621787355175.656,-0.026,-0.012,0.0,0.186,-6.237,-6.894
1621787355179.774,-0.029746141032759577,-0.012,0.001873070516379789,0.186,-6.237,-6.894
1621787355180.053,-0.03,-0.012,0.002,0.186,-6.237767431050512,-6.894
1621787355184.446,-0.03,-0.009,0.0,0.186,-6.249848930895569,-6.894
1621787355188.837,-0.033,-0.009,0.002,0.186,-6.261924387976449,-6.894
1621787355193.224,-0.035,-0.012,0.003,0.186,-6.2739897737837,-6.894
1621787355193.955,-0.035,-0.010332962138084633,0.0028332962138084635,0.186,-6.276,-6.894
1621787355197.609,-0.035,-0.002,0.002,0.17592866756393,-6.281164785864651,-6.90407133243607
1621787355201.991,-0.035,0.0,0.003,0.163849932705249,-6.287359008869103,-6.916150067294751
1621787355206.37,-0.037,0.005,0.005,0.1517792732166891,-6.293549090658108,-6.9282207267833105
1621787355208.104,-0.0346226288774827,0.005,0.003811314438741353,0.147,-6.296,-6.933
1621787355210.746,-0.031,0.005,0.002,0.147,-6.288700862978399,-6.938614720785846
1621787355215.119,-0.033,-0.002,0.002,0.147,-6.2766203932691145,-6.947907389792989
1621787355219.49,-0.033,0.0,0.005,0.147,-6.2645446448645,-6.9571964270273075
1621787355222.221,-0.036126851903617155,0.0031268519036171524,0.0031238888578297088,0.147,-6.257,-6.963
1621787355223.857,-0.038,0.005,0.002,0.14247143426501932,-6.257,-6.959516487896169
1621787355228.221,-0.031,0.005,0.005,0.13039142941308982,-6.257,-6.9502241764716075
1621787355232.583,-0.031,0.0,0.0,0.11831683099689823,-6.257,-6.940936023843768
1621787355236.31,-0.03271009297636384,0.0017100929763638401,0.0,0.108,-6.257,-6.933
1621787355236.942,-0.033,0.002,0.0,0.10975274811148736,-6.257853902926109,-6.931247251888513
1621787355241.298,-0.04,0.0,-0.002,0.12183709299296691,-6.263741147868368,-6.919162907007033
1621787355245.65,-0.04,0.002,-0.003,0.1339092471997916,-6.269622453764001,-6.907090752800208
1621787355250.0,-0.047,0.002,0.0,0.14597666058869496,-6.27550145003039,-6.895023339411305
1621787355250.369,-0.04733937896569151,0.0016606210343084959,0.0,0.147,-6.276,-6.894
1621787355254.348,-0.051,-0.002,0.0,0.14132708540002437,-6.281672914599976,-6.899672914599976
1621787355258.692,-0.049,-0.007,-0.005,0.13513379975286727,-6.287866200247133,-6.905866200247132
1621787355263.033,-0.049,-0.005,-0.005,0.12894469099705877,-6.294055309002942,-6.912055309002941
1621787355264.397,-0.04774230401260623,-0.006257695987393776,-0.004056728009454669,0.127,-6.296,-6.914
1621787355267.371,-0.045,-0.009,-0.002,0.12296312962187805,-6.304286207618251,-6.924410876238314
1621787355271.707,-0.049,-0.012,-0.003,0.11707782196176922,-6.316366575973211,-6.939588774940701
1621787355276.039,-0.045,-0.009,-0.005,0.11119781638063346,-6.328436061113437,-6.954752999860472
1621787355278.395,-0.046088243586129125,-0.005191147448548069,-0.007176487172258246,0.108,-6.335,-6.963
1621787355280.369,-0.047,-0.002,-0.009,0.1024883672149487,-6.3378264783513085,-6.958760282473038
1621787355284.696,-0.042,-0.009,-0.009,0.0904057228757713,-6.344022706217554,-6.9494659406736705
1621787355289.02,-0.042,-0.009,-0.01,0.07833194077854884,-6.350214389344334,-6.940178415983499
1621787355292.362,-0.03658718861209965,-0.011319776309100152,-0.013093035078800204,0.069,-6.355,-6.933
1621787355293.342,-0.035,-0.012,-0.014,0.069,-6.353758332688888,-6.9318204160544425
1621787355297.659,-0.038,-0.014,-0.012,0.069,-6.348288686103163,-6.926624251798005
1621787355301.975,-0.035,-0.012,-0.016,0.069,-6.3428199675199135,-6.921428969143918
1621787355308.132,-0.035,-0.021,-0.016,0.069,-6.335018869383652,-6.914017925914469
1621787355308.147,-0.03500596664547367,-0.021005966645473665,-0.015988066709052673,0.069,-6.335,-6.914
1621787355313.124,-0.037,-0.023,-0.012,0.07486549760736569,-6.322960294384881,-6.901651583984493
1621787355318.116,-0.038,-0.017,-0.016,0.08074854624750136,-6.310884562965655,-6.889266218426313
1621787355323.107,-0.044,-0.014,-0.009,0.08663044400024228,-6.29881119389424,-6.8768832757889635
1621787355324.269,-0.044,-0.013534428794992176,-0.010862284820031298,0.088,-6.296,-6.874
1621787355328.099,-0.044,-0.012,-0.017,0.0927522832952153,-6.300514669130455,-6.878752283295215
1621787355333.089,-0.047,-0.019,-0.016,0.09894376202232555,-6.30639657392121,-6.884943762022325
1621787355338.081,-0.047,-0.016,-0.01,0.10513766414734259,-6.312280780939976,-6.891137664147343
1621787355340.388,-0.04792460492196292,-0.01738690738294437,-0.011849209843925828,0.108,-6.315,-6.894
1621787355343.071,-0.049,-0.019,-0.014,0.10467045368476861,-6.318329546315232,-6.897329546315231
1621787355348.062,-0.049,-0.017,-0.014,0.09847701280012118,-6.324522987199879,-6.903522987199879
1621787355353.054,-0.047,-0.014,-0.014,0.09228236006968113,-6.330717639930319,-6.909717639930319
1621787355356.505,-0.043541472963053586,-0.015383410814778566,-0.012616589185221435,0.088,-6.335,-6.914
1621787355358.043,-0.042,-0.016,-0.012,0.09172205053626613,-6.336908743864752,-6.917722050536266
1621787355363.034,-0.047,-0.016,-0.017,0.10379980912561353,-6.343102466218263,-6.929799809125614
1621787355368.024,-0.037,-0.014,-0.016,0.11587520450827123,-6.349294976670909,-6.941875204508271
1621787355372.621,-0.037,-0.014,-0.018763833847057095,0.127,-6.355,-6.953
1621787355373.014,-0.037,-0.014,-0.019,0.12748755359604866,-6.354512446403952,-6.953
1621787355378.004,-0.031,-0.021,-0.016,0.1336809084435556,-6.348319091556444,-6.953
1621787355382.994,-0.031,-0.016,-0.019,0.13987426329106253,-6.342125736708938,-6.953
1621787355387.983,-0.024,-0.017,-0.017,0.14606640607245125,-6.335933593927549,-6.953
1621787355388.735,-0.024301541472963054,-0.015944604844629312,-0.017,0.147,-6.335,-6.953
1621787355392.972,-0.026,-0.01,-0.017,0.14174041521442643,-6.324743809668131,-6.947740415214427
1621787355397.962,-0.026,-0.012,-0.017,0.13554584027883013,-6.312664388543719,-6.94154584027883
1621787355402.951,-0.028,-0.016,-0.017,0.12935247764812852,-6.300587331413851,-6.935352477648128
1621787355404.846,-0.026480348490039645,-0.013720522735059469,-0.01927947726494053,0.127,-6.296,-6.933
1621787355407.939,-0.024,-0.01,-0.023,0.127,-6.292159687173192,-6.921671077160915
1621787355412.929,-0.028,-0.014,-0.019,0.127,-6.285964079479834,-6.903394034465512
1621787355417.917,-0.026,-0.021,-0.014,0.127,-6.279770896800497,-6.885124145561466
1621787355420.954,-0.030262150653418824,-0.021,-0.012782242670451765,0.127,-6.276,-6.874
1621787355422.905,-0.033,-0.021,-0.012,0.12469879353723969,-6.278422322592379,-6.878844645184758
1621787355427.893,-0.035,-0.017,-0.017,0.11881518081784838,-6.284615599139107,-6.891231198278214
1621787355432.881,-0.04,-0.019,-0.012,0.11293156809845706,-6.290808875685835,-6.903617751371669
1621787355437.062,-0.03832395400048936,-0.013133839001712748,-0.015352091999021288,0.108,-6.296,-6.914
1621787355437.87,-0.038,-0.012,-0.016,0.10699651356677277,-6.297956798544793,-6.916458541761407
1621787355442.857,-0.04,-0.017,-0.012,0.10080400181900864,-6.310032196452934,-6.931630195543429
1621787355447.845,-0.037,-0.021,-0.016,0.09460997423071092,-6.322110550250113,-6.946805563134758
1621787355452.832,-0.035,-0.023,-0.017,0.08841715931484007,-6.334186539336062,-6.9619779596786415
1621787355453.168,-0.034663190874822544,-0.022595829049787047,-0.017,0.088,-6.335,-6.963
1621787355457.819,-0.03,-0.017,-0.017,0.088,-6.335,-6.980041283847297
1621787355462.806,-0.03,-0.026,-0.019,0.088,-6.335,-6.998312517056308
1621787355467.793,-0.026,-0.021,-0.019,0.088,-6.335,-7.016584644773947
1621787355469.271,-0.023925392862388015,-0.022481862241151417,-0.019,0.088,-6.335,-7.022
1621787355472.78,-0.019,-0.026,-0.019,0.07514166793025018,-6.326500424564064,-7.017641243366187
1621787355477.766,-0.016,-0.031,-0.028,0.05687090219863533,-6.314423138741471,-7.011447763457165
1621787355482.753,-0.01,-0.031,-0.024,0.038597452615617894,-6.302344078847612,-7.005253373768006
1621787355485.372,-0.01,-0.03415174068452235,-0.026101160456348235,0.029,-6.296,-7.002
1621787355487.739,-0.01,-0.037,-0.028,0.026207068562937808,-6.290267140734452,-6.991857248991721
1621787355492.725,-0.009,-0.042,-0.035,0.020323619492373473,-6.278190587379083,-6.970491039209145
1621787355497.71,-0.003,-0.037,-0.033,0.01444161081966219,-6.266116990629833,-6.949130060345089
1621787355501.474,-0.004509570666275028,-0.0422834973319626,-0.036019141332550055,0.01,-6.257,-6.933
1621787355502.697,-0.005,-0.044,-0.037,0.012962511942494048,-6.2539615262128265,-6.9315567249510925
1621787355507.683,-0.01,-0.047,-0.035,0.02504144614124748,-6.241572875752566,-6.925672115982469
1621787355512.668,-0.012,-0.047,-0.038,0.03711742315099862,-6.229187258306668,-6.919788947695667
1621787355517.573,-0.020855428767324553,-0.05093574611881091,-0.04390361917821636,0.049,-6.217,-6.914
1621787355517.653,-0.021,-0.051,-0.044,0.049,-6.217393005020248,-6.9141940151365775
1621787355522.638,-0.021,-0.051,-0.04,0.049,-6.241857567530675,-6.926271457388561
1621787355527.623,-0.026,-0.047,-0.044,0.049,-6.2663233282271396,-6.938349491150107
1621787355532.608,-0.024,-0.056,-0.045,0.049,-6.290787890737567,-6.95042693340209
1621787355533.67,-0.023786963122581908,-0.057065184387090455,-0.04436088936774572,0.049,-6.296,-6.953
1621787355537.593,-0.023,-0.061,-0.042,0.049,-6.300630835734871,-6.955437281965722
1621787355542.577,-0.021,-0.061,-0.047,0.049,-6.306513832853026,-6.958533596238435
1621787355547.561,-0.016,-0.058,-0.047,0.049,-6.31239711815562,-6.961630062187169
1621787355549.766,-0.016,-0.058442354784993635,-0.04788470956998727,0.049,-6.315,-6.963
1621787355552.546,-0.016,-0.059,-0.049,0.05918997345468335,-6.30152850967008,-6.963
1621787355557.529,-0.016,-0.058,-0.056,0.07745692832764506,-6.277378976109215,-6.963
1621787355562.513,-0.016,-0.066,-0.049,0.09572656806977625,-6.2532258930602955,-6.963
1621787355565.861,-0.016671760960078375,-0.06532823903992163,-0.05101528288023512,0.108,-6.237,-6.963
1621787355567.497,-0.017,-0.065,-0.052,0.11592885423461416,-6.240964427117307,-6.95202158644438
1621787355572.48,-0.023,-0.061,-0.054,0.14007866992308976,-6.253039334961545,-6.918583380106491
1621787355577.464,-0.028,-0.059,-0.051,0.16423440178395352,-6.265117200891977,-6.885136982145296
1621787355581.955,-0.028,-0.056296178343949045,-0.04919745222929937,0.186,-6.276,-6.855
1621787355582.447,-0.028,-0.056,-0.049,0.18661137491087276,-6.2771921810762015,-6.856192181076202
1621787355587.43,-0.037,-0.059,-0.051,0.1928040111048743,-6.289267821654505,-6.868267821654506
1621787355592.413,-0.038,-0.059,-0.045,0.19899695071074228,-6.3013440538859475,-6.880344053885947
1621787355597.395,-0.038,-0.058,-0.045,0.20518837325727807,-6.313417327851693,-6.8924173278516925
1621787355598.048,-0.038,-0.057475747182753556,-0.045,0.206,-6.315,-6.894
1621787355602.378,-0.038,-0.054,-0.045,0.19550432473444612,-6.309886722306525,-6.917682549317147
1621787355607.36,-0.033,-0.049,-0.04,0.18342734446130501,-6.30400306525038,-6.944933171471927
1621787355612.343,-0.035,-0.047,-0.044,0.17134858877086495,-6.2981185432473445,-6.97218779969651
1621787355614.137,-0.03355935692579159,-0.04844064307420841,-0.04255935692579159,0.167,-6.296,-6.982
1621787355617.324,-0.031,-0.051,-0.04,0.16303751821272464,-6.296,-6.989924963574551
1621787355622.306,-0.024,-0.052,-0.044,0.156843370568237,-6.296,-7.002313258863526
1621787355627.288,-0.019,-0.049,-0.044,0.150648919378339,-6.296,-7.0147021612433225
1621787355630.223,-0.016054542781534842,-0.050767274331079096,-0.04282181711261394,0.147,-6.296,-7.022
1621787355632.27,-0.014,-0.052,-0.042,0.14954503513271517,-6.291037181491205,-7.019454964867285
1621787355637.251,-0.01,-0.051,-0.047,0.1557374986720896,-6.278961877589425,-7.013262501327911
1621787355642.232,-0.005,-0.051,-0.045,0.16192996221146405,-6.266886573687645,-7.0070700377885355
1621787355646.31,-0.0033625134790706795,-0.05181874326046466,-0.04418125673953534,0.167,-6.257,-7.002
1621787355647.213,-0.003,-0.052,-0.044,0.16806645012446117,-6.25475484184324,-6.9981271021795886
1621787355652.195,0.0,-0.049,-0.044,0.17395153603302776,-6.242365187298889,-6.9767549480905835
1621787355657.175,-0.005,-0.042,-0.044,0.1798340264707668,-6.229980996903649,-6.955392219658794
1621787355662.156,-0.009,-0.044,-0.044,0.18571767045109586,-6.217594377997693,-6.93402530204602
1621787355662.395,-0.009143984704382782,-0.04414398470438278,-0.04380802039415629,0.186,-6.217,-6.933
1621787355667.136,-0.012,-0.047,-0.04,0.17450353694820572,-6.2113991590260484,-6.921503536948205
1621787355672.116,-0.016,-0.045,-0.042,0.16242748497176512,-6.205515954217014,-6.909427484971765
1621787355677.096,-0.021,-0.047,-0.038,0.15035143299532455,-6.199632749407979,-6.8973514329953245
1621787355678.478,-0.02238763604274929,-0.047,-0.03772247279145014,0.147,-6.198,-6.894
1621787355682.076,-0.026,-0.047,-0.037,0.15572567862998724,-6.211200385619724,-6.907200385619724
1621787355687.056,-0.024,-0.045,-0.033,0.1678031973036983,-6.229471503613287,-6.925471503613287
1621787355692.035,-0.031,-0.045,-0.038,0.1798783476042995,-6.247739038683427,-6.943739038683428
1621787355694.559,-0.031,-0.043479409746053535,-0.03445195607412491,0.186,-6.257,-6.953
1621787355697.015,-0.031,-0.042,-0.031,0.186,-6.257,-6.9574290572855775
1621787355701.995,-0.026,-0.037,-0.028,0.186,-6.257,-6.966410898379971
1621787355706.974,-0.031,-0.038,-0.028,0.186,-6.257,-6.975390537934804
1621787355710.639,-0.030263769679729265,-0.03726376967972926,-0.025055078718917063,0.186,-6.257,-6.982
1621787355711.952,-0.03,-0.037,-0.024,0.18763316125113877,-6.257,-6.983633161251139
1621787355716.931,-0.031,-0.033,-0.023,0.19382629820832067,-6.257,-6.989826298208321
1621787355721.91,-0.026,-0.031,-0.019,0.20001943516550258,-6.257,-6.996019435165502
1621787355726.718,-0.021170671897989213,-0.03003413437959784,-0.022863462481608633,0.206,-6.257,-7.002
1621787355726.888,-0.021,-0.03,-0.023,0.206,-6.257,-7.002
1621787355731.867,-0.019,-0.024,-0.017,0.206,-6.257,-7.002
1621787355736.845,-0.019,-0.024,-0.021,0.206,-6.257,-7.002
1621787355741.823,-0.016,-0.024,-0.016,0.206,-6.257,-7.002
1621787355742.795,-0.01521902893575282,-0.02439048553212359,-0.015609514467876411,0.206,-6.257,-7.002
1621787355746.801,-0.012,-0.026,-0.014,0.20101640041304744,-6.257,-6.997016400413047
1621787355751.778,-0.01,-0.028,-0.016,0.1948249407762862,-6.257,-6.990824940776286
1621787355756.756,-0.005,-0.024,-0.014,0.18863226629411406,-6.257,-6.984632266294114
1621787355758.872,-0.004149835695718279,-0.024,-0.01485016430428172,0.186,-6.257,-6.982
1621787355761.734,-0.003,-0.024,-0.016,0.17905684734899685,-6.249878817793842,-6.982
1621787355766.71,-0.003,-0.024,-0.014,0.1669842200385766,-6.237496635937001,-6.982
1621787355771.687,-0.002,-0.021,-0.014,0.15490922345579636,-6.225112024057227,-6.982
1621787355774.947,0.0006200333562248602,-0.021,-0.014,0.147,-6.217,-6.982
1621787355776.664,0.002,-0.021,-0.014,0.14069716716032504,-6.217,-6.9883028328396755
1621787355781.641,0.0,-0.021,-0.012,0.12242764486975012,-6.217,-7.00657235513025
1621787355786.617,0.002,-0.016,-0.016,0.10416260347839294,-6.217,-7.024837396521607
1621787355791.02,-0.0015387030314922005,-0.0230774060629844,-0.0142306484842539,0.088,-6.217,-7.041
1621787355791.594,-0.002,-0.024,-0.014,0.08871429656523919,-6.217714296565239,-7.039607121697784
1621787355796.569,0.005,-0.024,-0.014,0.09490567700183815,-6.223905677001838,-7.027533929846416
1621787355801.546,0.005,-0.019,-0.014,0.10109918422531787,-6.230099184225318,-7.01545659076063
1621787355806.521,0.003,-0.007,-0.017,0.10729056466191683,-6.236290564661917,-7.0033833989092615
1621787355807.091,0.0032291237366303604,-0.008603866156412522,-0.01665631439505446,0.108,-6.237,-7.002
1621787355811.497,0.005,-0.021,-0.014,0.10251642308042903,-6.231516423080429,-6.9913070250068365
1621787355816.473,0.005,-0.024,-0.016,0.09632366078210933,-6.225323660782109,-6.979231138525114
1621787355821.448,0.003,-0.016,-0.017,0.09013181003311962,-6.21913181003312,-6.967157029564583
1621787355823.161,0.0036884505936610737,-0.016344225296830536,-0.01596732410950839,0.088,-6.217,-6.963
1621787355826.424,0.005,-0.017,-0.014,0.08414116181185516,-6.217,-6.963
1621787355831.399,0.003,-0.023,-0.012,0.0782582091139779,-6.217,-6.963
1621787355836.373,0.0,-0.017,-0.012,0.0723761225327073,-6.217,-6.963
1621787355839.228,0.002869411591500221,-0.020443293909800264,-0.012,0.069,-6.217,-6.963
1621787355841.348,0.005,-0.023,-0.012,0.061215041181655175,-6.214492979363584,-6.965507020636416
1621787355846.323,0.003,-0.021,-0.017,0.042944640306355045,-6.208609290946114,-6.971390709053885
1621787355851.297,0.0,-0.023,-0.017,0.02467782573017658,-6.202726757438532,-6.977273242561469
1621787355855.294,-0.0040178176998969225,-0.01737505522014431,-0.017,0.01,-6.198,-6.982
1621787355856.271,-0.005,-0.016,-0.017,0.009391737848436027,-6.198,-6.984433048606256
1621787355861.245,-0.005,-0.019,-0.019,0.006295102896920693,-6.198,-6.996819588412317
1621787355866.22,-0.007,-0.028,-0.021,0.0031980119767759984,-6.198,-7.009207952092896
1621787355871.193,-0.005,-0.031,-0.024,0.00010198498343313989,-6.198,-7.021592060066268
1621787355871.357,-0.005164678741471556,-0.03096706425170569,-0.024,0.0,-6.198,-7.022
1621787355876.167,-0.01,-0.03,-0.024,0.014672148089607588,-6.215666464026262,-7.022
1621787355881.14,-0.016,-0.037,-0.024,0.029841013404662758,-6.233931016140308,-7.022
1621787355886.114,-0.012,-0.042,-0.031,0.04501360223715007,-6.252200051673303,-7.022
1621787355887.421,-0.011474397368550248,-0.04068599342137562,-0.030211596052825373,0.049,-6.257,-7.022
1621787355891.087,-0.01,-0.037,-0.028,0.049,-6.261337113496093,-7.006249429935241
1621787355896.059,-0.007,-0.04,-0.03,0.049,-6.267219482533216,-6.984887142379375
1621787355901.032,-0.002,-0.038,-0.031,0.049,-6.273102718068772,-6.963521708066037
1621787355903.481,-0.001015071923020276,-0.04095478423093917,-0.031984928076979724,0.049,-6.276,-6.953
1621787355906.005,0.0,-0.044,-0.033,0.045856890942811104,-6.266727828281293,-6.946870937338482
1621787355910.978,-0.005,-0.042,-0.031,0.03966370739716032,-6.248457936821623,-6.934794229424463
1621787355915.949,-0.005,-0.044,-0.033,0.03347326016235445,-6.230196117478945,-6.922722857316591
1621787355919.541,-0.007889150711831123,-0.04255542464408444,-0.03155542464408444,0.029,-6.217,-6.914
1621787355920.922,-0.009,-0.042,-0.031,0.029,-6.2120112362967355,-6.912279736654046
1621787355925.894,-0.012,-0.037,-0.031,0.029,-6.194051863339871,-6.906086849427542
1621787355930.865,-0.021,-0.037,-0.035,0.029,-6.176096017880765,-6.899895178579574
1621787355935.598,-0.0276634912840658,-0.03985578197888534,-0.031192290694819543,0.029,-6.159,-6.894
1621787355935.837,-0.028,-0.04,-0.031,0.0292977222272907,-6.160161116686433,-6.894297722227291
1621787355940.808,-0.033,-0.031,-0.035,0.035489979624730106,-6.184310920536447,-6.90048997962473
1621787355945.78,-0.04,-0.033,-0.033,0.04168314934768726,-6.208464282455981,-6.906683149347687
1621787355950.751,-0.04,-0.037,-0.033,0.047875102636620745,-6.232612900282821,-6.912875102636621
1621787355951.654,-0.04,-0.037181670841314275,-0.03245498747605717,0.049,-6.237,-6.914
1621787355955.722,-0.04,-0.038,-0.03,0.049,-6.242067749441124,-6.926415986130754
1621787355960.693,-0.042,-0.037,-0.031,0.049,-6.248260854357711,-6.9415890931763915
1621787355965.663,-0.04,-0.037,-0.033,0.049,-6.254452438523655,-6.956758474382956
1621787355967.708,-0.04,-0.039879622808310006,-0.03382274937380286,0.049,-6.257,-6.963
1621787355970.634,-0.04,-0.044,-0.035,0.05264546104360258,-6.257,-6.963
1621787355975.604,-0.04,-0.044,-0.035,0.05883742186668289,-6.257,-6.963
1621787355980.575,-0.042,-0.038,-0.031,0.06503059936428757,-6.257,-6.963
1621787355983.761,-0.04071788573954905,-0.04184634278135285,-0.031,0.069,-6.257,-6.963
1621787355985.545,-0.04,-0.044,-0.031,0.062443447447264766,-6.2482208872598965,-6.969556552552735
1621787355990.514,-0.044,-0.037,-0.033,0.04418075220902469,-6.223767447873101,-6.987819247790975
1621787355995.485,-0.047,-0.045,-0.033,0.02590998129362919,-6.19930319529147,-7.006090018706371
1621787355999.814,-0.042644131086326344,-0.03803060973812214,-0.036484695130938924,0.01,-6.178,-7.022
1621787356000.454,-0.042,-0.037,-0.037,0.014666970927844462,-6.178797772808179,-7.02275788416777
1621787356005.423,-0.047,-0.047,-0.04,0.05089384327506732,-6.18499040055984,-7.0286408805318485
1621787356010.393,-0.047,-0.052,-0.04,0.08712783533385057,-6.191184245356214,-7.0345250330884035
1621787356015.361,-0.038,-0.047,-0.037,0.12334758796951303,-6.197375656063165,-7.0404068732600065
1621787356015.862,-0.03749599646313308,-0.04820960848848062,-0.03659679717050646,0.127,-6.198,-7.041
1621787356020.331,-0.033,-0.059,-0.033,0.127,-6.214431277385589,-7.016492332035054
1621787356025.299,-0.042,-0.054,-0.042,0.127,-6.232697328383642,-6.989248052580331
1621787356030.268,-0.04,-0.051,-0.044,0.127,-6.250966969936709,-6.961998417721519
1621787356031.909,-0.03933955682209011,-0.04868844887731538,-0.04267911364418022,0.127,-6.257,-6.953
1621787356035.237,-0.038,-0.044,-0.04,0.127,-6.265090084606489,-6.971254549881308
1621787356040.204,-0.037,-0.045,-0.04,0.127,-6.277164084849961,-6.998498447866578
1621787356045.173,-0.037,-0.054,-0.038,0.127,-6.289242832795666,-7.025753058615862
1621787356047.953,-0.031962937475422726,-0.055119347227683836,-0.038,0.127,-6.296,-7.041
1621787356050.14,-0.028,-0.056,-0.038,0.13504337305391956,-6.2745964479751635,-7.023686298680547
1621787356055.108,-0.016,-0.061,-0.037,0.15331470574807105,-6.225976121992422,-6.984356480847373
1621787356060.076,-0.012,-0.061,-0.037,0.17158603844222253,-6.177355796009679,-6.945026663014199
1621787356063.995,-0.02067942983534038,-0.06257807815188007,-0.037789039075940035,0.186,-6.139,-6.914
1621787356065.043,-0.023,-0.063,-0.038,0.18090470754760057,-6.14670826294081,-6.901196444606791
1621787356070.011,-0.035,-0.066,-0.035,0.15674718049404138,-6.18325426540645,-6.840492915087591
1621787356074.977,-0.049,-0.073,-0.037,0.13259915072371126,-6.219785900187206,-6.779813250536505
1621787356079.945,-0.058,-0.068,-0.035,0.10844162367015205,-6.256331902652847,-6.719109721017305
1621787356080.036,-0.058091445427728615,-0.06794513274336283,-0.03492684365781711,0.108,-6.257,-6.718
1621787356084.911,-0.063,-0.065,-0.031,0.1198531506849315,-6.280706301369863,-6.789422831050229
1621787356089.878,-0.066,-0.07,-0.037,0.13193009132420092,-6.304860182648402,-6.862194140030441
1621787356094.845,-0.063,-0.068,-0.037,0.1440070319634703,-6.329014063926941,-6.9349654490106545
1621787356096.076,-0.06200850498992183,-0.06725637874244138,-0.03823936876259771,0.147,-6.335,-6.953
1621787356099.811,-0.059,-0.065,-0.042,0.16074050112646898,-6.357823205260915,-6.964411602630458
1621787356104.777,-0.058,-0.065,-0.04,0.17900937709310114,-6.388168117883456,-6.979584058941728
1621787356109.742,-0.049,-0.066,-0.04,0.19727376240638128,-6.418505571454667,-6.994752785727333
1621787356112.114,-0.04326812841059928,-0.06552234403421661,-0.03856703210264982,0.206,-6.433,-7.002
1621787356114.708,-0.037,-0.065,-0.037,0.21861665169668273,-6.436235038896585,-7.011543364744926
1621787356119.675,-0.019,-0.061,-0.042,0.24277531322788373,-6.4424295674943295,-7.029817224108271
1621787356124.64,-0.012,-0.068,-0.042,0.26692328771294166,-6.448621355823831,-7.048082999680302
1621787356128.151,0.0014355608005113818,-0.06658573044205143,-0.04553567389487142,0.284,-6.453,-7.061
1621787356129.605,0.007,-0.066,-0.047,0.2893446288156474,-6.454721151652497,-7.04406024426227
1621787356134.57,0.017,-0.065,-0.047,0.3075940774764635,-6.460598092746658,-6.986218771388158
1621787356139.535,0.03,-0.072,-0.042,0.3258426287852287,-6.46647474486304,-6.928380142663767
1621787356144.203,0.026239366671583813,-0.06165825834685548,-0.04858110832472833,0.343,-6.472,-6.874
1621787356144.5,0.026,-0.061,-0.049,0.3433709800335315,-6.470182197835697,-6.870735375704923
1621787356149.465,0.028,-0.058,-0.047,0.3495703398872123,-6.43980533455266,-6.816181008992531
1621787356154.429,0.028,-0.058,-0.044,0.3557681755829904,-6.409435939643347,-6.761640054869685
1621787356159.393,0.024,-0.056,-0.044,0.361966316110349,-6.379065051059289,-6.707096418228929
1621787356160.221,0.02383325137686861,-0.05449926239181747,-0.044500245869394175,0.363,-6.374,-6.698
1621787356164.358,0.023,-0.047,-0.047,0.3578394268398532,-6.363936882337714,-6.682776309177568
1621787356169.322,0.007,-0.052,-0.038,0.3516470435961079,-6.3518617350124105,-6.664508778608519
1621787356174.286,0.0,-0.059,-0.04,0.34545496490079336,-6.339787181556547,-6.6462421464573405
1621787356176.254,-0.0027751438548172924,-0.05582840702306595,-0.039207101755766485,0.343,-6.335,-6.639
1621787356179.25,-0.007,-0.051,-0.038,0.33571070226473143,-6.335,-6.646289297735269
1621787356184.213,-0.017,-0.051,-0.035,0.32363631794575004,-6.335,-6.65836368205425
1621787356189.177,-0.024,-0.052,-0.04,0.31155896373688297,-6.335,-6.670441036263117
1621787356192.284,-0.024,-0.05137384373154891,-0.03812153119464672,0.304,-6.335,-6.678
1621787356194.139,-0.024,-0.051,-0.037,0.30168561811785133,-6.341827426552339,-6.691654853104677
1621787356199.103,-0.035,-0.058,-0.038,0.29549210313894514,-6.360098295740112,-6.7281965914802235
1621787356204.066,-0.037,-0.059,-0.038,0.28930011118049315,-6.378364672017545,-6.76472934403509
1621787356208.314,-0.031863468634686344,-0.05814391143911439,-0.04142435424354244,0.284,-6.394,-6.796
1621787356209.028,-0.031,-0.058,-0.042,0.2822626144169116,-6.394890966965686,-6.7968909669656865
1621787356213.991,-0.035,-0.066,-0.044,0.2701882300979302,-6.401082958924138,-6.803082958924138
1621787356218.954,-0.037,-0.07,-0.042,0.25811325180097167,-6.407275255486681,-6.809275255486681
1621787356223.915,-0.031,-0.075,-0.051,0.24604361930580726,-6.413464810612406,-6.815464810612406
1621787356224.344,-0.031,-0.0748271349862259,-0.051,0.245,-6.414,-6.816
1621787356228.878,-0.031,-0.073,-0.051,0.256033453681276,-6.414,-6.816
1621787356233.839,-0.026,-0.079,-0.052,0.26810662218362963,-6.414,-6.816
1621787356238.801,-0.019,-0.079,-0.056,0.28018157305424796,-6.414,-6.816
1621787356240.37,-0.016785974409448817,-0.07773484251968504,-0.05663257874015748,0.284,-6.414,-6.816
1621787356243.762,-0.012,-0.075,-0.058,0.29648951698918175,-6.397276748438214,-6.786787231449033
1621787356248.724,-0.017,-0.075,-0.066,0.31476126771293617,-6.372811183909797,-6.744049916196861
1621787356253.685,-0.016,-0.084,-0.068,0.33302852354106355,-6.34835163797044,-6.701323114429377
1621787356256.393,-0.018729330708661417,-0.08563759842519685,-0.06909173228346457,0.343,-6.335,-6.678
1621787356258.646,-0.021,-0.087,-0.07,0.35129729647352864,-6.335,-6.651842421286842
1621787356263.608,-0.028,-0.082,-0.072,0.3695714895303118,-6.335,-6.594232253345119
1621787356268.568,-0.031,-0.084,-0.072,0.3878393885824012,-6.335,-6.536641927519888
1621787356272.413,-0.03797544291338582,-0.0808998031496063,-0.06734970472440945,0.402,-6.335,-6.492
1621787356273.529,-0.04,-0.08,-0.066,0.402,-6.333606678554554,-6.490606678554554
1621787356278.489,-0.059,-0.072,-0.065,0.402,-6.327414003322512,-6.484414003322512
1621787356283.449,-0.077,-0.061,-0.063,0.402,-6.32122132809047,-6.47822132809047
1621787356288.41,-0.087,-0.07,-0.068,0.402,-6.315027433587856,-6.472027433587856
1621787356288.432,-0.08703076772807189,-0.07,-0.06797802305137722,0.402,-6.315,-6.472
1621787356293.409,-0.094,-0.07,-0.063,0.3838402608971359,-6.315,-6.517245451663069
1621787356298.419,-0.106,-0.068,-0.066,0.3655602645207072,-6.315,-6.562790527380611
1621787356303.429,-0.11,-0.068,-0.072,0.34728026814427854,-6.315,-6.608335603098153
1621787356304.602,-0.11117052375152253,-0.06846820950060901,-0.07106358099878197,0.343,-6.315,-6.619
1621787356308.44,-0.115,-0.07,-0.068,0.3477440133991218,-6.315,-6.656240505183106
1621787356313.45,-0.119,-0.07,-0.075,0.353936882289922,-6.315,-6.704854525975888
1621787356318.46,-0.117,-0.075,-0.075,0.36012975118072216,-6.315,-6.753468546768668
1621787356320.782,-0.1193173821938502,-0.0773173821938502,-0.0773173821938502,0.363,-6.315,-6.776
1621787356323.47,-0.122,-0.08,-0.08,0.363,-6.315,-6.792280838350459
1621787356328.48,-0.117,-0.082,-0.084,0.363,-6.315,-6.8226258959153805
1621787356333.491,-0.115,-0.08,-0.087,0.363,-6.315,-6.852976868407949
1621787356336.962,-0.11361412487205733,-0.08762231320368474,-0.087,0.363,-6.315,-6.874
1621787356338.5,-0.113,-0.091,-0.087,0.36480624717066545,-6.315,-6.872193752829334
1621787356343.511,-0.115,-0.096,-0.093,0.3706908857703335,-6.315,-6.866309114229667
1621787356348.521,-0.115,-0.112,-0.094,0.3765743775464011,-6.315,-6.860425622453599
1621787356353.141,-0.11223346815457337,-0.11292217728180888,-0.09584435456361776,0.382,-6.315,-6.855
1621787356353.531,-0.112,-0.113,-0.096,0.382,-6.314070139293233,-6.854070139293233
1621787356358.542,-0.12,-0.108,-0.098,0.382,-6.302119362207193,-6.842119362207193
1621787356363.631,-0.12,-0.12,-0.093,0.382,-6.289982263626999,-6.829982263626999
1621787356368.722,-0.126,-0.126,-0.094,0.382,-6.277841089264119,-6.817841089264119
1621787356369.494,-0.1270614300100705,-0.12493856998992951,-0.094,0.382,-6.276,-6.816
1621787356373.813,-0.133,-0.119,-0.094,0.382,-6.276,-6.805492003623242
1621787356378.903,-0.136,-0.126,-0.093,0.382,-6.276,-6.793108236936281
1621787356383.994,-0.138,-0.127,-0.093,0.382,-6.276,-6.780722688326923
1621787356385.935,-0.14143159257660767,-0.12776257612813505,-0.09223742387186495,0.382,-6.276,-6.776
1621787356389.085,-0.147,-0.129,-0.091,0.37835958893938043,-6.279832011642758,-6.783664023285515
1621787356394.177,-0.15,-0.133,-0.091,0.3724746057203956,-6.286026730820637,-6.796053461641272
1621787356399.268,-0.15,-0.145,-0.091,0.3665907511360599,-6.292220261962043,-6.808440523924085
1621787356402.375,-0.1542721081910608,-0.1419484941492423,-0.09283090351045463,0.363,-6.296,-6.816
1621787356404.359,-0.157,-0.14,-0.094,0.363,-6.300705129537525,-6.822997372132729
1621787356409.452,-0.154,-0.148,-0.087,0.363,-6.312784099176008,-6.840960968005344
1621787356414.543,-0.152,-0.157,-0.094,0.363,-6.324858436641675,-6.858917675005567
1621787356418.819,-0.1545192980773841,-0.15532046794841062,-0.094,0.363,-6.335,-6.874
1621787356419.635,-0.155,-0.155,-0.094,0.36394280623608016,-6.332072338530066,-6.878416302895323
1621787356424.728,-0.154,-0.161,-0.091,0.3698278693392725,-6.313797668893838,-6.905983177431328
1621787356429.82,-0.159,-0.164,-0.091,0.3757118040089087,-6.295526503340757,-6.933544766146993
1621787356434.913,-0.152,-0.161,-0.087,0.38159686711210095,-6.277251833704528,-6.961111640682999
1621787356435.262,-0.15220555235903338,-0.16134258726505563,-0.087,0.382,-6.276,-6.963
1621787356440.005,-0.155,-0.166,-0.087,0.38776751228346223,-6.281767512283462,-6.931855433669305
1621787356445.099,-0.157,-0.173,-0.08,0.3939622367034305,-6.2879622367034305,-6.898403921801476
1621787356450.192,-0.159,-0.168,-0.073,0.40015517983582466,-6.294155179835825,-6.864962028886548
1621787356451.709,-0.16108513494079862,-0.16680849431954364,-0.0700212357988591,0.402,-6.296,-6.855
1621787356455.285,-0.166,-0.164,-0.063,0.40417382270440344,-6.291652354591193,-6.846522091452827
1621787356460.379,-0.171,-0.162,-0.061,0.4072704848691729,-6.285459030261654,-6.834445109010226
1621787356465.472,-0.176,-0.157,-0.047,0.410366553377165,-6.27926689324567,-6.822370441829056
1621787356468.159,-0.1796916958167617,-0.157,-0.044363074416598786,0.412,-6.276,-6.816
1621787356470.567,-0.183,-0.157,-0.042,0.40760968009970916,-6.278926879933527,-6.837512567511425
1621787356475.66,-0.192,-0.147,-0.037,0.3983238174372366,-6.285117455041842,-6.88301329455754
1621787356480.755,-0.192,-0.145,-0.024,0.3890343937325657,-6.291310404178289,-6.9285314707104275
1621787356484.613,-0.192,-0.14878605654048874,-0.017942309535218016,0.382,-6.296,-6.963
1621787356485.85,-0.192,-0.15,-0.016,0.37463200534164254,-6.300435833518807,-6.971796483418651
1621787356490.944,-0.183,-0.15,-0.014,0.3442919207656354,-6.318701802804362,-7.008018829290007
1621787356496.039,-0.18,-0.141,-0.003,0.3139460197344016,-6.336971273833371,-7.044248119296684
1621787356501.067,-0.1750658872011117,-0.14692093535866596,0.0019341127988883027,0.284,-6.355,-7.08
1621787356501.134,-0.175,-0.147,0.002,0.2832818564899994,-6.35483678556591,-7.0803223485073294
1621787356506.229,-0.162,-0.147,0.01,0.22878390408926344,-6.3424508872930145,-7.104784497596296
1621787356511.325,-0.155,-0.147,0.014,0.17427550596474567,-6.330062614991988,-7.1292513353908245
1621787356516.42,-0.15,-0.157,0.023,0.11977755356400971,-6.3176767167190935,-7.153713484479791
1621787356517.521,-0.14740730094854843,-0.15656788349142475,0.023648174762862892,0.108,-6.315,-7.159
1621787356521.516,-0.138,-0.155,0.026,0.04123689988724705,-6.296063557058929,-7.163612723280517
1621787356526.611,-0.119,-0.169,0.026,-0.04390604415168241,-6.271913922022432,-7.169495326686843
1621787356531.708,-0.108,-0.175,0.023,-0.12908162720313338,-6.247755029375112,-7.175380185152217
1621787356533.977,-0.10043050831217362,-0.1807884348201025,0.018992622047621328,-0.167,-6.237,-7.178
1621787356536.804,-0.091,-0.188,0.014,-0.2090823443897229,-6.194917655610277,-7.161167062244111
1621787356541.9,-0.07,-0.201,0.003,-0.28494250281848926,-6.119057497181511,-7.130822998872604
1621787356546.997,-0.059,-0.209,-0.007,-0.3608208330860974,-6.0431791669139026,-7.100471666765561
1621787356550.435,-0.052253485363867196,-0.225866286590332,-0.016445120490585927,-0.412,-5.992,-7.08
1621787356552.093,-0.049,-0.234,-0.021,-0.46829959364062407,-5.941642581716795,-7.053411283146468
1621787356557.191,-0.044,-0.25,-0.037,-0.6414098594055881,-5.786803345791066,-6.971656166577683
1621787356562.287,-0.044,-0.276,-0.063,-0.8144620928990923,-5.63201601708489,-6.889928457020822
1621787356566.897,-0.0485213351850965,-0.2958938748144246,-0.0865109429625018,-0.971,-5.492,-6.816
1621787356567.385,-0.049,-0.298,-0.089,-0.986415004523008,-5.479490130944789,-6.805239141073361
1621787356572.483,-0.052,-0.316,-0.124,-1.147435869678051,-5.348815505761274,-6.692834190974745
1621787356577.58,-0.063,-0.33,-0.157,-1.3084336007592723,-5.218159654768437,-6.5804453902392
1621787356582.678,-0.08,-0.34,-0.195,-1.469454465914315,-5.087485029584921,-6.468040440140585
1621787356583.36,-0.0821408936353623,-0.34080283511326087,-0.19874656386188402,-1.491,-5.07,-6.453
1621787356587.776,-0.096,-0.346,-0.223,-1.5617990036178164,-5.059541056283732,-6.3610149309056405
1621787356592.874,-0.124,-0.34,-0.253,-1.6435386394638516,-5.047465882806477,-6.254815328272345
1621787356597.973,-0.157,-0.335,-0.278,-1.7252900183856235,-5.035388974556669,-6.148600468536861
1621787356599.826,-0.1697214826166076,-0.335,-0.28272512211474,-1.755,-5.031,-6.11
1621787356603.071,-0.192,-0.335,-0.291,-1.7144065200954737,-5.152780439713578,-6.055809674884735
1621787356608.17,-0.237,-0.326,-0.312,-1.6506241827642951,-5.344127451707115,-5.970663350777579
1621787356613.269,-0.291,-0.314,-0.309,-1.5868387914547908,-5.535483625635628,-5.885512949757609
1621787356616.294,-0.32659492458702416,-0.3003552789083074,-0.2983215226238927,-1.549,-5.649,-5.835
1621787356618.368,-0.351,-0.291,-0.291,-1.3872936266733873,-5.776198938520155,-5.912830637629164
1621787356623.468,-0.412,-0.258,-0.262,-0.9896425214593866,-6.088993032185374,-6.104223459297585
1621787356628.566,-0.459,-0.236,-0.223,-0.5921627355343722,-6.401652365350689,-6.295533823551214
1621787356632.762,-0.49601612903225806,-0.22119354838709676,-0.1892741935483871,-0.265,-6.659,-6.453
1621787356633.667,-0.504,-0.218,-0.182,-0.22566318878382785,-6.706412944245191,-6.516015813498533
1621787356638.766,-0.546,-0.216,-0.141,-0.004031508432877862,-6.973547218187746,-6.871059860094259
1621787356643.866,-0.574,-0.216,-0.11,0.2176320064024661,-7.240719862465542,-7.226154904111213
1621787356648.966,-0.564,-0.22,-0.073,0.4393061327326081,-7.5079052968550855,-7.581266947268578
1621787356649.235,-0.5619425534970558,-0.22084408061659247,-0.0709953085355929,0.451,-7.522,-7.6
1621787356654.066,-0.525,-0.236,-0.035,0.4911763520222904,-7.740477242748952,-7.864518755650408
1621787356659.167,-0.449,-0.239,0.002,0.5336004031242126,-7.971177374653565,-8.143836230788612
1621787356664.268,-0.346,-0.239,0.019,0.5760244542261349,-8.201877506558178,-8.423153705926815
1621787356665.708,-0.31099535729670225,-0.239,0.02041147752835878,0.588,-8.267,-8.502
1621787356669.369,-0.222,-0.239,0.024,0.5751110156053173,-8.262555522622522,-8.467110852586808
1621787356674.47,-0.108,-0.248,0.04,0.5571515331149873,-8.256362597625857,-8.418496391362984
1621787356679.571,-0.017,-0.246,0.082,0.5391920506246572,-8.250169672629193,-8.36988193013916
1621787356682.182,0.03263719016173796,-0.23269518614221457,0.09172274858838167,0.53,-8.247,-8.345
1621787356684.673,0.08,-0.22,0.101,0.4720931693584235,-8.131337531486146,-8.18050226700252
1621787356689.774,0.162,-0.197,0.11,0.35352717439620684,-7.894515113350126,-7.8436881612090685
1621787356694.876,0.215,-0.171,0.117,0.2349328048599793,-7.657636020151133,-7.506793450881612
1621787356698.659,0.23131208728107952,-0.14653186907838073,0.13108771174275052,0.147,-7.482,-7.257
1621787356699.978,0.237,-0.138,0.136,0.16269103570899393,-7.419235857164025,-7.181586961031264
1621787356705.08,0.244,-0.115,0.168,0.22338162690769003,-7.17647349236924,-6.889900548229368
1621787356710.182,0.227,-0.087,0.208,0.2840693139724404,-6.933722744110239,-6.598228093050823
1621787356715.136,0.1891309216192937,-0.0734059718633362,0.24489807637094457,0.343,-6.698,-6.315
1621787356715.284,0.188,-0.073,0.246,0.34159044712435926,-6.691832083913598,-6.311749948146612
1621787356720.387,0.136,-0.052,0.278,0.29297250288897453,-6.479089869329462,-6.1996499748140685
1621787356725.491,0.087,-0.033,0.312,0.2443452546742126,-6.266306942427924,-6.087528548994045
1621787356730.593,0.026,-0.023,0.349,0.19573661441820497,-6.05360544016119,-5.975450028148982
1621787356731.615,0.014186453649669951,-0.02019678561178609,0.3542059695781115,0.186,-6.011,-5.953
1621787356735.697,-0.033,-0.009,0.375,0.08394909780450949,-5.952791354330242,-5.957706230926491
1621787356740.8,-0.077,-0.005,0.408,-0.04362673698557082,-5.880023584486386,-5.963589582530888
1621787356745.903,-0.124,0.003,0.44,-0.17120257177565112,-5.807255814642529,-5.969472934135285
1621787356748.095,-0.14203673586530183,0.009871137472495933,0.4520244905768679,-0.226,-5.776,-5.972
1621787356751.007,-0.166,0.019,0.468,-0.29349364538586875,-5.803739534883721,-5.968642986224263
1621787356756.111,-0.22,0.031,0.492,-0.4117885942823285,-5.852358139534884,-5.9627592060435495
1621787356761.215,-0.269,0.044,0.515,-0.5300835431787884,-5.900976744186046,-5.956875425862836
1621787356764.577,-0.2874425523773079,0.05980790203769253,0.5215866258490386,-0.608,-5.933,-5.953
1621787356766.319,-0.297,0.068,0.525,-0.658833286435733,-5.945470535965523,-5.993370718125676
1621787356771.424,-0.332,0.086,0.55,-0.8077856434103935,-5.982011862624587,-6.111665521377901
1621787356776.528,-0.36,0.096,0.565,-0.9567095063904151,-6.018546199072908,-6.229937695303822
1621787356781.062,-0.37687465327594455,0.096,0.565,-1.089,-6.051,-6.335
1621787356781.633,-0.379,0.096,0.565,-1.1134500806941174,-6.060142806378537,-6.3489220006218625
1621787356786.739,-0.386,0.103,0.557,-1.3320687158530626,-6.14189255097055,-6.47340456625061
1621787356791.843,-0.386,0.103,0.545,-1.5506037252550378,-6.223611024741261,-6.597839514946919
1621787356796.949,-0.393,0.093,0.543,-1.769222360413983,-6.305360769333275,-6.722322080575667
1621787356797.551,-0.39252826398852225,0.08946197991391679,0.5427641319942612,-1.795,-6.315,-6.737
1621787356802.054,-0.389,0.063,0.541,-1.8886687247368186,-6.382179318615911,-6.825480078177053
1621787356807.16,-0.391,0.086,0.51,-1.9948814610817454,-6.458355216985741,-6.9258093101763425
1621787356812.265,-0.38,0.075,0.504,-2.1010738832378326,-6.534516545995647,-7.026119353262559
1621787356814.04,-0.37791452746307186,0.06596295233997801,0.504,-2.138,-6.561,-7.061
1621787356817.372,-0.374,0.049,0.504,-2.189523235672939,-6.5886811109301675,-7.122423778998327
1621787356822.478,-0.367,0.045,0.489,-2.268476705109035,-6.631099249411521,-7.216548699424105
1621787356827.584,-0.368,0.051,0.464,-2.3474301745451314,-6.673517387892875,-7.310673619849882
1621787356830.531,-0.358189932115881,0.04696056028300984,0.4513046180323167,-2.393,-6.698,-7.365
1621787356832.691,-0.351,0.044,0.442,-2.407142000799254,-6.731390835220461,-7.4061165578793124
1621787356837.798,-0.34,0.042,0.428,-2.440581190888504,-6.810344478486746,-7.503337906842503
1621787356842.904,-0.318,0.044,0.412,-2.4740123884374583,-6.889279250477332,-7.600536018234833
1621787356847.026,-0.2937915113277889,0.038351352643150746,0.40070270528630153,-2.501,-6.953,-7.679
1621787356848.012,-0.288,0.037,0.398,-2.4839636070329147,-6.96764532026995,-7.6754731677717265
1621787356853.119,-0.265,0.031,0.374,-2.3957320477148945,-7.043493502841582,-7.657207687070803
1621787356858.227,-0.232,0.031,0.353,-2.3074793985318496,-7.119359815297183,-7.638937840397822
1621787356863.333,-0.192,0.037,0.349,-2.219264711105849,-7.195193493961639,-7.620675852474545
1621787356863.522,-0.1905944757717672,0.03755481219535506,0.349332887317213,-2.216,-7.198,-7.62
1621787356868.442,-0.154,0.052,0.358,-2.125338069022672,-7.253470786716392,-7.464920381222992
1621787356873.55,-0.127,0.059,0.374,-2.0312074823891555,-7.311063843011898,-7.30390753566566
1621787356878.658,-0.098,0.049,0.368,-1.93708139466051,-7.368654146687978,-7.142902385603504
1621787356880.019,-0.09054073684713529,0.05219682706551345,0.36533597744540547,-1.912,-7.384,-7.1
1621787356883.767,-0.07,0.061,0.358,-1.8029594554601953,-7.379683811778633,-7.017538088191772
1621787356888.875,-0.037,0.066,0.356,-1.6543569103284994,-7.373801627700503,-6.905157413435927
1621787356893.984,0.0,0.101,0.37,-1.5057259544243857,-7.3679183190292985,-6.792755253033442
1621787356896.518,0.018352367754575428,0.11736832799732404,0.3749600993931285,-1.432,-7.365,-6.737
1621787356899.093,0.037,0.134,0.38,-1.3814373224431817,-7.342059525923296,-6.692679628314394
1621787356904.201,0.066,0.182,0.377,-1.2811365411931819,-7.296552689985796,-6.604761659564394
1621787356909.311,0.094,0.232,0.38,-1.1807926136363638,-7.251026278409091,-6.516805871212122
1621787356913.018,0.10560967217815158,0.2602985759342445,0.38435362706680687,-1.108,-7.218,-6.453
1621787356914.42,0.11,0.271,0.386,-1.1013746153846156,-7.232100177514793,-6.413842278106509
1621787356919.53,0.122,0.325,0.394,-1.0772234615384617,-7.283498786982249,-6.27110276627219
1621787356924.64,0.14,0.353,0.405,-1.0530734615384616,-7.334894940828403,-6.128370073964497
1621787356929.522,0.15624141225932828,0.3807059385600306,0.40786613157517554,-1.03,-7.384,-5.992
1621787356929.75,0.157,0.382,0.408,-1.037169844251505,-7.384276294576166,-5.986446479019065
1621787356934.86,0.19,0.405,0.419,-1.197846514517298,-7.39046807377716,-5.861991717079087
1621787356939.97,0.225,0.424,0.408,-1.3585155082903164,-7.39665955715955,-5.737542901093049
1621787356945.081,0.267,0.431,0.417,-1.519222884527208,-7.40285251963496,-5.613064355337307
1621787356946.028,0.27570894239036975,0.431,0.4140352536543422,-1.549,-7.404,-5.59
1621787356950.192,0.314,0.431,0.401,-1.6357733538425132,-7.22591282612554,-5.493388969413713
1621787356955.302,0.358,0.433,0.398,-1.742267230669112,-7.007352718452346,-5.3748216588771225
1621787356960.413,0.393,0.445,0.389,-1.848781458912619,-6.788750843045613,-5.256231689640892
1621787356962.535,0.4050396961880195,0.4429241903124104,0.38692419031241043,-1.893,-6.698,-5.207
1621787356965.524,0.422,0.44,0.384,-1.9230548350364531,-6.4209885686399195,-5.221303204625782
1621787356970.636,0.435,0.443,0.391,-1.9744571213084694,-5.94722050842194,-5.24576573845403
1621787356975.748,0.428,0.44,0.391,-2.0258594075804854,-5.47345244820396,-5.270228272282279
1621787356979.044,0.4151023215821152,0.4116251074806535,0.3987386070507309,-2.059,-5.168,-5.286
1621787356980.859,0.408,0.396,0.403,-1.91454375120155,-4.885573741884918,-5.487623105248369
1621787356985.971,0.38,0.38,0.379,-1.507660593602579,-4.090076913976428,-6.055525472856065
1621787356991.083,0.368,0.419,0.316,-1.1007774360036084,-3.2945800860679375,-6.623427840463761
1621787356995.553,0.3408988683569689,0.47407649333906315,0.30201231915198395,-0.745,-2.599,-7.12
1621787356996.196,0.337,0.482,0.3,-0.6789484571141307,-2.5863816627977467,-7.155128827643311
1621787357001.308,0.236,0.552,0.354,-0.15387129064214222,-2.4860721097689,-7.434385669717446
1621787357006.42,0.099,0.578,0.421,0.3711807993139443,-2.385767347300874,-7.713629175106827
1621787357011.534,-0.021,0.592,0.44,0.8964585779131488,-2.2854194697854595,-7.9929927106589975
1621787357012.065,-0.030452457137399115,0.595012321505325,0.44342781412674914,0.951,-2.275,-8.022
1621787357016.646,-0.112,0.621,0.473,1.5196060606060606,-2.8108765410199554,-8.166231781226903
1621787357021.76,-0.187,0.63,0.525,2.154363636363636,-3.409096851441242,-8.327243458980044
1621787357026.872,-0.295,0.555,0.599,2.7888787878787875,-4.0070886917960085,-8.488193643754618
1621787357028.581,-0.33109108702916884,0.5189089129708312,0.6130354227335657,3.001,-4.207,-8.542
1621787357031.986,-0.403,0.447,0.641,2.8108689397187763,-4.69635033193855,-8.537875681989561
1621787357037.1,-0.447,0.375,0.644,2.5253110907397276,-5.431305620037556,-8.531681368562683
1621787357042.214,-0.421,0.312,0.613,2.2397532417606794,-6.166260908136561,-8.525487055135807
1621787357045.093,-0.3725844552659219,0.27991062732741334,0.5803476558770171,2.079,-6.58,-8.522
1621787357047.328,-0.335,0.255,0.555,1.8826330923552286,-6.715467453171893,-8.68263922768735
1621787357052.442,-0.213,0.227,0.49,1.4332888041276741,-7.0254561730311496,-9.050228249138836
1621787357057.557,-0.072,0.192,0.431,0.9838587099540221,-7.335504087757426,-9.41788746470336
1621787357061.607,0.03488788659793815,0.1674553741886216,0.39616246659030163,0.628,-7.581,-9.709
1621787357062.672,0.063,0.161,0.387,0.5546061492978567,-7.557588780487805,-9.652052047302291
1621787357067.786,0.147,0.126,0.332,0.20225510716925355,-7.445195609756098,-9.378654885439763
1621787357072.901,0.182,0.093,0.272,-0.15018004434589793,-7.332775609756098,-9.105192461197339
1621787357078.016,0.157,0.106,0.225,-0.5026320177383591,-7.220350243902439,-8.831716984478936
1621787357078.123,0.1554320557491289,0.1074006968641115,0.22410104529616726,-0.51,-7.218,-8.826
1621787357083.131,0.082,0.173,0.182,-0.5397070193586523,-7.247707019358653,-8.650486079503473
1621787357088.247,-0.007,0.25,0.145,-0.5700541451160042,-7.278054145116004,-8.471190305896261
1621787357093.362,-0.115,0.332,0.117,-0.6003954780552682,-7.308395478055268,-8.29192875720408
1621787357094.644,-0.13779884536475978,0.3563020659382604,0.10647745598549549,-0.608,-7.316,-8.247
1621787357098.479,-0.206,0.429,0.075,-0.2461575696681344,-7.288612311238512,-8.502076863973521
1621787357103.594,-0.269,0.534,0.042,0.23646025296255802,-7.252083188037472,-8.842293019888295
1621787357108.711,-0.304,0.641,0.021,0.7192623599988178,-7.215540116433701,-9.182639085079346
1621787357111.167,-0.3030396639778531,0.686135793040905,0.018599159944632716,0.951,-7.198,-9.346
1621787357113.826,-0.302,0.735,0.016,1.1450855572302507,-7.185447202766203,-9.356943464255105
1621787357118.943,-0.271,0.819,0.021,1.518608032627006,-7.161289032715667,-9.37800443301711
1621787357124.061,-0.222,0.888,0.026,1.8921839702101249,-7.137127404911783,-9.399068416230753
1621787357127.689,-0.17590598902409926,0.9262934860415175,0.021036029587210688,2.157,-7.12,-9.414
1621787357129.177,-0.157,0.942,0.019,2.1093588906291556,-7.0149013711989125,-9.362846597121663
1621787357134.294,-0.106,0.976,0.009,1.9455344425071663,-6.653496586778569,-9.186944354147581
1621787357139.411,-0.066,0.991,-0.009,1.7817099943851766,-6.292091802358226,-9.011042111173499
1621787357144.212,-0.03223068116771609,0.991,-0.011814109902690327,1.628,-5.953,-8.846
1621787357144.529,-0.03,0.991,-0.012,1.6106925360788193,-5.934925021049056,-8.82247566433773
1621787357149.647,-0.023,0.979,-0.028,1.3313881741236946,-5.6432346563464755,-8.442844680128214
1621787357154.764,-0.031,0.967,-0.042,1.0521371068996588,-5.351599949777692,-8.063286134211731
1621787357159.883,-0.051,0.962,-0.052,0.7727661265306726,-5.059840012407864,-7.683564602135926
1621787357160.74,-0.058033732525406743,0.9608277112457655,-0.054679517152535904,0.726,-5.011,-7.62
1621787357165.0,-0.093,0.955,-0.068,0.5971509208252721,-4.967964407555641,-7.283703903353961
1621787357170.119,-0.15,0.953,-0.075,0.44232378786312415,-4.9162521451462835,-6.879605086322754
1621787357175.238,-0.213,0.958,-0.073,0.2874892705764203,-4.864537416372524,-6.475486996204458
1621787357177.271,-0.2364361971091924,0.958,-0.07578056575871774,0.226,-4.844,-6.315
1621787357180.356,-0.272,0.958,-0.08,0.08863391577921215,-4.860610844423438,-6.207122830598349
1621787357185.475,-0.332,0.963,-0.087,-0.13930942498855295,-4.888174645141279,-6.028112978745403
1621787357190.594,-0.391,0.97,-0.099,-0.36724189474617075,-4.915737131294034,-5.849111664180317
1621787357193.8,-0.42168955978442313,0.9668684122668956,-0.11340530357228025,-0.51,-4.933,-5.737
1621787357195.713,-0.44,0.965,-0.122,-0.5440134075572554,-4.953361767789377,-5.750651639767878
1621787357200.833,-0.473,0.965,-0.148,-0.6350573365031082,-5.007864255865806,-5.787193080637302
1621787357205.952,-0.48,0.958,-0.183,-0.7260795593815986,-5.062353749833882,-5.8237258095477165
1621787357210.334,-0.46801802403204273,0.947729734884608,-0.2146666507724585,-0.804,-5.109,-5.855
1621787357211.072,-0.466,0.946,-0.22,-0.7676697277505463,-5.125201337624756,-5.868568062363432
1621787357216.191,-0.452,0.916,-0.257,-0.5156893049075769,-5.237570985649324,-5.96267377310577
1621787357221.312,-0.436,0.883,-0.29,-0.26360072048662375,-5.3499888678911,-6.056819878344062
1621787357226.433,-0.422,0.819,-0.318,-0.011512136065670586,-5.462406750132877,-6.150965983582354
1621787357226.87,-0.4211464403223499,0.8146468456439845,-0.3186828477421201,0.01,-5.472,-6.159
1621787357231.553,-0.412,0.768,-0.326,0.1903838045323688,-5.658047346275929,-6.3393838045323685
1621787357236.674,-0.391,0.719,-0.323,0.38764832066140104,-5.8615054107920574,-6.536648320661401
1621787357241.794,-0.368,0.637,-0.323,0.5848658153096626,-6.06491497748579,-6.733865815309663
1621787357243.407,-0.3604405034324943,0.61054176201373,-0.32237004195270785,0.647,-6.129,-6.796
1621787357246.915,-0.344,0.553,-0.321,0.49513114076523385,-6.2246604127302785,-7.001956232286254
1621787357252.037,-0.29,0.431,-0.323,0.27338928908833254,-6.364333003660841,-7.302670391473784
1621787357257.158,-0.208,0.272,-0.326,0.051700283419933935,-6.503972307510629,-7.603312883797828
1621787357259.946,-0.14812392755004766,0.17619828408007626,-0.33307626310772165,-0.069,-6.58,-7.767
1621787357262.28,-0.098,0.096,-0.339,-0.3290832546055739,-6.477688356164384,-7.791837033538026
1621787357267.402,0.047,-0.11,-0.377,-0.899851735947095,-6.2531592465753425,-7.846343410486537
1621787357272.523,0.222,-0.323,-0.436,-1.4704841904818138,-6.028683647260275,-7.900836797354747
1621787357276.485,0.35966498284407167,-0.4591181852840259,-0.4970985036218071,-1.912,-5.855,-7.943
1621787357277.646,0.4,-0.499,-0.515,-1.870030287375832,-5.699403256040502,-7.95128164897935
1621787357282.767,0.583,-0.656,-0.574,-1.684886924178241,-5.013010553349766,-7.9878149547608155
1621787357287.89,0.749,-0.78,-0.593,-1.4996817759147467,-4.326388791309354,-8.024360452244247
1621787357293.013,0.878,-0.869,-0.585,-1.3144678012132665,-3.639734306504701,-8.06090769139939
1621787357293.026,0.8782147283126788,-0.8691945185891325,-0.5848661105815062,-1.314,-3.638,-8.061
1621787357298.135,0.963,-0.946,-0.532,-1.6289935807570282,-3.017277355567033,-7.69443394082491
1621787357303.259,0.979,-1.012,-0.503,-1.9449053346122631,-2.394745370028776,-7.326799380211023
1621787357308.381,0.923,-1.093,-0.536,-2.260696672323471,-1.7724506751272782,-6.959304950933372
1621787357309.57,0.8988669652642112,-1.1115638728736836,-0.5622214704340782,-2.334,-1.628,-6.874
1621787357313.505,0.819,-1.173,-0.649,-1.9420625664030222,-2.3509913823633575,-6.039230344705466
1621787357318.629,0.735,-1.255,-0.768,-1.4316708771101405,-3.2924906150395463,-4.952170375398418
1621787357323.752,0.717,-1.251,-0.843,-0.9213764608664856,-4.233810411993861,-3.8653175835202456
1621787357326.115,0.7386749094720793,-1.1730625595578426,-0.8227085953878407,-0.686,-4.668,-3.364
1621787357328.876,0.764,-1.082,-0.799,0.05675529984509842,-4.633631717931696,-3.8433207494283397
1621787357334.0,0.806,-0.761,-0.649,1.4352103562735117,-4.5698487570996535,-4.732876314818913
1621787357339.124,0.752,-0.372,-0.457,2.813665412701925,-4.5060657962676105,-5.622431880209486
1621787357342.664,0.6221162569087098,-0.17510177244139505,-0.3547510958643034,3.766,-4.462,-6.237
1621787357344.248,0.564,-0.087,-0.309,3.3707661257007966,-4.502394452640897,-6.338369017409265
1621787357349.373,0.264,-0.037,-0.276,2.0919822956624374,-4.633091177338448,-6.666349660666864
1621787357354.498,-0.019,-0.099,-0.368,0.8131984656240783,-4.763787902035999,-6.994330303924462
1621787357359.212,-0.17996131859756098,-0.14314939024390244,-0.4627372332317073,-0.363,-4.884,-7.296
1621787357359.623,-0.194,-0.147,-0.471,-0.2984400011800628,-4.9885032377974134,-7.324988656645966
1621787357364.748,-0.244,-0.166,-0.517,0.5063364211644271,-6.291194430103403,-7.686348443054593
1621787357369.873,-0.216,-0.197,-0.522,1.311112843508917,-7.593885622409394,-8.047708229463218
1621787357374.999,-0.134,-0.257,-0.499,2.11604261501925,-8.896825040933429,-8.409136872538461
1621787357375.763,-0.12071812848762342,-0.26505866361425096,-0.49094133638574905,2.236,-9.091,-8.463
1621787357380.118,-0.045,-0.311,-0.445,1.8563544766066995,-9.085660400514861,-8.661900080821384
1621787357385.146,0.0,-0.361,-0.386,1.4180318196785107,-9.079495524889992,-8.891541697847757
1621787357390.174,0.017,-0.438,-0.354,0.9797091627503218,-9.073330649265124,-9.121183314874129
1621787357392.075,0.023049140526366904,-0.46370884723705935,-0.354,0.814,-9.071,-9.208
1621787357395.202,0.033,-0.506,-0.354,0.2151929201942886,-8.868957984330592,-9.238238890810388
1621787357400.23,0.054,-0.565,-0.36,-0.7476765214514506,-8.544078587647935,-9.286862403945925
1621787357405.259,0.056,-0.63,-0.356,-1.710732973428172,-8.219136092272064,-9.335495360832494
1621787357408.31,0.03779164643030597,-0.6482083535696941,-0.35417916464303056,-2.295,-8.022,-9.365
1621787357410.286,0.026,-0.66,-0.353,-2.4835178050467683,-7.933643688531986,-9.329219344942706
1621787357415.314,-0.033,-0.705,-0.379,-2.9632563686125897,-7.708795272038257,-9.238165027519624
1621787357420.342,-0.11,-0.757,-0.405,-3.4429949321784115,-7.483946855544528,-9.147110710096545
1621787357424.545,-0.1492864773003156,-0.7895994173343045,-0.43843529983005586,-3.844,-7.296,-9.071
1621787357425.37,-0.157,-0.796,-0.445,-3.795160328987926,-7.279076367901124,-9.095445246365044
1621787357430.398,-0.19,-0.822,-0.464,-3.4975851263776745,-7.17596237989986,-9.244387673477979
1621787357435.426,-0.188,-0.853,-0.48,-3.1999954741606147,-7.072843384906852,-9.393337332912324
1621787357440.454,-0.173,-0.895,-0.473,-2.902405821943555,-6.969724389913844,-9.54228699234667
1621787357440.782,-0.17117403127124403,-0.8989127901330485,-0.4724130814800427,-2.883,-6.963,-9.552
1621787357445.482,-0.145,-0.955,-0.464,-2.5735132867132866,-6.914651748251749,-9.446907692307692
1621787357450.51,-0.101,-1.009,-0.466,-2.2424198962327995,-6.8629280848184075,-9.33447841191067
1621787357455.537,-0.03,-1.045,-0.473,-1.9113908113391984,-6.811214467253177,-9.222070967741935
1621787357457.016,-0.005864541832669327,-1.052947041103877,-0.47564901370129237,-1.814,-6.796,-9.189
1621787357460.562,0.052,-1.072,-0.482,-1.5420436155812904,-6.61185603850203,-8.93408184689427
1621787357465.589,0.133,-1.101,-0.489,-1.1564849601443825,-6.350791021206197,-8.572678673484734
1621787357470.615,0.194,-1.115,-0.49,-0.7710199278086931,-6.08978939690179,-8.211363257632726
1621787357473.249,0.20762313632169394,-1.1160479335632072,-0.4873801660919819,-0.569,-5.953,-8.022
1621787357475.642,0.22,-1.117,-0.485,-0.3651172206346819,-5.905235704617236,-7.702539419461574
1621787357480.668,0.218,-1.101,-0.463,0.06307405624906004,-5.804921913069634,-7.031613535870056
1621787357485.694,0.173,-1.091,-0.435,0.49128613325312087,-5.704603248608813,-6.360655060911416
1621787357489.482,0.11648591549295775,-1.0457887323943662,-0.40335211267605636,0.814,-5.629,-5.855
1621787357490.721,0.098,-1.031,-0.393,0.8918678660609525,-5.67091123379163,-5.745679623334036
1621787357495.746,0.009,-0.967,-0.337,1.207681518697915,-5.840893288005054,-5.302302024729986
1621787357500.773,-0.068,-0.895,-0.278,1.523602575288065,-6.010933150816811,-4.858773639399501
1621787357505.712,-0.16231693458307028,-0.8075603418969454,-0.21413957554271285,1.834,-6.178,-4.423
1621787357505.8,-0.164,-0.806,-0.213,1.8337882315779974,-6.183218191116526,-4.4248624761217155
1621787357510.825,-0.232,-0.723,-0.154,1.821714498443211,-6.480727358873697,-4.531049411127657
1621787357515.852,-0.265,-0.614,-0.094,1.8096354857632777,-6.778366620038206,-4.6372827790563
1621787357520.878,-0.264,-0.52,-0.035,1.7975594061639817,-7.075933607087526,-4.743490350916776
1621787357521.943,-0.25827789381648614,-0.49817122455918783,-0.023131927915674942,1.795,-7.139,-4.766
1621787357525.904,-0.237,-0.417,0.021,1.4310985648524235,-7.177318259770738,-5.139419983753046
1621787357530.931,-0.18,-0.335,0.059,0.9692685260402564,-7.225948250443783,-5.613330083942595
1621787357535.956,-0.093,-0.26,0.08,0.5075954959833919,-7.274561708337094,-6.087079068507988
1621787357538.172,-0.051119718309859154,-0.22693661971830986,0.08617183098591549,0.304,-7.296,-6.296
1621787357540.983,0.002,-0.185,0.094,0.037294924636721904,-7.199189521345407,-6.455676674990222
1621787357546.01,0.105,-0.115,0.094,-0.4397070910677216,-7.026043984476067,-6.74125840127561
1621787357551.035,0.213,-0.052,0.084,-0.9165006167453893,-6.8529741267787845,-7.0267153043112005
1621787357554.402,0.28868821329707156,-0.025207712107231318,0.06658501286970037,-1.236,-6.737,-7.218
1621787357556.062,0.326,-0.012,0.058,-1.2209665623777866,-6.733011536957372,-7.148764372311303
1621787357561.087,0.435,0.037,0.045,-1.175457191420234,-6.7209376222135315,-6.939173595860534
1621787357566.114,0.536,0.082,0.045,-1.12992792033934,-6.708858427845131,-6.729491170542403
1621787357570.633,0.6223356330774463,0.13865775920707413,0.05039597706734039,-1.089,-6.698,-6.541
1621787357571.139,0.632,0.145,0.051,-1.056585065736033,-6.668047354011854,-6.5150057161767805
1621787357576.166,0.702,0.211,0.059,-0.7344538343512139,-6.370385706549535,-6.256681247931647
1621787357581.192,0.761,0.276,0.054,-0.41240082433286196,-6.072796338638347,-5.998419507205392
1621787357586.218,0.813,0.335,0.054,-0.09033217004121663,-5.775192514816932,-5.74014522097536
1621787357586.863,0.815310113669484,0.3428287185465851,0.055155056834742054,-0.049,-5.737,-5.707
1621787357591.244,0.831,0.396,0.063,0.18120351932621448,-5.175929523236577,-5.834111204692435
1621787357596.27,0.834,0.445,0.089,0.44531407730485795,-4.532218092946308,-5.97994481876974
1621787357601.296,0.808,0.478,0.11,0.7094118062866597,-3.8885379305158674,-6.125771349075049
1621787357603.096,0.7918868923316013,0.4862355883638483,0.11930979554174154,0.804,-3.658,-6.178
1621787357606.323,0.763,0.501,0.136,0.9678184279397166,-3.3518344914718887,-6.52114394007761
1621787357611.348,0.695,0.518,0.173,1.222903227747195,-2.875098336491893,-7.055459916373372
1621787357616.374,0.585,0.52,0.251,1.4780499954877717,-2.3982463676563484,-7.58990569443191
1621787357619.328,0.515060186534538,0.4894380647041679,0.3238784610900612,1.628,-2.118,-7.904
1621787357621.4,0.466,0.468,0.375,1.6079566930910512,-2.3258376028520282,-8.085538741557484
1621787357626.426,0.37,0.382,0.49,1.5593374449074144,-2.8299913356097415,-8.525899065870426
1621787357631.453,0.311,0.264,0.571,1.5107111117796599,-3.3342185351765217,-8.966323560823719
1621787357635.558,0.25953301268036727,0.1324732546276053,0.6077621337997376,1.471,-3.746,-9.326
1621787357636.478,0.248,0.103,0.616,1.4242925354273852,-3.9005200830399858,-9.304346782200561
1621787357641.504,0.166,-0.054,0.613,1.1691121039805037,-4.744721364744111,-9.18604711616572
1621787357646.531,0.126,-0.15,0.609,0.9138696934139664,-5.5891276890212716,-9.067718717092397
1621787357651.556,0.147,-0.187,0.635,0.6587388452628096,-6.433164936666968,-8.949442037488343
1621787357651.787,0.14962148511485598,-0.18842571997474625,0.6358278374046914,0.647,-6.472,-8.944
1621787357656.583,0.204,-0.218,0.653,0.328411906302186,-6.454858896628504,-9.088812769862644
1621787357661.608,0.272,-0.229,0.632,-0.005388752651612094,-6.436899306443605,-9.240540342114368
1621787357666.634,0.344,-0.227,0.583,-0.33927050203854436,-6.418935353322602,-9.392304773653883
1621787357668.015,0.3582869911590401,-0.23222024676964928,0.5629432624113475,-0.431,-6.414,-9.434
1621787357671.66,0.396,-0.246,0.51,-0.5015241146914583,-6.37873794265427,-9.193903571321117
1621787357676.686,0.417,-0.248,0.41,-0.5987699250834913,-6.330115037458254,-8.862834235941872
1621787357681.712,0.384,-0.218,0.314,-0.6960110118241718,-6.281494494087914,-8.53178098203809
1621787357684.244,0.33562920857017925,-0.17668328232036146,0.27016397026672495,-0.745,-6.257,-8.365
1621787357686.737,0.288,-0.136,0.227,-0.4935667273301548,-6.312601004707687,-8.23244843352836
1621787357691.764,0.152,-0.01,0.175,0.013386962864920915,-6.424706829906598,-7.965190623730955
1621787357696.789,-0.003,0.122,0.133,0.5201683035781431,-6.536774542391745,-7.698023673800893
1621787357700.476,-0.12624570096181872,0.22617196152725155,0.1073238122996211,0.892,-6.619,-7.502
