time,gyro_x,gyro_y,gyro_z,acc_x,acc_y,acc_z
1621785388199.395,,,,0.785,-2.157,-8.963
1621785388217.078,,,,0.647,-2.354,-8.924
1621785388232.258,0.63,0.016,0.618,0.5634434632367058,-2.613195787510627,-8.890747908839097
1621785388234.882,0.6385410798640236,0.014101982252439187,0.6189490088737803,0.549,-2.658,-8.885
1621785388237.788,0.648,0.012,0.62,0.5681324851522912,-2.7040476761292433,-8.881757205906391
1621785388243.327,0.66,0.005,0.618,0.6045988121832944,-2.791814090339454,-8.875576472511305
1621785388248.879,0.691,0.0,0.616,0.6411519370130224,-2.8797894077262574,-8.869381027624911
1621785388252.805,0.703705557018699,-0.0014117285576332192,0.6174117285576333,0.667,-2.942,-8.865
1621785388254.441,0.709,-0.002,0.618,0.6945656833558864,-2.959772611637348,-8.870349918809202
1621785388260.016,0.73,0.002,0.627,0.7885053856562922,-3.02033899864682,-8.888581637347768
1621785388265.602,0.752,0.012,0.627,0.8826260893098782,-3.0810220838971585,-8.90684848443843
1621785388270.847,0.7698048854961832,0.015748396946564887,0.6382451908396947,0.971,-3.138,-8.924
1621785388271.199,0.771,0.016,0.639,0.975555439049309,-3.1391437059740817,-8.928749287519492
1621785388276.808,0.792,0.017,0.653,1.0481360300048395,-3.157366067107598,-9.004418414260364
1621785388282.427,0.819,0.021,0.661,1.120842985427757,-3.1756201537882456,-9.080219282680002
1621785388288.059,0.841,0.021,0.674,1.1937205328816476,-3.19391706995752,-9.156198002365974
1621785388289.008,0.8453717610416577,0.01948669810096466,0.6751770125881387,1.206,-3.197,-9.169
1621785388293.703,0.867,0.012,0.681,1.2388739899833054,-3.2147211352253757,-9.2093220033389
1621785388299.357,0.899,0.012,0.688,1.2784646677796327,-3.2360629849749585,-9.257882444073456
1621785388305.022,0.927,0.014,0.693,1.3181322737896495,-3.2574463038397328,-9.306537242070117
1621785388307.288,0.9381768804025287,0.015197522900270934,0.6937983486001805,1.334,-3.266,-9.326
1621785388310.699,0.955,0.017,0.695,1.3302708199871878,-3.3025459641255606,-9.322457278987828
1621785388316.388,0.981,0.026,0.705,1.3240509822763187,-3.363500373692078,-9.316548433162502
1621785388322.089,1.007,0.028,0.698,1.3178177984198165,-3.4245855754858,-9.310626908498826
1621785388325.581,1.0221194503171247,0.035559725158562365,0.6992599541930937,1.314,-3.462,-9.307
1621785388327.632,1.031,0.04,0.7,1.2949021398818437,-3.4989377773542785,-9.291218534752662
1621785388333.179,1.051,0.059,0.698,1.243253124064142,-3.598833778007678,-9.248538509705698
1621785388338.731,1.068,0.079,0.703,1.1915563692793554,-3.698822112112385,-9.205819035691922
1621785388343.516,1.092106123166125,0.08933119564262497,0.703,1.147,-3.785,-9.169
1621785388344.289,1.096,0.091,0.703,1.1377577732518669,-3.808213034623218,-9.167323503054991
1621785388349.849,1.117,0.103,0.698,1.071275627970129,-3.9751914460285134,-9.155263951120164
1621785388355.414,1.141,0.129,0.695,1.0047350984385608,-4.142316496945011,-9.143193808553972
1621785388360.984,1.169,0.148,0.695,0.9381361846571623,-4.309588187372709,-9.131113075356417
1621785388361.497,1.1717625180707059,0.14984167871380383,0.695,0.932,-4.325,-9.13
1621785388366.557,1.199,0.168,0.695,0.8907352702153597,-4.459741974806989,-9.151895570906136
1621785388372.136,1.225,0.19,0.691,0.8452355546525803,-4.608312474603819,-9.176038277123121
1621785388377.719,1.258,0.211,0.688,0.799703982121089,-4.756986997155628,-9.20019788703779
1621785388379.522,1.2699425262237762,0.21680987762237763,0.6860633741258741,0.785,-4.805,-9.208
1621785388383.305,1.295,0.229,0.682,0.8034217565760143,-4.88915393344952,-9.187484861994893
1621785388388.896,1.328,0.248,0.682,0.8306483875761629,-5.013530134154744,-9.157164295653818
1621785388394.492,1.368,0.267,0.686,0.8578987962550156,-5.138014955619503,-9.126817249625097
1621785388397.593,1.3884853107837156,0.28527068259088134,0.684892685903583,0.873,-5.207,-9.11
1621785388400.093,1.405,0.3,0.684,0.8946659703785561,-5.254471935096964,-9.08433203509292
1621785388405.697,1.443,0.328,0.686,0.9432324434322062,-5.360885098985216,-9.026794684851016
1621785388411.305,1.466,0.368,0.691,0.9918327695645729,-5.467372437772058,-8.969217228413944
1621785388415.709,1.4824768387629943,0.38996911835065895,0.6941384454786655,1.03,-5.551,-8.924
1621785388416.918,1.487,0.396,0.695,0.9993129368749328,-5.58035573717604,-8.932520486073772
1621785388422.536,1.51,0.422,0.688,0.8567160044090762,-5.7167662517475,-8.972113560597913
1621785388428.157,1.531,0.45,0.684,0.7140385122056134,-5.853253831057103,-9.011729003118614
1621785388433.783,1.564,0.459,0.675,0.5712370819442951,-5.989859971502312,-9.051378857941714
1621785388433.871,1.5644539699059017,0.4589530375959412,0.6748434586531373,0.569,-5.992,-9.052
1621785388439.413,1.593,0.456,0.665,0.2465801714078783,-6.171020641371263,-9.099495272200539
1621785388445.049,1.613,0.461,0.644,-0.08130801110529917,-6.353077535911158,-9.147796080956022
1621785388450.688,1.639,0.456,0.621,-0.40936663581861343,-6.535229066913451,-9.196121997344385
1621785388452.074,1.6446490006056935,0.4520702604482132,0.6151053906723198,-0.49,-6.58,-9.208
1621785388456.331,1.662,0.44,0.597,-0.8354464792123709,-6.7607704398309165,-9.226426922253733
1621785388461.978,1.684,0.424,0.567,-1.2936776579806302,-7.000560557012147,-9.250870043876077
1621785388467.63,1.705,0.393,0.541,-1.752305059125689,-7.2405580154101346,-9.275334300925678
1621785388470.325,1.7150042723977215,0.3720386673571552,0.5200386673571552,-1.971,-7.355,-9.287
1621785388473.287,1.726,0.349,0.497,-2.0789762371746123,-7.404212557872687,-9.242482061134906
1621785388478.948,1.752,0.305,0.461,-2.2853262752004695,-7.4982611509159565,-9.15740520887537
1621785388484.612,1.772,0.278,0.422,-2.491792005230223,-7.592362473148407,-9.072280657513776
1621785388488.623,1.7741226098191214,0.26172665805340223,0.38874577950043065,-2.638,-7.659,-9.012
1621785388490.281,1.775,0.255,0.375,-2.6344481741252834,-7.646523073209329,-8.876302037094158
1621785388495.956,1.752,0.227,0.34,-2.622290584306731,-7.60381564230826,-8.411819759411
1621785388501.634,1.705,0.195,0.297,-2.610126718253383,-7.561086164120858,-7.947097697372833
1621785388506.828,1.6346339581036382,0.16591536934950385,0.2491510915104741,-2.599,-7.522,-7.522
1621785388507.17,1.63,0.164,0.246,-2.5832442473044903,-7.522,-7.492362358400437
1621785388512.706,1.553,0.127,0.199,-2.3282282243755974,-7.522,-7.012659888085165
1621785388518.243,1.47,0.094,0.161,-2.073178463218234,-7.522,-6.532893953869251
1621785388523.781,1.379,0.068,0.134,-1.8180724716800873,-7.522,-6.053022246485602
1621785388524.716,1.363970458553792,0.06631128747795415,0.13264902998236333,-1.775,-7.522,-5.972
1621785388529.318,1.29,0.058,0.126,-1.474797344323594,-7.572419640542053,-5.681829823819207
1621785388534.856,1.192,0.058,0.131,-1.1135508276812642,-7.633091720457989,-5.332655812874435
1621785388540.394,1.098,0.07,0.138,-0.7522883851686069,-7.693766475155916,-4.983466408286366
1621785388542.606,1.0580669957686883,0.07479196050775741,0.14997990126939353,-0.608,-7.718,-4.844
1621785388545.933,0.998,0.082,0.168,-0.5369724124757824,-7.730643654323683,-4.800305018146097
1621785388551.471,0.902,0.091,0.183,-0.418751193822141,-7.751688269162551,-4.7275773051000085
1621785388557.01,0.838,0.11,0.201,-0.30050391573662233,-7.772737522853166,-4.654833560728027
1621785388560.5,0.7957853931593795,0.1232314439351199,0.20982096262341327,-0.226,-7.786,-4.609
1621785388562.549,0.771,0.131,0.215,-0.23264021279498023,-7.788289728549993,-4.638194039012413
1621785388568.089,0.728,0.134,0.232,-0.25059323421088525,-7.79448042558996,-4.717125426271996
1621785388573.629,0.682,0.147,0.244,-0.26854546446596644,-7.800670849815851,-4.796053335152093
1621785388578.398,0.6570358716728363,0.14355667195487395,0.2612166402256302,-0.284,-7.806,-4.864
1621785388579.169,0.653,0.143,0.264,-0.2848613001322769,-7.806861300132277,-4.86567953525794
1621785388584.709,0.623,0.134,0.281,-0.2910502243253194,-7.81305022432532,-4.877747937434373
1621785388590.249,0.579,0.136,0.302,-0.2972391485183619,-7.819239148518362,-4.889816339610806
1621785388595.791,0.541,0.145,0.323,-0.30343025459900996,-7.825430254599009,-4.901888996468069
1621785388596.301,0.5369501233697568,0.14592042650687345,0.3249328956644343,-0.304,-7.826,-4.903
1621785388601.332,0.497,0.155,0.344,-0.33438882516795015,-7.78463743241029,-4.999794035720138
1621785388606.874,0.443,0.164,0.372,-0.3678641651646731,-7.739073775192528,-5.106419192746737
1621785388612.416,0.382,0.162,0.396,-0.401339505161396,-7.693510117974767,-5.213044349773336
1621785388614.181,0.3639186207512618,0.15877118227701104,0.4018118719013801,-0.412,-7.679,-5.247
1621785388617.882,0.326,0.152,0.414,-0.5126431268412099,-7.726176465706818,-5.302353719762666
1621785388623.346,0.269,0.157,0.426,-0.6612178747769802,-7.79582087880171,-5.384069831127339
1621785388628.808,0.23,0.159,0.44,-0.8097461516119664,-7.865443508568109,-5.4657603833865815
1621785388631.833,0.21781384120171673,0.15623041845493563,0.4466469957081545,-0.892,-7.904,-5.511
1621785388634.269,0.208,0.154,0.452,-0.9029121641264172,-7.920299181859712,-5.538073217326301
1621785388639.73,0.187,0.157,0.468,-0.9273743095643506,-7.956837576311309,-5.5987641098052245
1621785388645.188,0.183,0.161,0.485,-0.9518233315337016,-7.99335636861996,-5.659422442792475
1621785388649.469,0.1720151243959191,0.1633539019151602,0.4959848756040809,-0.971,-8.022,-5.707
1621785388650.644,0.169,0.164,0.499,-0.9683991714238208,-8.00039311644405,-5.683459166989969
1621785388656.099,0.162,0.162,0.501,-0.9563250152413678,-7.90008474200521,-5.574172573851355
1621785388661.554,0.147,0.166,0.52,-0.9442513994346838,-7.799780856841989,-5.464890871806241
1621785388667.006,0.124,0.162,0.531,-0.9321837277614587,-7.6995263537105805,-5.355662971789614
1621785388667.089,0.12361929502396202,0.16187817440766786,0.5313197921798719,-0.932,-7.698,-5.354
1621785388672.457,0.099,0.154,0.552,-0.932,-7.527546320694533,-5.2045862202868
1621785388677.906,0.063,0.154,0.571,-0.932,-7.354518819515714,-5.0529163176434695
1621785388683.355,0.024,0.161,0.583,-0.932,-7.181491318336893,-4.901246415000139
1621785388684.693,0.012451741605773971,0.16124570762540907,0.5871770296319541,-0.932,-7.139,-4.864
1621785388688.801,-0.023,0.162,0.6,-0.9502160226515657,-7.063566983122363,-4.786231595602931
1621785388694.246,-0.065,0.171,0.618,-0.974361508994004,-6.963579905063291,-4.683148942371752
1621785388699.689,-0.122,0.185,0.639,-0.9984972518321119,-6.863633175105485,-4.580107886409061
1621785388702.283,-0.14439851984749943,0.1959609777977125,0.6456718995290424,-1.01,-6.816,-4.531
1621785388705.132,-0.169,0.208,0.653,-1.0592849700623759,-6.803192392648264,-4.543645485739688
1621785388710.572,-0.208,0.227,0.667,-1.153386744092355,-6.778738313212842,-4.567790019865802
1621785388716.011,-0.258,0.237,0.675,-1.2474716252448494,-6.754288623702819,-4.591930219635191
1621785388719.857,-0.27922092501122586,0.24124418500224518,0.6792441850022453,-1.314,-6.737,-4.609
1621785388721.448,-0.288,0.243,0.681,-1.3489351407336907,-6.74420594286674,-4.640286562066986
1621785388726.845,-0.316,0.244,0.684,-1.4674369392696684,-6.768648872590871,-4.746412193654037
1621785388732.241,-0.332,0.25,0.688,-1.585917295337803,-6.7930873794561,-4.852518622195474
1621785388737.3,-0.3385676899393281,0.25,0.688938241419904,-1.697,-6.816,-4.952
1621785388737.633,-0.339,0.25,0.689,-1.7018777819849384,-6.813742830297166,-4.958006366836355
1621785388743.023,-0.346,0.251,0.684,-1.7808270436282554,-6.777209446477905,-5.055222320389302
1621785388748.411,-0.34,0.251,0.681,-1.8597476965795785,-6.740689301190627,-5.152403045984265
1621785388753.798,-0.335,0.255,0.672,-1.938657621271404,-6.704174120352841,-5.249570561094984
1621785388754.709,-0.3329697079629966,0.25432323598766554,0.6699697079629966,-1.952,-6.698,-5.266
1621785388759.182,-0.323,0.251,0.66,-1.952,-6.672786080411184,-5.29378676852645
1621785388764.563,-0.312,0.25,0.644,-1.952,-6.642452583240883,-5.327215520510047
1621785388769.942,-0.297,0.251,0.628,-1.952,-6.612131472145375,-5.360630622533669
1621785388772.094,-0.28979591373439273,0.25260090805902385,0.6219965947786606,-1.952,-6.6,-5.374
1621785388775.319,-0.279,0.255,0.613,-1.919117583360288,-6.6,-5.346690874316171
1621785388780.694,-0.272,0.251,0.59,-1.8643152150983728,-6.6,-5.301177043047801
1621785388786.066,-0.26,0.262,0.578,-1.809545206519752,-6.6,-5.255690086770642
1621785388789.454,-0.25873813420621933,0.2676783960720131,0.5697978723404254,-1.775,-6.6,-5.227
1621785388791.436,-0.258,0.271,0.565,-1.729041291122127,-6.606745183641279,-5.2179683134294725
1621785388796.804,-0.25,0.286,0.56,-1.6045655419107705,-6.625014012505633,-5.193506661221271
1621785388802.17,-0.251,0.302,0.553,-1.4801350833708877,-6.643276194231635,-5.169053909418657
1621785388806.79,-0.24669262985387172,0.3157835844676105,0.5504155779123231,-1.373,-6.659,-5.148
1621785388807.533,-0.246,0.318,0.55,-1.365018079255394,-6.6564681004089685,-5.151390170638837
1621785388812.894,-0.25,0.326,0.548,-1.307418671555493,-6.638197320547172,-5.175854435199549
1621785388818.253,-0.244,0.335,0.541,-1.2498428712452405,-6.619934029050909,-5.200308672965732
1621785388823.61,-0.244,0.346,0.525,-1.1922854322380483,-6.601676561838951,-5.2247551121139475
1621785388824.102,-0.24372435020519836,0.34645941632466937,0.5247243502051984,-1.187,-6.6,-5.227
1621785388828.964,-0.241,0.351,0.522,-1.187,-6.621995242343146,-5.257454950936664
1621785388834.296,-0.241,0.361,0.515,-1.187,-6.646115458136867,-5.290852172804894
1621785388839.626,-0.239,0.37,0.504,-1.187,-6.670227942738201,-5.324238689945202
1621785388841.344,-0.23803227137290853,0.3712903048361219,0.5030322713729085,-1.187,-6.678,-5.335
1621785388844.952,-0.236,0.374,0.501,-1.2507787589261632,-6.710938372208577,-5.400876744417155
1621785388850.276,-0.237,0.375,0.494,-1.344893212566902,-6.759543534121723,-5.498087068243445
1621785388855.598,-0.232,0.382,0.478,-1.4389731398798962,-6.808130865003762,-5.5952617300075245
1621785388858.541,-0.232,0.38310662321567907,0.47634006517648136,-1.491,-6.835,-5.649
1621785388860.917,-0.232,0.384,0.475,-1.552025651234217,-6.845932032760778,-5.712793254464794
1621785388866.233,-0.222,0.377,0.456,-1.6885620805369128,-6.870390939597315,-5.8555218120805375
1621785388871.547,-0.206,0.368,0.442,-1.8250546155158685,-6.8948419832783525,-5.998204484700262
1621785388875.711,-0.1918900583720182,0.3601611435400101,0.42005120191202827,-1.932,-6.914,-6.11
1621785388876.859,-0.188,0.358,0.414,-1.947064933215618,-6.916611255090707,-6.132965653746476
1621785388882.167,-0.161,0.346,0.394,-2.0167250306154414,-6.928685671973343,-6.2391586022270955
1621785388887.472,-0.133,0.33,0.365,-2.0863434767749838,-6.940752869307664,-6.345288055705864
1621785388892.775,-0.098,0.311,0.339,-2.155936291402045,-6.952815623843021,-6.45137843533734
1621785388892.856,-0.09740367521761158,0.3107247731773592,0.33861774052411,-2.157,-6.953,-6.453
1621785388898.076,-0.059,0.293,0.314,-2.139314632059327,-6.956049201369082,-6.441108114660582
1621785388903.374,-0.024,0.283,0.29,-2.1213645750142613,-6.959144038790645,-6.429038248716486
1621785388908.669,-0.01,0.26,0.276,-2.103425270964062,-6.962237022247575,-6.416975613234455
1621785388909.975,-0.0070387453874538744,0.25654520295202954,0.2730387453874539,-2.099,-6.963,-6.414
1621785388913.962,0.002,0.246,0.264,-2.032517370435975,-6.94223875778527,-6.349850094280327
1621785388919.253,0.003,0.23,0.253,-1.944286412205017,-6.914685932232444,-6.264714959145191
1621785388924.54,0.005,0.218,0.246,-1.8561205931089653,-6.887153448374378,-6.179642677561282
1621785388927.066,0.004043940304024396,0.21035152243219518,0.24360985076006098,-1.814,-6.874,-6.139
1621785388929.824,0.003,0.202,0.241,-1.7839104721263586,-6.842292755574012,-6.111984133575817
1621785388935.106,-0.009,0.197,0.237,-1.7262857101943208,-6.781569888161757,-6.0602457720561915
1621785388940.379,-0.023,0.188,0.225,-1.6687594976587,-6.720950868500566,-6.008595893059156
1621785388944.115,-0.03292872370006488,0.18445402724997684,0.22358161089999073,-1.628,-6.678,-5.972
1621785388945.647,-0.037,0.183,0.223,-1.5997184113450744,-6.676288693680116,-5.9596605807461
1621785388950.913,-0.052,0.185,0.206,-1.5025018587894186,-6.6704061634299325,-5.917244441573727
1621785388956.176,-0.063,0.185,0.206,-1.4053438975728085,-6.664527178515552,-5.874853866138455
1621785388961.124,-0.07616710752239084,0.17653543087846302,0.1956544155181215,-1.314,-6.659,-5.835
1621785388961.437,-0.077,0.176,0.195,-1.3083964342199856,-6.657543810208483,-5.833009259525521
1621785388966.694,-0.094,0.182,0.188,-1.2142766355140187,-6.633085046728972,-5.799571962616822
1621785388971.948,-0.112,0.188,0.19,-1.1202136592379583,-6.608641049604601,-5.766154852624012
1621785388977.2,-0.131,0.194,0.192,-1.0261856506110711,-6.584206139468009,-5.73275016534867
1621785388978.104,-0.1346162109375,0.19537760416666666,0.19165559895833334,-1.01,-6.58,-5.727
1621785388982.45,-0.152,0.202,0.19,-0.9420543160441903,-6.58,-5.721872023852392
1621785388987.696,-0.173,0.211,0.202,-0.8600355049188356,-6.58,-5.715681924899535
1621785388992.94,-0.194,0.222,0.206,-0.7780510464228614,-6.58,-5.709494418597952
1621785388995.054,-0.20166533103480408,0.22522750780412804,0.21164813865722407,-0.745,-6.58,-5.707
1621785388998.18,-0.213,0.23,0.22,-0.7558989078527838,-6.563744001846695,-5.741543996075772
1621785389003.419,-0.227,0.241,0.229,-0.7741650484036184,-6.536499588821722,-5.7994383737538415
1621785389008.655,-0.23,0.246,0.236,-0.792420974420383,-6.509270411034005,-5.857300376552739
1621785389011.976,-0.23444335044330378,0.26059958002799816,0.23790429304713018,-0.804,-6.492,-5.894
1621785389013.887,-0.237,0.269,0.239,-0.8339781034557516,-6.47650188613797,-5.9117606122360495
1621785389019.117,-0.243,0.276,0.239,-0.9160262613999335,-6.43408453655928,-5.960370275621847
1621785389024.344,-0.241,0.29,0.239,-0.9980284582809407,-6.3916909479830615,-6.00895270924569
1621785389028.868,-0.24273193756425834,0.2943298439106458,0.23726806243574164,-1.069,-6.355,-6.051
1621785389029.568,-0.243,0.295,0.237,-1.0865204620796478,-6.348481723823449,-6.058722288973494
1621785389034.789,-0.244,0.29,0.236,-1.217160309211193,-6.299878747520955,-6.116302885102564
1621785389040.009,-0.234,0.3,0.23,-1.347775720551832,-6.251284862259153,-6.173872710954125
1621785389045.225,-0.229,0.291,0.215,-1.4782933887288467,-6.202727341160122,-6.231399455695653
1621785389045.733,-0.22909741476208317,0.2918767328587486,0.21392843761708505,-1.491,-6.198,-6.237
1621785389050.438,-0.23,0.3,0.204,-1.447124418149389,-6.2471853656414496,-6.327545786749032
1621785389055.648,-0.234,0.314,0.208,-1.3985407259175477,-6.301648612984151,-6.427807673902641
1621785389060.857,-0.251,0.321,0.22,-1.3499661402821885,-6.356101651658183,-6.528050767825293
1621785389062.569,-0.24935530018761726,0.3186974202626642,0.22,-1.334,-6.374,-6.561
1621785389066.062,-0.246,0.314,0.22,-1.4337510349335465,-6.398522129421163,-6.693377935943061
1621785389071.264,-0.244,0.295,0.206,-1.5823073571065438,-6.435042225288692,-6.890524555160143
1621785389076.463,-0.236,0.271,0.178,-1.7307800130728448,-6.471541753213741,-7.087560142348755
1621785389079.377,-0.22702851505613755,0.2558606191572321,0.1622999013482407,-1.814,-6.492,-7.198
1621785389081.66,-0.22,0.244,0.15,-1.8767273401917843,-6.503973982509494,-7.278007974040714
1621785389086.854,-0.195,0.216,0.124,-2.0194419335593614,-6.531216681460355,-7.4600387352123745
1621785389092.044,-0.168,0.183,0.098,-2.1620424894140244,-6.5584376118621135,-7.6419240428968465
1621785389096.155,-0.13154851764705883,0.1584348705882353,0.07185002352941176,-2.275,-6.58,-7.786
1621785389097.232,-0.122,0.152,0.065,-2.2699845772594753,-6.588873440233236,-7.806190291545189
1621785389102.418,-0.086,0.115,0.042,-2.2458318658892127,-6.631605160349855,-7.903420437317783
1621785389107.601,-0.054,0.087,0.019,-2.221692798833819,-6.6743127405247815,-8.000595655976676
1621785389112.781,-0.037,0.052,0.01,-2.1975685131195335,-6.71699416909621,-8.09771137026239
1621785389112.903,-0.036740627210563544,0.05131619900966753,0.009929261966517331,-2.197,-6.718,-8.1
1621785389117.958,-0.026,0.023,0.007,-2.110821141179735,-6.694111825098944,-8.14445014823361
1621785389123.132,-0.026,-0.019,0.01,-2.02261111679056,-6.66966062535598,-8.189947950286975
1621785389128.303,-0.031,-0.059,0.005,-1.9344552013202283,-6.645224424225607,-8.235417843529566
1621785389129.62,-0.0325289061023994,-0.07199570187039486,0.0011777347440015116,-1.912,-6.639,-8.247
1621785389133.472,-0.037,-0.11,-0.01,-1.9731654767826314,-6.587067048014747,-8.158829388185037
1621785389138.638,-0.035,-0.162,-0.035,-2.0552001784826053,-6.517414942797788,-8.040575591772244
1621785389143.801,-0.014,-0.218,-0.059,-2.137188357667437,-6.447802337829534,-7.922388858003921
1621785389146.308,-0.006232223903177005,-0.2403323562783661,-0.07453555219364599,-2.177,-6.414,-7.865
1621785389148.965,0.002,-0.264,-0.091,-2.155176973404956,-6.334194625371408,-7.761937969292019
1621785389154.129,0.026,-0.305,-0.115,-2.1127641427965047,-6.179093690080649,-7.561637959046267
1621785389159.292,0.047,-0.328,-0.148,-2.070357327907964,-6.024014753882408,-7.361366358806223
1621785389162.988,0.05846296909753443,-0.3330150489801713,-0.16806019592068525,-2.04,-5.913,-7.218
1621785389164.451,0.063,-0.335,-0.176,-1.972793595871331,-5.874257484678767,-7.135243878837639
1621785389169.607,0.063,-0.337,-0.199,-1.735922426179515,-5.737708222150545,-6.843567222824971
1621785389174.761,0.054,-0.321,-0.211,-1.4991409846641057,-5.601210685276955,-6.552001055625604
1621785389179.64,0.0341097682354614,-0.30584553770320866,-0.2223658467225935,-1.275,-5.472,-6.276
1621785389179.912,0.033,-0.305,-0.223,-1.2618338033133591,-5.4683154300317245,-6.262833803313359
1621785389185.06,-0.005,-0.272,-0.234,-1.0128450828339794,-5.398635750793091,-6.01384508283398
1621785389190.205,-0.049,-0.239,-0.244,-0.7639980613323933,-5.32899572611914,-5.764998061332394
1621785389195.347,-0.094,-0.19,-0.246,-0.5153045470567501,-5.2593986605569265,-5.516304547056751
1621785389196.263,-0.10059245892297464,-0.18126944629119573,-0.2463563491309716,-0.471,-5.247,-5.472
1621785389200.488,-0.131,-0.141,-0.248,-0.2488018942847898,-5.334301203047327,-5.399715621966644
1621785389205.625,-0.169,-0.087,-0.237,0.021351251581021857,-5.440443847986587,-5.311830749772039
1621785389210.76,-0.204,-0.03,-0.216,0.2914016825013972,-5.546546136423802,-5.223979292290496
1621785389212.863,-0.22039434743303038,-0.006228196222105912,-0.20739296759765904,0.402,-5.59,-5.188
1621785389215.891,-0.244,0.028,-0.195,0.4915510270238411,-5.656340862876846,-5.29198884566646
1621785389221.021,-0.272,0.086,-0.178,0.6432599829074942,-5.768729334276368,-5.468157000559927
1621785389226.147,-0.295,0.138,-0.148,0.7948534170276722,-5.881032225267439,-5.644191008752541
1621785389229.432,-0.30269443385436523,0.1623657072054899,-0.12491669843690431,0.892,-5.953,-5.757
1621785389231.27,-0.307,0.176,-0.112,0.8964458222615884,-5.99545760259817,-5.857253291998819
1621785389236.391,-0.321,0.208,-0.08,0.9088320047239445,-6.11374564511367,-6.136561706524948
1621785389241.509,-0.323,0.229,-0.056,0.9212105107764984,-6.231960377915559,-6.4156970180100386
1621785389245.97,-0.310790177079853,0.22987213020858194,-0.042045916662689135,0.932,-6.335,-6.659
1621785389246.624,-0.309,0.23,-0.04,0.9222739964580874,-6.358642886658796,-6.681852154663519
1621785389251.747,-0.284,0.232,-0.03,0.8460924144037781,-6.543832260920897,-6.860847904368359
1621785389256.868,-0.253,0.22,0.0,0.7699435064935065,-6.728942207792207,-7.039766883116883
1621785389261.985,-0.213,0.216,0.017,0.6938490554899646,-6.913919775678867,-7.218557910271547
1621785389262.513,-0.20835630757481743,0.21548403417497972,0.01906386330008114,0.686,-6.933,-7.237
1621785389267.1,-0.168,0.211,0.037,0.5743557808850919,-6.957717252490614,-7.354198657876844
1621785389272.213,-0.117,0.209,0.045,0.4499184379341946,-6.9852668134921805,-7.484826913412363
1621785389277.322,-0.063,0.202,0.058,0.32557022496822063,-7.012796641735892,-7.61536160463535
1621785389279.03,-0.044939764795869586,0.202,0.059003346400229466,0.284,-7.022,-7.659
1621785389282.429,-0.009,0.202,0.061,0.2557581402235877,-6.959331931591027,-7.71754516917154
1621785389287.533,0.038,0.208,0.058,0.2133486932701562,-6.865226297475383,-7.805459643147997
1621785389292.635,0.082,0.204,0.066,0.17095547493892055,-6.771156674317021,-7.893340475309099
1621785389295.518,0.09952832176203016,0.19891113239166866,0.066,0.147,-6.718,-7.943
1621785389297.734,0.113,0.195,0.066,0.15225044499822,-6.679631363474546,-7.929806574107037
1621785389302.83,0.138,0.19,0.073,0.16432600569597722,-6.5913868814524745,-7.899462857481903
1621785389307.924,0.157,0.19,0.068,0.17639635991456035,-6.503180446778213,-7.869132223804438
1621785389311.977,0.17212655860349127,0.17885411471321694,0.07357294264339152,0.186,-6.433,-7.845
1621785389313.015,0.176,0.176,0.075,0.1847999554267885,-6.4280735012257635,-7.824599242255404
1621785389318.103,0.188,0.162,0.068,0.17891660352128372,-6.403920793403165,-7.724582259861823
1621785389323.188,0.195,0.145,0.066,0.1730369214768591,-6.379783151326054,-7.624627665106605
1621785389328.272,0.202,0.129,0.065,0.1671583686204591,-6.3556501448629374,-7.524692266547805
1621785389328.409,0.20191911764705883,0.12819117647058823,0.0648921568627451,0.167,-6.355,-7.522
1621785389333.352,0.199,0.099,0.061,0.07840223555152037,-6.3667527646717375,-7.377049235715242
1621785389338.43,0.187,0.079,0.047,-0.012610996174855282,-6.3788259484721745,-7.228146635509846
1621785389343.504,0.176,0.058,0.038,-0.10355421435694409,-6.390889844761635,-7.079358581273163
1621785389344.812,0.17213289707934368,0.05387509021796661,0.034132897079343694,-0.127,-6.394,-7.041
1621785389348.578,0.161,0.042,0.023,-0.16310204233750744,-6.504375670840787,-7.0161654740608235
1621785389353.647,0.155,0.028,0.01,-0.21169761478831245,-6.652948121645796,-6.982736672629696
1621785389358.714,0.157,0.019,-0.005,-0.26027446332737025,-6.801463327370304,-6.9493207513416815
1621785389361.189,0.1579772486262412,0.015579629808155788,-0.010374867444326617,-0.284,-6.874,-6.933
1621785389363.779,0.159,0.012,-0.016,-0.35402326553773555,-6.919150748140847,-6.937752710330615
1621785389368.841,0.159,0.031,-0.024,-0.490875220261028,-7.007392393154735,-6.947041304542604
1621785389373.899,0.15,0.038,-0.051,-0.6276149687901322,-7.095561688020786,-6.956322282949556
1621785389377.538,0.14496273052042097,0.03584117022303756,-0.07834517717485757,-0.726,-7.159,-6.963
1621785389378.956,0.143,0.035,-0.089,-0.762574197890958,-7.193923580884002,-6.957005654027372
1621785389384.01,0.138,0.038,-0.131,-0.8929327499813028,-7.3183989679156385,-6.935640475656271
1621785389389.061,0.136,0.042,-0.164,-1.0232157355470795,-7.4428021987884225,-6.91428768229751
1621785389393.86,0.14931002128071194,0.04009856838846972,-0.19252147417295415,-1.147,-7.561,-6.894
1621785389394.109,0.15,0.04,-0.194,-1.1449082559184898,-7.561595459994007,-6.891602891818999
1621785389399.155,0.178,0.03,-0.222,-1.1024801318549595,-7.5736735391069825,-6.842980881030866
1621785389404.198,0.213,0.023,-0.251,-1.060078693437219,-7.585744021576266,-6.794389451603236
1621785389409.239,0.248,0.007,-0.278,-1.017693676955349,-7.597809829187893,-6.745816841474379
1621785389410.154,0.25337758030176805,0.003704063686013145,-0.281469406646302,-1.01,-7.6,-6.737
1621785389414.514,0.279,-0.012,-0.298,-0.8954573776452621,-7.500781674060068,-6.612327757981237
1621785389419.666,0.3,-0.023,-0.319,-0.7601010690131627,-7.383534259326594,-6.465001163551742
1621785389424.816,0.307,-0.056,-0.332,-0.6248024870918478,-7.266336848229219,-6.317737400916297
1621785389426.94,0.3098880352824015,-0.06672698819177693,-0.3348880352824015,-0.569,-7.218,-6.257
1621785389429.964,0.314,-0.082,-0.339,-0.4815088546255506,-7.116321101321586,-6.149864273127753
1621785389435.111,0.309,-0.101,-0.34,-0.3326036857562408,-6.943269148311307,-5.96752509544787
1621785389440.257,0.297,-0.115,-0.337,-0.18372676945668132,-6.770250029368576,-5.785220513950073
1621785389443.566,0.28027187277474486,-0.1297979586992642,-0.338930168525991,-0.088,-6.659,-5.668
1621785389445.4,0.271,-0.138,-0.34,-0.019772320444424854,-6.623230148582514,-5.621521273312465
1621785389450.542,0.234,-0.157,-0.337,0.1715231250826683,-6.522939332480931,-5.49120512029158
1621785389455.684,0.188,-0.155,-0.328,0.3628185706097614,-6.422648516379348,-5.3608889672706965
1621785389460.178,0.1486482493230082,-0.16024690009026557,-0.3113848163808257,0.53,-6.335,-5.247
1621785389460.823,0.143,-0.161,-0.309,0.5555365218542657,-6.330413531843526,-5.251936283524341
1621785389465.96,0.098,-0.161,-0.281,0.7589104644491196,-6.293886705015226,-5.291249054771748
1621785389471.096,0.059,-0.155,-0.255,0.9622457446338988,-6.257366822120548,-5.330554352463478
1621785389476.232,0.031,-0.15,-0.22,1.165581024818678,-6.2208469392258685,-5.369859650155209
1621785389476.773,0.02878663495838288,-0.1504215933412604,-0.21704884661117718,1.187,-6.217,-5.374
1621785389481.365,0.01,-0.154,-0.192,1.2872600129579457,-6.1873651342914355,-5.474536974319707
1621785389486.497,-0.012,-0.15,-0.164,1.3993109317940864,-6.154245111320533,-5.58689742608081
1621785389491.627,-0.04,-0.143,-0.127,1.5113138767817174,-6.121139268465073,-5.69920977146896
1621785389493.353,-0.04774001618354039,-0.13997129801513636,-0.11589475938883335,1.549,-6.11,-5.737
1621785389496.756,-0.063,-0.134,-0.094,1.579406685729446,-6.152117368746868,-5.855750434808242
1621785389501.883,-0.089,-0.129,-0.063,1.6252163134156767,-6.215569893582526,-6.034655602393657
1621785389507.009,-0.115,-0.113,-0.03,1.6710172154585385,-6.279010332222976,-6.213526692804292
1621785389509.917,-0.12691781017724416,-0.1033522489041357,-0.018082189822755862,1.697,-6.315,-6.315
1621785389512.133,-0.136,-0.096,-0.009,1.6309517027772016,-6.382393476392306,-6.431088962328463
1621785389517.217,-0.154,-0.066,0.002,1.4794269984291177,-6.537004223598803,-6.697414461009514
1621785389522.318,-0.152,-0.031,0.023,1.3273929428850884,-6.6921346957526895,-6.964635214440262
1621785389526.391,-0.14321484992101105,-0.006241849777394802,0.03657705012207382,1.206,-6.816,-7.178
1621785389527.418,-0.141,0.0,0.04,1.1589251226707384,-6.823295047215263,-7.182925715641075
1621785389532.517,-0.124,0.024,0.047,0.9251624293994694,-6.859520524185777,-7.207385653082705
1621785389537.614,-0.105,0.042,0.04,0.6915004669641401,-6.8957303912121795,-7.2318350504766
1621785389542.708,-0.07,0.044,0.031,0.45797281231006426,-6.931919444979765,-7.256270394473516
1621785389542.86,-0.06862624035281148,0.04394027131968745,0.031,0.451,-6.933,-7.257
1621785389547.801,-0.024,0.042,0.031,0.40683846450731825,-7.030335629249176,-7.136231719264911
1621785389552.893,0.024,0.035,0.037,0.36132620312917496,-7.1306483686132465,-7.011769616720601
1621785389557.982,0.065,0.044,0.033,0.31584230917673606,-7.230898583855357,-6.887385090401686
1621785389559.307,0.06942680293651936,0.04894760328199223,0.03404160069094573,0.304,-7.257,-6.855
1621785389563.07,0.082,0.063,0.037,0.2320725813642443,-7.10650218457423,-6.8593522960321005
1621785389568.157,0.08,0.075,0.03,0.13484410759399612,-6.903065537226928,-6.865235547629663
1621785389573.241,0.063,0.084,0.024,0.037671630257096134,-6.69974605439144,-6.8711154109080095
1621785389575.735,0.04925826287471176,0.0830184473481937,0.02056456571867794,-0.01,-6.6,-6.874
1621785389578.323,0.035,0.082,0.017,-0.053208021541528434,-6.530457162409437,-6.830791978458471
1621785389583.405,0.009,0.077,0.003,-0.13805879290081674,-6.393890774929707,-6.745941207099183
1621785389588.484,-0.017,0.075,-0.003,-0.22285657329028993,-6.257409675835701,-6.661143426709709
1621785389592.146,-0.02998326601269475,0.07788517022504328,-0.009491633006347375,-0.284,-6.159,-6.6
1621785389593.561,-0.035,0.079,-0.012,-0.275541710099175,-6.147952437680555,-6.582220329392143
1621785389598.636,-0.051,0.073,-0.017,-0.24520656997349374,-6.108331030169461,-6.5184546266789765
1621785389603.71,-0.061,0.061,-0.024,-0.2148772671769366,-6.068717246924978,-6.454701194269887
1621785389608.541,-0.06480923047307378,0.05623846190865778,-0.02114307714519467,-0.186,-6.031,-6.394
1621785389608.783,-0.065,0.056,-0.021,-0.18774560382146588,-6.027523585609792,-6.392254396178534
1621785389613.854,-0.077,0.042,-0.017,-0.22433282579489477,-5.954659202866099,-6.355667174205105
1621785389618.909,-0.096,0.037,-0.017,-0.2608037916106882,-5.882026347216002,-6.319196208389312
1621785389623.969,-0.126,0.033,-0.019,-0.2973117480220928,-5.809319823854307,-6.282688251977907
1621785389624.896,-0.13076319598571842,0.03208400077197723,-0.01936639969120911,-0.304,-5.796,-6.276
1621785389629.029,-0.152,0.028,-0.021,-0.36117889167862266,-5.790939921090388,-6.305854465566714
1621785389634.085,-0.187,0.021,-0.019,-0.431125,-5.78475,-6.342375
1621785389639.14,-0.227,0.026,-0.03,-0.5010575980392157,-5.778561274509804,-6.378888480392157
1621785389641.232,-0.24272901168969183,0.027655685441020192,-0.03331137088204038,-0.53,-5.776,-6.394
1621785389644.194,-0.265,0.03,-0.038,-0.533448989362498,-5.845524364517721,-6.495472897559808
1621785389649.245,-0.286,0.03,-0.035,-0.5393301515582221,-5.964076212989422,-6.668502880055058
1621785389654.295,-0.293,0.037,-0.044,-0.5452098924280735,-6.0825994105237955,-6.841491045647003
1621785389657.55,-0.2884862407505924,0.041513759249407554,-0.04593446824974609,-0.549,-6.159,-6.953
1621785389659.343,-0.286,0.044,-0.047,-0.5781476583444414,-6.1978268807380665,-7.0176748041755905
1621785389664.389,-0.269,0.037,-0.052,-0.6601770432386287,-6.3070962123140974,-7.19968717518609
1621785389669.433,-0.234,0.019,-0.061,-0.7421786457787296,-6.416328535697704,-7.381637900822239
1621785389673.851,-0.19719814061592097,0.00235153980244044,-0.07326728646135967,-0.814,-6.512,-7.541
1621785389674.475,-0.192,0.0,-0.075,-0.8207466930621794,-6.510466660667686,-7.548513362728337
1621785389679.516,-0.154,-0.023,-0.093,-0.8752481478148715,-6.498079966405711,-7.609208164612016
1621785389684.554,-0.106,-0.047,-0.113,-0.9297152884009718,-6.485701070817961,-7.669864752991992
1621785389689.59,-0.063,-0.073,-0.127,-0.9841639521281382,-6.473326374516333,-7.730500764869972
1621785389690.13,-0.05849803655403112,-0.07546536093469723,-0.12839346487613323,-0.99,-6.472,-7.737
1621785389694.626,-0.021,-0.096,-0.14,-0.9413433212237667,-6.428596030864384,-7.615081844657279
1621785389699.658,0.0,-0.12,-0.152,-0.8868872609361396,-6.380018749812352,-7.478632284504759
1621785389704.689,0.012,-0.133,-0.157,-0.832441768997508,-6.331450896208005,-7.342209205272165
1621785389706.393,0.013693928068727856,-0.13808178420618356,-0.15869392806872787,-0.814,-6.315,-7.296
1621785389709.719,0.017,-0.148,-0.162,-0.7517561884722326,-6.2830590967160145,-7.201610535808221
1621785389714.747,0.009,-0.162,-0.164,-0.6576571428571428,-6.234771428571428,-7.058914285714286
1621785389719.772,-0.007,-0.162,-0.169,-0.5636174945517396,-6.186514240625235,-6.916308108514316
1621785389722.637,-0.017837221736171867,-0.16142961990862253,-0.16500733936035775,-0.51,-6.159,-6.835
1621785389724.795,-0.026,-0.161,-0.162,-0.4747435164140464,-6.166716513388623,-6.811584373165555
1621785389729.818,-0.052,-0.162,-0.161,-0.39267516594668633,-6.184678642924876,-6.7570786007796855
1621785389734.838,-0.075,-0.157,-0.161,-0.31066265785631497,-6.202628550355976,-6.702609916161175
1621785389738.857,-0.08781463462099834,-0.1553981706723752,-0.1577963413447504,-0.245,-6.217,-6.659
1621785389739.856,-0.091,-0.155,-0.157,-0.23895732626122596,-6.227913808691459,-6.66868060996926
1621785389744.872,-0.108,-0.152,-0.154,-0.2086169610029534,-6.2827122234946655,-6.717287113495268
1621785389749.887,-0.113,-0.145,-0.154,-0.17828397926586703,-6.337497302754506,-6.765881788318968
1621785389754.9,-0.119,-0.141,-0.155,-0.14796281116267856,-6.392261045144958,-6.814457537218974
1621785389755.059,-0.11893645533843379,-0.1408411383460845,-0.155,-0.147,-6.394,-6.816
1621785389759.91,-0.117,-0.136,-0.155,-0.1176226218675035,-6.429372761424843,-6.877752447911166
1621785389764.92,-0.106,-0.124,-0.15,-0.08728122689760262,-6.465906277817172,-6.941531298562182
1621785389769.927,-0.101,-0.12,-0.15,-0.05695757456888098,-6.502418430621143,-7.00527285345725
1621785389771.241,-0.09732448780487805,-0.1205250731707317,-0.14947492682926827,-0.049,-6.512,-7.022
1621785389774.932,-0.087,-0.122,-0.148,-0.040095777455599856,-6.507433732028512,-7.044374713060288
1621785389779.935,-0.077,-0.12,-0.141,-0.02802577926785067,-6.501243989368128,-7.07470445209617
1621785389784.938,-0.061,-0.117,-0.133,-0.01595637006161653,-6.495054548749547,-7.10503271112722
1621785389787.407,-0.055073256495409256,-0.11798779058409846,-0.1295427329556554,-0.01,-6.492,-7.12
1621785389789.937,-0.049,-0.119,-0.126,-0.019244005321883223,-6.476645550482296,-7.107622433552055
1621785389794.935,-0.038,-0.113,-0.115,-0.03750544283511233,-6.4463129932569325,-7.083170678237731
1621785389799.931,-0.035,-0.108,-0.106,-0.05575885216655076,-6.415993770977594,-7.058729672522754
1621785389803.555,-0.028470381231671553,-0.11452961876832846,-0.09729384164222873,-0.069,-6.394,-7.041
1621785389804.926,-0.026,-0.117,-0.094,-0.07393138739175195,-6.387283110276752,-7.030201962090475
1621785389809.918,-0.021,-0.113,-0.089,-0.09188581723490584,-6.362827938593836,-6.990887951916672
1621785389814.908,-0.021,-0.108,-0.082,-0.10983322230969539,-6.338382335129898,-6.951589323563253
1621785389819.681,-0.01717323219965745,-0.10608661609982872,-0.07338977244922926,-0.127,-6.315,-6.914
1621785389819.897,-0.017,-0.106,-0.073,-0.127,-6.315268283440697,-6.911893974990527
1621785389824.884,-0.017,-0.11,-0.07,-0.127,-6.321460629026147,-6.863284062144752
1621785389829.869,-0.03,-0.098,-0.063,-0.127,-6.327650246305419,-6.814695566502463
1621785389834.853,-0.033,-0.091,-0.056,-0.127,-6.333838954149299,-6.766114209928003
1621785389835.788,-0.0337509067738457,-0.09024909322615429,-0.054685913145770024,-0.127,-6.335,-6.757
1621785389839.834,-0.037,-0.087,-0.049,-0.12222174335316256,-6.335,-6.761778256646837
1621785389844.813,-0.04,-0.075,-0.042,-0.11634147747966493,-6.335,-6.7676585225203345
1621785389849.791,-0.047,-0.066,-0.038,-0.11046236493869127,-6.335,-6.773537635061309
1621785389851.876,-0.047,-0.066,-0.037581002845648116,-0.108,-6.335,-6.776
1621785389854.767,-0.047,-0.066,-0.037,-0.11861643190348119,-6.335,-6.786616431903481
1621785389859.741,-0.051,-0.054,-0.026,-0.1368809621491848,-6.335,-6.804880962149185
1621785389864.713,-0.054,-0.051,-0.028,-0.15513832034158426,-6.335,-6.8231383203415845
1621785389867.943,-0.048151900599155285,-0.04190295648757489,-0.023451478243787446,-0.167,-6.335,-6.835
1621785389869.684,-0.045,-0.037,-0.021,-0.17763356664637858,-6.335,-6.832938390139987
1621785389874.652,-0.044,-0.038,-0.024,-0.2079774802191114,-6.335,-6.827055386488132
1621785389879.618,-0.047,-0.028,-0.016,-0.23830797321972003,-6.335,-6.821174984783932
1621785389883.988,-0.04875999213411337,-0.020080035396489847,-0.014240007865886632,-0.265,-6.335,-6.816
1621785389884.584,-0.049,-0.019,-0.014,-0.26864356103876325,-6.333550011423349,-6.816706404691189
1621785389889.546,-0.045,-0.019,-0.01,-0.2989801995278349,-6.321477267534841,-6.822587997867641
1621785389894.507,-0.056,-0.01,-0.009,-0.32931236006397074,-6.309406305688828,-6.8284687228695455
1621785389899.466,-0.059,-0.007,-0.009,-0.3596310867412992,-6.2973406899703,-6.834346843347803
1621785389900.017,-0.0594445538703959,-0.0064443076620051215,-0.009,-0.363,-6.296,-6.835
1621785389904.424,-0.063,-0.002,-0.009,-0.3817228187919463,-6.296,-6.840506711409396
1621785389909.38,-0.073,0.0,-0.005,-0.40277730323367905,-6.296,-6.846699206833435
1621785389914.333,-0.07,-0.005,-0.009,-0.4238203782794387,-6.296,-6.852888346552777
1621785389916.023,-0.07307143913622245,-0.003976186954592516,-0.008317457969728343,-0.431,-6.296,-6.855
1621785389919.285,-0.079,-0.002,-0.007,-0.43508025530225525,-6.311912995678796,-6.867036753141654
1621785389924.236,-0.08,-0.003,-0.009,-0.4412734726909041,-6.336066543494526,-6.885306744438167
1621785389929.183,-0.075,-0.002,-0.007,-0.4474614985265151,-6.360199844253408,-6.90356142065322
1621785389932.012,-0.07900301056164248,-0.0008562826966735761,-0.0029969894383575163,-0.451,-6.374,-6.914
1621785389934.13,-0.082,0.0,0.0,-0.4418492960114962,-6.376652377967682,-6.9191721370369805
1621785389939.075,-0.079,-0.002,-0.002,-0.4204835888890588,-6.3828453365538955,-6.931248406280097
1621785389944.017,-0.077,-0.002,-0.005,-0.39913053980095703,-6.3890346261446505,-6.943317520982068
1621785389947.982,-0.07138284415456073,-0.00440735250518826,-0.005,-0.382,-6.394,-6.953
1621785389948.958,-0.07,-0.005,-0.005,-0.3796135361821967,-6.391613536182197,-6.954774550018367
1621785389953.897,-0.065,-0.005,-0.007,-0.3675379576343823,-6.3795379576343825,-6.963753826374434
1621785389958.834,-0.063,0.0,-0.007,-0.35546715440186116,-6.3674671544018615,-6.972729551855027
1621785389963.769,-0.051,-0.002,-0.009,-0.3434011264846333,-6.355401126484634,-6.981701726460145
1621785389963.933,-0.050933494977485276,-0.001933494977485279,-0.009,-0.343,-6.355,-6.982
1621785389968.703,-0.049,0.0,-0.009,-0.3253373377668133,-6.33134999463692,-6.973318352461654
1621785389973.635,-0.037,0.002,-0.007,-0.30707347420358255,-6.306894990882763,-6.964341199184812
1621785389978.564,-0.037,0.014,-0.005,-0.28882136344830756,-6.282455723939259,-6.95536982271188
1621785389979.866,-0.035150557344562794,0.012678969531830567,-0.005,-0.284,-6.276,-6.953
1621785389983.492,-0.03,0.009,-0.005,-0.2573418630338733,-6.258227908689249,-6.939557007854688
1621785389988.419,-0.033,0.009,-0.002,-0.221118602724595,-6.234079068483063,-6.921290577442317
1621785389993.343,-0.037,0.026,-0.003,-0.18491688144329899,-6.209944587628867,-6.903035008591066
1621785389995.78,-0.04046597222222222,0.029465972222222223,-0.0015145833333333333,-0.167,-6.198,-6.894
1621785389998.265,-0.044,0.033,0.0,-0.15167875026880895,-6.207224017695309,-6.8971267856594265
1621785390003.185,-0.049,0.037,0.005,-0.12134183281619614,-6.22548808024331,-6.903317993302817
1621785390008.104,-0.056,0.047,0.016,-0.09101244201407024,-6.243747611440509,-6.909507664895088
1621785390011.674,-0.06108247269116187,0.04990427010923535,0.01672606752730884,-0.069,-6.257,-6.914
1621785390013.021,-0.063,0.051,0.017,-0.07392104453740159,-6.265314868356299,-6.924775390624999
1621785390017.936,-0.066,0.051,0.026,-0.09187835260826772,-6.295656526820866,-6.964095703125
1621785390022.85,-0.066,0.056,0.031,-0.10983209276574804,-6.325992156742126,-7.003408203125
1621785390027.549,-0.066,0.060784240616455376,0.03674108873974646,-0.127,-6.355,-7.041
1621785390027.761,-0.066,0.061,0.037,-0.12726731545070988,-6.356563795386653,-7.042831110837363
1621785390032.67,-0.063,0.061,0.04,-0.13345961011363985,-6.392788719164794,-7.085248329278433
1621785390037.577,-0.056,0.075,0.042,-0.13964944103969695,-6.428999230082228,-7.127648671121924
1621785390042.484,-0.044,0.075,0.044,-0.14583927196575405,-6.465209740999661,-7.170049012965415
1621785390043.404,-0.040247324139991034,0.07725160551600538,0.04493816896500224,-0.147,-6.472,-7.178
1621785390047.388,-0.024,0.087,0.049,-0.15681253854693475,-6.462187461453065,-7.18303207104971
1621785390052.29,-0.009,0.08,0.044,-0.16888668743061552,-6.450113312569385,-7.189223942272111
1621785390057.19,0.005,0.082,0.045,-0.1809554243246577,-6.438044575675343,-7.195413038115209
1621785390059.238,0.011688792544974336,0.08367219813624359,0.0445819504659391,-0.186,-6.433,-7.198
1621785390062.089,0.021,0.086,0.044,-0.18960576774631796,-6.415331738043042,-7.187362985148362
1621785390066.985,0.035,0.08,0.04,-0.19579775835983573,-6.384990984036805,-7.1690966128384845
1621785390071.88,0.049,0.079,0.045,-0.20198820514403926,-6.354657794794208,-7.1508347948250846
1621785390075.052,0.0522414429697635,0.0744619798423311,0.0475931543758108,-0.206,-6.335,-7.139
1621785390076.773,0.054,0.072,0.049,-0.20382118847075187,-6.320075141024651,-7.119826458542617
1621785390081.664,0.056,0.073,0.045,-0.19762877675604668,-6.27765712077892,-7.065333235453211
1621785390086.554,0.054,0.073,0.049,-0.1914379105169616,-6.235249687041187,-7.010853612549262
1621785390090.849,0.04345316480991158,0.06860548533746316,0.050757805865014737,-0.186,-6.198,-6.963
1621785390091.441,0.042,0.068,0.051,-0.186,-6.197249744653193,-6.958198365780433
1621785390096.326,0.037,0.072,0.052,-0.186,-6.191056733417933,-6.918563093874772
1621785390101.209,0.031,0.066,0.049,-0.186,-6.184866198272927,-6.878943668946733
1621785390106.092,0.017,0.063,0.052,-0.186,-6.178675663127921,-6.8393242440186945
1621785390106.625,0.015689413648188915,0.06332764658795277,0.05243686211727036,-0.186,-6.178,-6.835
1621785390110.972,0.005,0.066,0.056,-0.186,-6.183517765003022,-6.840517765003022
1621785390115.85,0.0,0.066,0.054,-0.186,-6.189709871856454,-6.846709871856454
1621785390120.726,-0.005,0.075,0.058,-0.186,-6.1958991896121605,-6.8528991896121605
1621785390122.381,-0.007376452323717949,0.07330253405448718,0.055623547676282054,-0.186,-6.198,-6.855
1621785390125.601,-0.012,0.07,0.051,-0.19418404641494214,-6.218050913716609,-6.86707146846204
1621785390130.473,-0.014,0.068,0.054,-0.20656653532313612,-6.248388011541683,-6.885335639601625
1621785390135.344,-0.01,0.075,0.058,-0.2189471626694797,-6.2787205485402255,-6.9035970649374825
1621785390138.119,-0.0071503785789500075,0.07215037857895001,0.05401053001053001,-0.226,-6.296,-6.914
1621785390140.213,-0.005,0.07,0.051,-0.2233353837550678,-6.301196001677618,-6.908670767510135
1621785390145.08,0.0,0.068,0.052,-0.21714186743712816,-6.3132733584976,-6.896283734874256
1621785390149.945,0.003,0.063,0.052,-0.21095114714882643,-6.325345263059789,-6.883902294297653
1621785390153.836,0.004599859458916829,0.06539978918837525,0.052,-0.206,-6.335,-6.874
1621785390154.809,0.005,0.066,0.052,-0.20234272117941618,-6.326507674603051,-6.871582476711817
1621785390159.671,0.005,0.072,0.056,-0.1840710075735191,-6.2840801362300365,-6.859504564328258
1621785390164.53,0.005,0.068,0.056,-0.1658093868093246,-6.241676033777584,-6.84743332348413
1621785390169.388,0.0,0.07,0.056,-0.14755235370044942,-6.199282584016299,-6.835365115157924
1621785390169.535,-0.0003026646556058321,0.06993946706887884,0.05606053293112117,-0.147,-6.198,-6.835
1621785390174.244,-0.01,0.068,0.058,-0.147,-6.198,-6.7938543489769865
1621785390179.098,-0.028,0.068,0.058,-0.147,-6.198,-6.75144156208153
1621785390183.95,-0.042,0.065,0.059,-0.147,-6.198,-6.709045840989069
1621785390185.214,-0.04460593860090589,0.065,0.05873940613990941,-0.147,-6.198,-6.698
1621785390188.801,-0.052,0.065,0.058,-0.16509274991816184,-6.20693186388365,-6.720444170784556
1621785390193.65,-0.059,0.065,0.061,-0.1895509656903244,-6.21900617293573,-6.750784742248757
1621785390198.497,-0.068,0.065,0.059,-0.21400056117597543,-6.23107622640333,-6.781114620192983
1621785390200.876,-0.0689822085580364,0.06549110427901819,0.05998220855803639,-0.226,-6.237,-6.796
1621785390203.341,-0.07,0.066,0.061,-0.23214575334769175,-6.249291506695384,-6.822316431001655
1621785390208.185,-0.072,0.063,0.056,-0.24422239910103943,-6.273444798202079,-6.874029247432656
1621785390213.026,-0.063,0.061,0.054,-0.2562911321284765,-6.297582264256953,-6.925708181165527
1621785390216.519,-0.05939069673578528,0.06460930326421473,0.05039069673578528,-0.265,-6.315,-6.963
1621785390217.865,-0.058,0.066,0.049,-0.265,-6.311640095636955,-6.9765257688461055
1621785390222.704,-0.056,0.059,0.047,-0.265,-6.2995601637704715,-7.0251552381547695
1621785390227.539,-0.047,0.056,0.045,-0.265,-6.287490592574072,-7.073742999124891
1621785390232.142,-0.03843,0.054095555555555556,0.04214333333333334,-0.265,-6.276,-7.12
1621785390232.373,-0.038,0.054,0.042,-0.26442279170186805,-6.2754227917018675,-7.12028120404268
1621785390237.205,-0.037,0.047,0.04,-0.25234656904158453,-6.263346569041585,-7.126164492005382
1621785390242.036,-0.031,0.049,0.037,-0.2402733971651178,-6.251273397165118,-7.132046293688789
1621785390246.864,-0.03,0.052,0.035,-0.22820693701304798,-6.239206937013048,-7.137924825557746
1621785390247.747,-0.02926807305104467,0.04980421915313401,0.035,-0.226,-6.237,-7.139
1621785390251.69,-0.026,0.04,0.035,-0.2110753398909843,-6.222075339890984,-7.134193753524215
1621785390256.515,-0.016,0.037,0.037,-0.1928118069043293,-6.203811806904329,-7.1283122767997
1621785390261.338,-0.014,0.038,0.035,-0.17455566693816177,-6.1855556669381615,-7.122433180878391
1621785390263.334,-0.011101736972704715,0.0388280751506558,0.034171924849344205,-0.167,-6.178,-7.12
1621785390266.159,-0.007,0.04,0.033,-0.17044747612551162,-6.170923601637107,-7.123447476125512
1621785390270.979,-0.012,0.037,0.031,-0.17632972667827068,-6.158849508397234,-7.129329726678271
1621785390275.796,-0.01,0.037,0.03,-0.18220810399711468,-6.146783365479607,-7.1352081039971145
1621785390278.903,-0.00677356385945343,0.03570942554378137,0.026128276631344115,-0.186,-6.139,-7.139
1621785390280.611,-0.005,0.035,0.024,-0.186,-6.1336177855931675,-7.132519374489732
1621785390285.424,-0.002,0.031,0.024,-0.186,-6.11845126546505,-7.114257646172204
1621785390290.237,-0.002,0.033,0.023,-0.186,-6.103284745336934,-7.095995917854676
1621785390294.453,-0.00024663654363608683,0.02861659135909022,0.01773990963090826,-0.186,-6.09,-7.08
1621785390295.046,0.0,0.028,0.017,-0.186,-6.090763752417186,-7.075150172150864
1621785390299.854,-0.007,0.03,0.014,-0.186,-6.096956152624712,-7.035828430833084
1621785390304.661,-0.005,0.021,0.017,-0.186,-6.103146980678227,-6.996516672693257
1621785390309.465,-0.012,0.019,0.012,-0.186,-6.109334349992926,-6.957226877544924
1621785390309.982,-0.013183703553093073,0.019,0.012,-0.186,-6.11,-6.953
1621785390314.268,-0.023,0.019,0.012,-0.1915276207868264,-6.115251239747486,-6.909608176823413
1621785390319.069,-0.035,0.014,0.003,-0.19771927394090144,-6.121133310243856,-6.861003699563924
1621785390323.868,-0.044,0.016,0.01,-0.20390809338643912,-6.127012688717117,-6.812421466916453
1621785390325.49,-0.04738134256196244,0.010589851900860096,0.01,-0.206,-6.129,-6.796
1621785390328.665,-0.054,0.0,0.01,-0.206,-6.1351488392617926,-6.775913791744811
1621785390333.459,-0.072,0.005,0.005,-0.206,-6.144432853698129,-6.745586011252778
1621785390338.254,-0.082,0.007,0.007,-0.206,-6.153718759357615,-6.715252052765126
1621785390340.981,-0.08996881369751325,0.008138401956787607,0.004723196086424786,-0.206,-6.159,-6.698
1621785390343.045,-0.096,0.009,0.003,-0.206,-6.156331818397008,-6.692797045874166
1621785390347.834,-0.103,0.007,0.005,-0.206,-6.150140778614149,-6.68072451829759
1621785390352.623,-0.113,0.007,0.0,-0.206,-6.14394973883129,-6.668651990721015
1621785390356.452,-0.12900387774886474,0.008600387774886474,0.001600387774886474,-0.206,-6.139,-6.659
1621785390357.408,-0.133,0.009,0.002,-0.20723751738086207,-6.1402375173808625,-6.6553493237264565
1621785390362.192,-0.147,0.009,0.0,-0.2134298445202882,-6.146429844520288,-6.637081958665149
1621785390366.974,-0.164,0.014,0.0,-0.2196199595499937,-6.152619959549994,-6.618821119327518
1621785390371.756,-0.175,0.01,-0.003,-0.22580975856402477,-6.158809758564025,-6.600561212236126
1621785390371.903,-0.1753998978027593,0.009907715891670926,-0.002907715891670925,-0.226,-6.159,-6.6
1621785390376.534,-0.188,0.007,0.0,-0.2377017890757233,-6.149998623787905,-6.617702706550453
1621785390381.311,-0.199,0.009,0.007,-0.24977311482670803,-6.1407129885948395,-6.635964455763481
1621785390386.086,-0.216,0.009,0.012,-0.26183888827372387,-6.1314316244048275,-6.654217805337172
1621785390387.337,-0.2175725831202046,0.006641125319693094,0.013834680306905371,-0.265,-6.129,-6.659
1621785390390.859,-0.222,0.0,0.019,-0.27848181587784326,-6.140196762339225,-6.681393524678452
1621785390395.63,-0.232,-0.003,0.021,-0.296744788696699,-6.155364316036241,-6.711728632072483
1621785390400.4,-0.236,-0.007,0.026,-0.31500402331622634,-6.1705287651270355,-6.742057530254071
1621785390402.75,-0.23994386971217863,-0.011929837140223293,0.02698596742804466,-0.324,-6.178,-6.757
1621785390405.167,-0.244,-0.017,0.028,-0.32086003361984206,-6.187262900821466,-6.798604554537093
1621785390409.933,-0.244,-0.021,0.031,-0.31466827365282757,-6.205528592724159,-6.880645374100035
1621785390414.697,-0.251,-0.016,0.03,-0.3084793682007041,-6.223785863807923,-6.962648371340671
1621785390418.145,-0.2502759292489105,-0.016724070751089466,0.03,-0.304,-6.237,-7.022
1621785390419.459,-0.25,-0.017,0.03,-0.3057092225609756,-6.247084413109756,-7.040374142530488
1621785390424.219,-0.243,-0.016,0.03,-0.31190110518292685,-6.283616520579269,-7.1069368807164635
1621785390428.977,-0.237,-0.023,0.028,-0.31809044715447155,-6.320133638211383,-7.173472306910569
1621785390433.52,-0.22744959967152537,-0.021089919934305073,0.02608991993430507,-0.324,-6.355,-7.237
1621785390433.734,-0.227,-0.021,0.026,-0.32426463573631825,-6.3569081629408215,-7.237557127865934
1621785390438.489,-0.208,-0.023,0.024,-0.33014855153114764,-6.399334292619328,-7.2499443190129425
1621785390443.241,-0.19,-0.028,0.023,-0.3360285400833148,-6.44173210481127,-7.2623232422806625
1621785390447.993,-0.171,-0.023,0.024,-0.34190852863548193,-6.484129917003211,-7.2747021655483834
1621785390448.875,-0.1678424326547399,-0.023,0.02269982521077524,-0.343,-6.492,-7.277
1621785390452.742,-0.154,-0.023,0.017,-0.3331661837748345,-6.486957017320428,-7.262123201095262
1621785390457.489,-0.131,-0.026,0.017,-0.3210941639072848,-6.480766237901172,-7.2438604018084565
1621785390462.235,-0.117,-0.035,0.017,-0.3090246274834437,-6.474576732042792,-7.225601359526236
1621785390464.211,-0.10950301065308013,-0.033334002367351144,0.01866599763264886,-0.304,-6.472,-7.218
1621785390466.979,-0.099,-0.031,0.021,-0.304,-6.457903180043038,-7.171914242448394
1621785390471.72,-0.084,-0.03,0.023,-0.304,-6.433759049972105,-7.092981509524189
1621785390476.46,-0.079,-0.026,0.023,-0.304,-6.409619893201563,-7.014065035466645
1621785390479.527,-0.07641062503220487,-0.028589374967795123,0.02364734374194878,-0.304,-6.394,-6.963
1621785390481.198,-0.075,-0.03,0.024,-0.3018152333524867,-6.387554938389836,-6.940496903530613
1621785390485.934,-0.07,-0.026,0.028,-0.2956226138032305,-6.36928671071953,-6.876712922173274
1621785390490.668,-0.065,-0.021,0.031,-0.2894328672668071,-6.351026958437081,-6.812958532848113
1621785390494.823,-0.06324464957970193,-0.017489299159403848,0.03626605126089423,-0.284,-6.335,-6.757
1621785390495.402,-0.063,-0.017,0.037,-0.2847580817846242,-6.332763658735359,-6.748812716726058
1621785390500.132,-0.066,-0.012,0.044,-0.2909499352818038,-6.314497690918679,-6.681940698956518
1621785390504.861,-0.075,0.0,0.051,-0.2971405103948609,-6.296235494335161,-6.615082487735503
1621785390509.587,-0.087,0.005,0.047,-0.30332693075951994,-6.277985554259416,-6.548269147797185
1621785390510.101,-0.08776154561421634,0.0055439611530116745,0.04721758446120467,-0.304,-6.276,-6.541
1621785390514.313,-0.094,0.01,0.049,-0.27694713261648746,-6.281520993343574,-6.52195257296467
1621785390519.036,-0.105,0.017,0.058,-0.24661223118279568,-6.287711789554532,-6.500594326036866
1621785390523.758,-0.115,0.03,0.061,-0.2162820340501792,-6.293901625704045,-6.479239391321045
1621785390525.359,-0.12110489836031656,0.0323741271401231,0.061,-0.206,-6.296,-6.472
1621785390528.478,-0.133,0.037,0.061,-0.22196386005382543,-6.303981930026913,-6.468111367422787
1621785390533.196,-0.136,0.052,0.068,-0.24611082276047672,-6.316055411380239,-6.462229414968602
1621785390537.911,-0.141,0.058,0.072,-0.2702415417147251,-6.328120770857362,-6.456351419325901
1621785390540.599,-0.14841327878191515,0.06370252213993476,0.0697189911440261,-0.284,-6.335,-6.453
1621785390542.625,-0.154,0.068,0.068,-0.2970463325418725,-6.33766251684528,-6.467377590964513
1621785390547.338,-0.161,0.077,0.07,-0.3273965860232304,-6.34385644612719,-6.500824809086826
1621785390552.048,-0.162,0.077,0.075,-0.3577295450170057,-6.350046845921838,-6.534252967977925
1621785390555.817,-0.17240660651317152,0.07940152457996266,0.07259847542003733,-0.382,-6.355,-6.561
1621785390556.756,-0.175,0.08,0.072,-0.3850274797635873,-6.356173920724657,-6.5694645862777845
1621785390561.464,-0.176,0.079,0.072,-0.400203440190158,-6.3620584768084285,-6.611895332776564
1621785390566.168,-0.182,0.096,0.063,-0.4153660220994475,-6.367937845303867,-6.6542886740331495
1621785390570.871,-0.185,0.106,0.063,-0.4305262430939226,-6.3738162983425415,-6.696675414364641
1621785390571.018,-0.18509379381978708,0.10578114775383017,0.06287494157361724,-0.431,-6.374,-6.698
1621785390575.572,-0.188,0.099,0.059,-0.42536169400385,-6.379935058943316,-6.750228518701179
1621785390580.272,-0.185,0.106,0.056,-0.41954262850597385,-6.386060391046343,-6.804131441207821
1621785390585.023,-0.192,0.099,0.051,-0.41366038786451786,-6.392252223300508,-6.8586195650444655
1621785390586.364,-0.19068858329752184,0.10004913336198253,0.051,-0.412,-6.394,-6.874
1621785390590.136,-0.187,0.103,0.051,-0.412,-6.394,-6.912487298438222
1621785390595.249,-0.183,0.096,0.044,-0.412,-6.394,-6.964658139292054
1621785390600.26,-0.183,0.098,0.038,-0.412,-6.394,-7.015787705663867
1621785390602.731,-0.17708388133859418,0.09553495055774758,0.03454893078084661,-0.412,-6.394,-7.041
1621785390605.272,-0.171,0.093,0.031,-0.42126062434022016,-6.38473937565978,-7.059521248680441
1621785390610.282,-0.169,0.086,0.028,-0.43951939375659776,-6.366480606243402,-7.096038787513196
1621785390615.292,-0.169,0.086,0.017,-0.45777816317297537,-6.348221836827024,-7.13255632634595
1621785390618.92,-0.16393005800068236,0.08165433542915632,0.009757225715260515,-0.471,-6.335,-7.159
1621785390620.301,-0.162,0.08,0.007,-0.45845468122982225,-6.328343300244396,-7.172398741815768
1621785390625.31,-0.155,0.08,-0.003,-0.41295489243580846,-6.304200555170021,-7.2209937543372655
1621785390630.319,-0.15,0.082,-0.019,-0.3674551036417946,-6.280057810095646,-7.269588766858764
1621785390635.103,-0.1347123073922372,0.07531163448410376,-0.03237673103179247,-0.324,-6.257,-7.316
1621785390635.326,-0.134,0.075,-0.033,-0.3199354863049876,-6.258074684976986,-7.316
1621785390640.333,-0.122,0.07,-0.037,-0.22863306421187657,-6.282215664377876,-7.316
1621785390645.341,-0.113,0.079,-0.042,-0.13731283482984988,-6.306361352146683,-7.316
1621785390650.347,-0.101,0.087,-0.04,-0.046032671847883566,-6.330496446087678,-7.316
1621785390651.281,-0.09820062435978733,0.08905287546948928,-0.04,-0.029,-6.335,-7.316
1621785390655.352,-0.086,0.098,-0.04,0.06969247493658655,-6.290689092885614,-7.3431907839111
1621785390660.358,-0.065,0.119,-0.035,0.19104722792607803,-6.236203285420944,-7.3766252566735115
1621785390665.362,-0.038,0.133,-0.026,0.3123605507911583,-6.1817360792366225,-7.410048315013891
1621785390667.451,-0.02798126463700234,0.14009660421545667,-0.023912763466042153,0.363,-6.159,-7.424
1621785390670.366,-0.014,0.15,-0.021,0.486721225303607,-6.0774810585463115,-7.390274243248142
1621785390675.37,0.0,0.173,-0.003,0.6991093287414658,-5.9375402090508125,-7.332378360824119
1621785390680.373,0.014,0.197,0.017,0.9114456226209896,-5.79763349646547,-7.274496601413812
1621785390683.614,0.017239701288559155,0.2151423272159313,0.039029968762202265,1.049,-5.707,-7.237
1621785390685.375,0.019,0.225,0.051,1.1259438979798437,-5.6504364262726074,-7.165396400888445
1621785390690.378,0.026,0.264,0.091,1.3445400933774534,-5.489740356284846,-6.961971896106251
1621785390695.379,0.016,0.309,0.127,1.5630509496396354,-5.329107021440551,-6.758626807488328
1621785390699.772,0.009850908025776215,0.3520436438195665,0.1638945518453427,1.755,-5.188,-6.58
1621785390700.38,0.009,0.358,0.169,1.7823208699200506,-5.180624117762631,-6.554899421161607
1621785390705.38,-0.024,0.4,0.218,2.0070322819532396,-5.119958226910695,-6.348449680354255
1621785390710.38,-0.075,0.438,0.264,2.231743693986428,-5.0592923360587605,-6.1419999395469045
1621785390715.379,-0.143,0.482,0.307,2.4564112170719543,-4.998638294013632,-5.9355905209545545
1621785390715.926,-0.1504422738816175,0.48736281500293027,0.31159669857394023,2.481,-4.992,-5.913
1621785390720.378,-0.211,0.531,0.349,2.608095264733452,-5.118819570016026,-5.96731185933295
1621785390725.376,-0.281,0.583,0.387,2.7507820900486832,-5.2611968794412025,-6.028286489673732
1621785390730.374,-0.339,0.63,0.426,2.893468915363914,-5.403574188866378,-6.089261120014514
1621785390732.074,-0.35430853038889976,0.644968340824702,0.43790663474692204,2.942,-5.452,-6.11
1621785390735.371,-0.384,0.674,0.461,2.75163338273995,-5.6364431924740614,-6.282187830847878
1621785390740.367,-0.428,0.689,0.482,2.463186726761245,-5.915914576968451,-6.543089688133338
1621785390745.364,-0.457,0.717,0.499,2.174669590731722,-6.195454248464866,-6.804055295078497
1621785390748.216,-0.4678489173468889,0.7141450217508187,0.49386103915147367,2.01,-6.355,-6.953
1621785390750.359,-0.476,0.712,0.49,1.7652389807683577,-6.472134682019701,-7.0571197173508455
1621785390755.354,-0.48,0.712,0.468,1.1946783731029367,-6.745186475812919,-7.299832422944817
1621785390760.349,-0.445,0.71,0.436,0.6241177654375161,-7.018238269606138,-7.542545128538789
1621785390764.351,-0.4057329259349792,0.7043904179907112,0.4095548276704962,0.167,-7.237,-7.737
1621785390765.343,-0.396,0.703,0.403,0.07352418720106557,-7.275620270024823,-7.73822994490525
1621785390770.336,-0.354,0.689,0.361,-0.39698377429315246,-7.470014348852698,-7.7444208391354366
1621785390775.329,-0.284,0.66,0.319,-0.8675147423866321,-7.6644179330386875,-7.750612036084035
1621785390780.321,-0.197,0.642,0.271,-1.3379306774838047,-7.8587739904340985,-7.756801719440576
1621785390780.481,-0.19549440015650218,0.641551523450873,0.26923812784271534,-1.353,-7.865,-7.757
1621785390785.313,-0.15,0.628,0.216,-1.5588794742898673,-7.820947186724002,-7.595473017988008
1621785390790.305,-0.126,0.611,0.162,-1.7715723608503422,-7.775436481739447,-7.428600433044637
1621785390795.295,-0.103,0.564,0.117,-1.9841820301617104,-7.729943583065835,-7.261793137908061
1621785390796.605,-0.09564895542834777,0.5574365673467391,0.10282298546895641,-2.04,-7.718,-7.218
1621785390800.285,-0.075,0.539,0.063,-2.057807070156307,-7.5298842845026055,-7.090382663879801
1621785390805.274,-0.045,0.51,0.012,-2.081948745910578,-7.2748491457651765,-6.917367320974191
1621785390810.264,-0.045,0.48,-0.037,-2.106095147219193,-7.019764085786987,-6.744318111595783
1621785390812.724,-0.060783074739366644,0.4661898096030542,-0.0626474964514708,-2.118,-6.894,-6.659
1621785390815.252,-0.077,0.452,-0.089,-2.010377890239098,-6.778690596684748,-6.557339464832268
1621785390820.24,-0.119,0.429,-0.131,-1.7980128791781569,-6.551156656262311,-6.35673811327616
1621785390825.228,-0.169,0.417,-0.171,-1.5856478681172157,-6.323622715839874,-6.156136761720052
1621785390828.837,-0.20445885347823958,0.40542159886424833,-0.19488045234248788,-1.432,-6.159,-6.011
1621785390830.215,-0.218,0.401,-0.204,-1.3597938256823727,-6.1187048482184805,-6.004326917539366
1621785390835.201,-0.26,0.394,-0.236,-1.0985724807905066,-5.972928481578588,-5.980185608414288
1621785390840.187,-0.311,0.384,-0.26,-0.8373383447251564,-5.827144976736432,-5.9560431171665424
1621785390844.946,-0.35395083973950936,0.37731875826274297,-0.28672496694902805,-0.588,-5.688,-5.933
1621785390845.173,-0.356,0.377,-0.288,-0.577637843737683,-5.686886244428948,-5.936186186823515
1621785390850.157,-0.4,0.37,-0.316,-0.35018294272807204,-5.6624387108510446,-6.006124700603341
1621785390855.141,-0.435,0.372,-0.333,-0.12271689961495319,-5.637989979686505,-6.076066640390504
1621785390860.126,-0.466,0.37,-0.356,0.10478256980868927,-5.613537655762059,-6.146018858199678
1621785390861.051,-0.47026981871631557,0.37037128858402746,-0.35859902008819206,0.147,-5.609,-6.159
1621785390865.109,-0.489,0.372,-0.37,0.3249642082593991,-5.66092723357144,-6.2701646116747805
1621785390870.091,-0.501,0.372,-0.377,0.5434658386035155,-5.724682666787995,-6.406650757541289
1621785390875.074,-0.501,0.377,-0.384,0.761999590518222,-5.78844747258747,-6.543156968014923
1621785390877.149,-0.4993336927752181,0.37616684638760906,-0.384,0.853,-5.815,-6.6
1621785390880.055,-0.497,0.375,-0.384,0.884967695925954,-5.8841730369471215,-6.676216766557924
1621785390885.036,-0.483,0.379,-0.387,0.9397610196494954,-6.002737121614445,-6.8068539564524695
1621785390890.016,-0.463,0.382,-0.393,0.99454628632122,-6.1212837720961994,-6.937471936878841
1621785390893.239,-0.44682388981472404,0.3832940888148221,-0.393,1.03,-6.198,-7.022
1621785390894.997,-0.438,0.384,-0.393,1.008577560560986,-6.250463116993504,-7.041236476230952
1621785390899.976,-0.401,0.375,-0.398,0.9479069273268168,-6.399044259607796,-7.095716228522859
1621785390904.955,-0.372,0.372,-0.398,0.8872362940926477,-6.547625402222088,-7.1501959808147655
1621785390909.324,-0.3395338334804354,0.3658577522800824,-0.40414224771991764,0.834,-6.678,-7.198
1621785390909.934,-0.335,0.365,-0.405,0.8209488067043177,-6.694010475496447,-7.191322645290581
1621785390914.912,-0.291,0.347,-0.401,0.7144606789336247,-6.8246441671221225,-7.13684034736139
1621785390919.889,-0.253,0.339,-0.396,0.607998663994656,-6.9552458249833,-7.0823714094856385
1621785390924.866,-0.201,0.314,-0.394,0.5015314264893423,-7.085853889597376,-7.027899799599199
1621785390925.405,-0.19677509567265236,0.31140005887547834,-0.394,0.49,-7.1,-7.022
1621785390929.842,-0.162,0.29,-0.394,0.46018981516638063,-7.216480537035068,-6.832374102030588
1621785390934.818,-0.115,0.274,-0.394,0.4267579241529092,-7.347112555624744,-6.619710128639339
1621785390939.794,-0.073,0.253,-0.391,0.39332767340491775,-7.477738165028932,-6.40705658915906
1621785390941.48,-0.05944154314322175,0.24588181015019142,-0.387271424364386,0.382,-7.522,-6.335
1621785390944.768,-0.033,0.232,-0.38,0.4081947698712981,-7.525888286152771,-6.206481910318944
1621785390949.742,0.0,0.209,-0.372,0.44781951345519744,-7.531770084028506,-6.012073012110437
1621785390954.716,0.026,0.185,-0.377,0.4874462020027047,-7.5376521706097765,-5.81765457142423
1621785390957.547,0.04080170847857038,0.1770298492807698,-0.378707889439835,0.51,-7.541,-5.707
1621785390959.689,0.052,0.171,-0.38,0.6002714685229656,-7.522732361613521,-5.608994786758671
1621785390964.661,0.065,0.154,-0.38,0.8098210475119312,-7.480327203088428,-5.381492658905067
1621785390969.634,0.065,0.145,-0.372,1.0194220749612426,-7.43791163327963,-5.1539346748943675
1621785390973.61,0.06340027503560729,0.14739958744658907,-0.36240165021364373,1.187,-7.404,-4.972
1621785390974.605,0.063,0.148,-0.36,1.2119076312548465,-7.381508780732564,-4.937984354331069
1621785390979.576,0.042,0.141,-0.342,1.336360215299001,-7.269129954841947,-4.76802298955435
1621785390984.546,0.009,0.138,-0.339,1.4607883501345618,-7.156773206221777,-4.598095014368472
1621785390989.516,-0.031,0.136,-0.326,1.585222597272271,-7.044410938283995,-4.428158691784883
1621785390989.667,-0.0324878396305213,0.1357874514813541,-0.32554453888861595,1.589,-7.041,-4.423
1621785390994.485,-0.08,0.129,-0.311,1.6682413572830004,-6.91433389100975,-4.434706109598625
1621785390999.454,-0.124,0.119,-0.286,1.7499641515460311,-6.78370124260445,-4.446778795114755
1621785391004.423,-0.178,0.098,-0.258,1.8316869458090617,-6.653068594199151,-4.458851480630884
1621785391005.719,-0.1939156508061345,0.09304266614235156,-0.250694455367676,1.853,-6.619,-4.462
1621785391009.39,-0.239,0.079,-0.23,1.8440772367620206,-6.6011544735240415,-4.578682288496652
1621785391014.357,-0.3,0.049,-0.201,1.832003971393792,-6.577007942787584,-4.736563451004261
1621785391019.324,-0.36,0.024,-0.164,1.819930706025563,-6.552861412051127,-4.894444613511869
1621785391021.764,-0.3899706995722924,0.009751634629565901,-0.14680369696671747,1.814,-6.541,-4.972
1621785391024.29,-0.421,-0.005,-0.129,1.7985670583221722,-6.638322019968343,-5.1233373158407405
1621785391029.256,-0.473,-0.031,-0.096,1.7682276878120053,-6.829645805430415,-5.420848898088397
1621785391034.221,-0.524,-0.061,-0.045,1.7378957749908681,-7.020922561792281,-5.718287349324242
1621785391037.805,-0.5499861336480307,-0.07904592614446575,-0.024066725672419728,1.716,-7.159,-5.933
1621785391039.186,-0.56,-0.086,-0.016,1.7244418693182684,-7.2349768238644145,-6.057991350824564
1621785391044.149,-0.569,-0.11,0.017,1.7547770857760656,-7.50799377198459,-6.5071382802150115
1621785391049.114,-0.559,-0.122,0.042,1.7851257328196617,-7.781131595376955,-6.956484064503358
1621785391053.838,-0.5266310765597324,-0.11533580987994489,0.07151284196024404,1.814,-8.041,-7.384
1621785391054.076,-0.525,-0.115,0.073,1.81909398181292,-8.056875995795952,-7.395227551750926
1621785391059.038,-0.475,-0.101,0.093,1.9252839103745565,-8.387829446619245,-7.62927882286637
1621785391064.0,-0.396,-0.082,0.11,2.031468614339462,-8.718766614369926,-7.86331857854412
1621785391068.962,-0.298,-0.061,0.117,2.137653318304367,-9.049703782120607,-8.097358334221871
1621785391069.866,-0.27740448885170055,-0.05753703794851602,0.11864035044543979,2.157,-9.11,-8.14
1621785391073.922,-0.185,-0.042,0.126,2.1919320778864613,-9.313770454337691,-8.023306609379286
1621785391078.882,-0.07,-0.014,0.127,2.2346478654355972,-9.56294588170765,-7.8806111161897805
1621785391083.843,0.031,0.005,0.122,2.2773720632598957,-9.812170369016059,-7.737887527805711
1621785391085.89,0.07516541945647894,0.009953131153997638,0.12076171721150059,2.295,-9.915,-7.679
1621785391088.802,0.138,0.017,0.119,2.2360927049355244,-9.925545133067097,-7.5399133310977655
1621785391093.76,0.23,0.017,0.099,2.135800170716093,-9.94349873487181,-7.303111514190776
1621785391098.719,0.3,0.009,0.075,2.0354878822058957,-9.961455872938451,-7.066263055208365
1621785391101.907,0.3385874704491726,-0.007078112687155242,0.06278063435776202,1.971,-9.973,-6.914
1621785391103.676,0.36,-0.016,0.056,1.8984085177109224,-9.95786296335829,-6.85223647092908
1621785391108.633,0.414,-0.054,0.04,1.6950000914899133,-9.91544750766228,-6.679169027614705
1621785391113.59,0.456,-0.112,0.023,1.491591665268904,-9.873032051966272,-6.506101584300331
1621785391117.918,0.49355905395417593,-0.1670283813747228,-0.0014570583887657078,1.314,-9.836,-6.355
1621785391118.545,0.499,-0.175,-0.005,1.3266894111546617,-9.79644350226479,-6.389543397032135
1621785391123.501,0.538,-0.26,-0.04,1.4269990086778812,-9.483750003812778,-6.662608412512011
1621785391128.455,0.567,-0.356,-0.08,1.5272690753252298,-9.171179734325673,-6.935565816163126
1621785391133.41,0.599,-0.445,-0.103,1.62755396605103,-8.858563253976728,-7.208563574250027
1621785391133.926,0.5997292529075497,-0.44812536960378474,-0.10477104277547801,1.638,-8.826,-7.237
1621785391138.364,0.606,-0.475,-0.12,1.8773447760283168,-8.306541407298914,-7.840770078115464
1621785391143.317,0.545,-0.426,-0.094,2.144458180764067,-7.726815559013793,-8.514589176736237
1621785391148.27,0.393,-0.339,-0.04,2.4115847522275113,-7.147061134505066,-9.188441489686317
1621785391149.928,0.3180020213972292,-0.3259423162254105,-0.035312626337326826,2.501,-6.953,-9.414
1621785391153.222,0.169,-0.3,-0.026,2.2384336040051283,-7.193325477745894,-9.268610293668722
1621785391158.174,-0.023,-0.241,-0.047,1.8436888088405885,-7.554633066731791,-9.050030038463886
1621785391163.125,-0.106,-0.195,-0.059,1.4490413181512911,-7.915851593503876,-8.831503663227304
1621785391165.923,-0.08282819665663987,-0.18369668129592187,-0.05221800877755313,1.226,-8.12,-8.708
1621785391168.076,-0.065,-0.175,-0.047,1.334254141790475,-8.152987891466003,-8.919257149837382
1621785391173.026,0.08,-0.166,-0.045,1.583160098334122,-8.228836099616741,-9.404995266525171
1621785391177.976,0.253,-0.185,-0.063,1.8320783313737765,-8.304688048739521,-9.890757340703303
1621785391181.912,0.37786576883232204,-0.2072690543140447,-0.09640358147106703,2.03,-8.365,-10.277
1621785391182.925,0.41,-0.213,-0.105,1.9728414637871519,-8.190355958090235,-10.305008950117603
1621785391187.873,0.52,-0.232,-0.145,1.693633931026056,-7.337256223844579,-10.441826832024926
1621785391192.82,0.599,-0.22,-0.187,1.414481504108501,-6.4843248617771945,-10.578617710847054
1621785391197.769,0.637,-0.241,-0.201,1.1352188655038642,-5.63105675535327,-10.71546259583957
1621785391197.897,0.6365861592378697,-0.24208633200059232,-0.20193114171479343,1.128,-5.609,-10.719
1621785391202.715,0.621,-0.283,-0.237,0.9533833399553775,-5.094499098383203,-10.535637427794248
1621785391207.661,0.595,-0.326,-0.305,0.7741391393379993,-4.566363336287784,-10.3474155383722
1621785391212.608,0.576,-0.358,-0.365,0.5948506983709771,-4.038097221797733,-10.159147192762616
1621785391213.873,0.572929336822873,-0.3615824403733149,-0.36935010616759667,0.549,-3.903,-10.111
1621785391217.552,0.564,-0.372,-0.382,0.5015530913259458,-3.783231104317921,-9.898640534963699
1621785391222.497,0.553,-0.403,-0.382,0.43777731753916704,-3.622243714176538,-9.613197508597631
1621785391227.442,0.538,-0.428,-0.398,0.3740046923958732,-3.4612642720672526,-9.32776857470386
1621785391229.846,0.5277867832271448,-0.43626784214945424,-0.409672247740406,0.343,-3.383,-9.189
1621785391232.385,0.517,-0.445,-0.422,0.28385217630601295,-3.322262181045422,-9.128103181519363
1621785391237.328,0.489,-0.476,-0.436,0.16870728798789159,-3.2040220000305766,-9.009553471234845
1621785391242.271,0.445,-0.466,-0.44,0.053556712379030424,-3.0857759788408323,-8.890997905487012
1621785391245.815,0.41774933306985473,-0.4523746665349274,-0.44501985969765834,-0.029,-3.001,-8.806
1621785391247.213,0.407,-0.447,-0.447,0.01127892893734803,-3.06798561008059,-8.763969813282767
1621785391252.155,0.37,-0.41,-0.435,0.15367612741424924,-3.3047983423302187,-8.615381432263392
1621785391257.096,0.333,-0.379,-0.401,0.29603815393084887,-3.5415525820806506,-8.466829752419985
1621785391261.78,0.2969681723831175,-0.3420199663931996,-0.3450558465948404,0.431,-3.766,-8.326
1621785391262.036,0.295,-0.34,-0.342,0.4295890704363258,-3.7842298512942905,-8.314680496909615
1621785391266.976,0.248,-0.307,-0.274,0.402346551618628,-4.136215577382045,-8.096121198213083
1621785391271.915,0.182,-0.297,-0.202,0.37511076433510804,-4.488114328988434,-7.87761590477939
1621785391276.854,0.119,-0.3,-0.131,0.34787497705158804,-4.840013080594822,-7.659110611345695
1621785391277.738,0.1093344537815126,-0.30536974789915966,-0.11918655462184874,0.343,-4.903,-7.62
1621785391281.793,0.065,-0.33,-0.065,0.1360833652183229,-5.209816189412143,-7.487817383186152
1621785391286.73,0.026,-0.374,0.0,-0.11584439614931358,-5.583374921562926,-7.3268807297326255
1621785391291.668,0.005,-0.433,0.056,-0.36782198992944487,-5.957007545263932,-7.165912242305514
1621785391293.69,0.0066385399149272925,-0.46372262340488674,0.0736143040854684,-0.471,-6.11,-7.1
1621785391296.604,0.009,-0.508,0.099,-0.5587069332394409,-6.115298960549883,-7.121561287754695
1621785391301.54,0.014,-0.562,0.148,-0.7072708387551092,-6.124274696508121,-7.158083247860631
1621785391306.477,0.021,-0.632,0.199,-0.8558641366746781,-6.133252208257429,-7.1946124335991914
1621785391309.638,0.01523552983081033,-0.6787562580389829,0.23038433758781043,-0.951,-6.139,-7.218
1621785391311.412,0.012,-0.705,0.248,-1.0340209038423254,-6.0222588094764085,-7.298683854270356
1621785391316.346,-0.005,-0.771,0.278,-1.2648960167843306,-5.697610024655814,-7.523059801834638
1621785391321.281,-0.03,-0.819,0.291,-1.4958282515811883,-5.372880917012512,-7.7474912632659
1621785391325.58,-0.04307210729486291,-0.8477586360486984,0.28402820944273977,-1.697,-5.09,-7.943
1621785391326.214,-0.045,-0.852,0.283,-1.6872126114532586,-5.071658593007935,-7.960585470478291
1621785391331.146,-0.061,-0.899,0.269,-1.6110805221068114,-4.928988295492846,-8.097375647271502
1621785391336.079,-0.077,-0.946,0.255,-1.5349295891166468,-4.78628268529583,-8.234199681343261
1621785391341.011,-0.087,-0.991,0.257,-1.4587974997701996,-4.643612387780739,-8.37098985813647
1621785391341.516,-0.08556582660791207,-0.9930488191315542,0.257,-1.451,-4.629,-8.385
1621785391345.942,-0.073,-1.011,0.257,-1.1595226774574272,-4.607048895633114,-8.218560613724499
1621785391350.873,-0.033,-1.018,0.258,-0.8347621434374092,-4.58259123863828,-8.033115847396575
1621785391355.804,0.019,-1.005,0.251,-0.5100176882635155,-4.558134792538434,-7.847680262411673
1621785391357.444,0.03896532765367279,-1.0023379563128436,0.251,-0.402,-4.55,-7.786
1621785391360.733,0.079,-0.997,0.251,-0.18534540966515398,-4.466973169385502,-7.532995354470747
1621785391365.662,0.113,-0.984,0.257,0.13937110572795275,-4.342534619158592,-7.153798279774316
1621785391370.592,0.099,-0.958,0.264,0.46413587023181635,-4.218077578805348,-6.77454486078744
1621785391373.368,0.0787215754272975,-0.9365949962843696,0.2696328957146396,0.647,-4.148,-6.561
1621785391375.52,0.063,-0.92,0.274,0.7584042944785276,-4.096353834355828,-6.465549233128835
1621785391380.447,0.038,-0.86,0.293,1.0134525153374234,-3.9781154601226993,-6.24702490797546
1621785391385.375,0.014,-0.794,0.312,1.2685512883435583,-3.859853650306748,-6.0284572699386505
1621785391389.286,0.006854686028646478,-0.7384253357783614,0.312,1.471,-3.766,-5.855
1621785391390.301,0.005,-0.724,0.312,1.487903994845361,-3.7785025773195877,-5.83809600515464
1621785391395.227,0.007,-0.663,0.318,1.5699318697839961,-3.8391722508591064,-5.756068130216004
1621785391400.152,-0.002,-0.592,0.328,1.6519434830633284,-3.8998298969072165,-5.6740565169366715
1621785391405.077,-0.014,-0.513,0.351,1.733951030927835,-3.9604845360824745,-5.592048969072165
1621785391405.2,-0.014399742229712983,-0.5115759183066475,0.3512248550042135,1.736,-3.962,-5.59
1621785391410.002,-0.03,-0.456,0.36,1.602560789550429,-3.9855480959616894,-5.59
1621785391414.926,-0.042,-0.389,0.375,1.4657294592561896,-4.009694801307731,-5.59
1621785391419.849,-0.051,-0.333,0.38,1.3289252659207074,-4.033836717778699,-5.59
1621785391421.106,-0.04768101567149375,-0.3179369172783178,0.3810212259472327,1.294,-4.04,-5.59
1621785391424.772,-0.038,-0.274,0.384,1.0249472908446056,-4.073890958222659,-5.6125939721484395
1621785391429.694,-0.037,-0.227,0.387,0.6637078349787351,-4.119394128755892,-5.642929419170595
1621785391434.616,-0.045,-0.188,0.389,0.3024862968478911,-4.164895042299366,-5.673263361532911
1621785391437.007,-0.051802401150964926,-0.17196576871558267,0.3821975988490351,0.127,-4.187,-5.688
1621785391439.537,-0.059,-0.155,0.375,-0.08215095382914017,-4.272952446779099,-5.695799388689214
1621785391444.458,-0.073,-0.134,0.367,-0.48894885264030963,-4.44012966546862,-5.7109691733480785
1621785391449.378,-0.072,-0.119,0.361,-0.8956660215648329,-4.607273707492397,-5.726135947531717
1621785391452.902,-0.072,-0.12114881159132634,0.3502559420433682,-1.187,-4.727,-5.737
1621785391454.298,-0.072,-0.122,0.346,-1.2636089882461397,-4.774353491587924,-5.757645770914958
1621785391459.217,-0.073,-0.133,0.335,-1.5335491587923487,-4.9412087116847205,-5.830393408619498
1621785391464.136,-0.054,-0.148,0.326,-1.8034893293385574,-5.108063931781516,-5.903141046324038
1621785391468.792,-0.03127388282025819,-0.1697791956305859,0.32126539225422046,-2.059,-5.266,-5.972
1621785391469.053,-0.03,-0.171,0.321,-2.069153569507416,-5.271635395373857,-5.9739387074464005
1621785391473.971,-0.005,-0.197,0.3,-2.2604851917313455,-5.37782754168908,-6.01047128256359
1621785391478.888,0.021,-0.223,0.276,-2.4517788211788214,-5.483998601398602,-6.046996603396604
1621785391483.804,0.045,-0.246,0.25,-2.6430344578498426,-5.590148574502421,-6.083514669945439
1621785391484.677,0.051926102502979736,-0.24848629320619786,0.24396185935637663,-2.677,-5.609,-6.09
1621785391488.72,0.084,-0.26,0.216,-2.632194391919937,-5.686391504865563,-6.112402804040031
1621785391493.636,0.124,-0.278,0.185,-2.5777133699211365,-5.7804950883180375,-6.139643315039431
1621785391498.551,0.169,-0.284,0.155,-2.5232431705329827,-5.874579978170303,-6.1668784147335085
1621785391500.558,0.19065141125024848,-0.28563406877360364,0.14151893261776982,-2.501,-5.913,-6.178
1621785391503.464,0.222,-0.288,0.122,-2.2981745201771653,-5.990249415600394,-6.133151405634843
1621785391508.379,0.267,-0.284,0.093,-1.9551450541338582,-6.12089782234252,-6.057301027312992
1621785391513.292,0.309,-0.262,0.089,-1.6122348671259843,-6.251500799704725,-5.98147702386811
1621785391516.433,0.3301022862823062,-0.250489662027833,0.08580268389662028,-1.393,-6.335,-5.933
1621785391518.204,0.342,-0.244,0.084,-1.2856457548113165,-6.36669293724905,-5.830109548790055
1621785391523.117,0.372,-0.213,0.079,-0.9878390997338584,-6.45461091026568,-5.544685706813532
1621785391528.028,0.408,-0.188,0.079,-0.6901360398750828,-6.542498300078457,-5.25936115256219
1621785391532.303,0.4262803877703206,-0.16536713895103156,0.07551802137708177,-0.431,-6.619,-5.011
1621785391532.939,0.429,-0.162,0.075,-0.4070262546361132,-6.620603595007617,-4.961088105387895
1621785391537.849,0.442,-0.11,0.075,-0.22193605626433155,-6.632984210283322,-4.575741454931594
1621785391542.76,0.44,-0.037,0.075,-0.03681824897274505,-6.645366672309515,-4.190337324366334
1621785391547.669,0.428,0.033,0.077,0.14822593453269522,-6.657744209667738,-3.8050864740916297
1621785391548.167,0.42515919828915305,0.03989908986919978,0.07943497289501168,0.167,-6.659,-3.766
1621785391552.578,0.4,0.101,0.101,0.11247239074866805,-6.642586076806997,-3.6185528933509903
1621785391557.486,0.356,0.162,0.113,0.05179695728496196,-6.624321533060269,-3.4544815681685197
1621785391562.394,0.29,0.227,0.115,-0.008875458101074818,-6.6060578978165125,-3.290418404114441
1621785391564.022,0.264454649485049,0.24889601472710085,0.12329394497238669,-0.029,-6.6,-3.236
1621785391567.301,0.213,0.293,0.14,-0.06561758725855642,-6.608068281938325,-3.3820565909861067
1621785391572.208,0.124,0.363,0.164,-0.12041446659067805,-6.620142170604725,-3.600624934536829
1621785391577.115,0.026,0.424,0.192,-0.17521134592279966,-6.6322160592711255,-3.8191932780875515
1621785391579.872,-0.024026230650540045,0.45041834652331886,0.20549021950126922,-0.206,-6.639,-3.942
1621785391582.02,-0.063,0.471,0.216,-0.4497208930929639,-6.517139553453518,-4.317038358772765
1621785391586.933,-0.15,0.496,0.236,-1.007192960904149,-6.2384035195479255,-5.174877860016585
1621785391591.864,-0.237,0.475,0.241,-1.566687263904671,-5.958656368047665,-6.035829182150426
1621785391595.771,-0.32419253058596265,0.41555054732775276,0.2156349001931745,-2.01,-5.737,-6.718
1621785391596.793,-0.347,0.4,0.209,-2.0994107057975677,-5.742006486038917,-6.913702255546866
1621785391601.722,-0.449,0.318,0.161,-2.530636873821243,-5.76615267491605,-7.857570587423524
1621785391606.651,-0.532,0.269,0.122,-2.961863041844918,-5.790298863793183,-8.801438919300182
1621785391611.579,-0.579,0.213,0.084,-3.393025131484122,-5.814441464648788,-9.74516699633531
1621785391611.693,-0.5785371884445766,0.21098676973390812,0.08302809573361082,-3.403,-5.815,-9.767
1621785391616.506,-0.559,0.126,0.042,-3.7441113804052706,-6.7760389777730055,-10.016180653771226
1621785391621.432,-0.496,0.017,-0.021,-4.093216747710573,-7.759600021475357,-10.271200886625454
1621785391626.359,-0.398,-0.096,-0.089,-4.442408630025617,-8.743404810479975,-10.526284318387507
1621785391627.609,-0.36780324131436787,-0.12036041036824106,-0.09382133121871437,-4.531,-8.993,-10.591
1621785391631.285,-0.279,-0.192,-0.108,-3.7312066097950165,-9.749592534061618,-10.421199843500675
1621785391636.209,-0.127,-0.264,-0.061,-2.6598754756352028,-10.763055695347981,-10.19375085921198
1621785391641.135,0.059,-0.288,0.019,-1.58811939977906,-11.776920845096356,-9.966211657665397
1621785391643.521,0.16172576726659726,-0.2831544449402548,0.057764440477961226,-1.069,-12.268,-9.856
1621785391646.059,0.271,-0.278,0.099,-0.6668892112170188,-12.241352181854461,-9.63994523491581
1621785391650.983,0.489,-0.234,0.159,0.11319643597181939,-12.189656029838376,-9.220803978450062
1621785391655.906,0.67,-0.182,0.237,0.8931660450338446,-12.137967567650536,-8.801725069454038
1621785391659.427,0.7515691605477277,-0.13406023020440563,0.3049743004564398,1.451,-12.101,-8.502
1621785391660.827,0.784,-0.115,0.332,1.5486415870773578,-11.899817830052514,-8.58150437613242
1621785391665.749,0.81,-0.045,0.435,1.8919537665448516,-11.192452338543747,-8.861045312164112
1621785391670.671,0.777,0.024,0.508,2.235248917483033,-10.485121932868594,-9.140572382765715
1621785391675.327,0.7372628367316565,0.09022860544723918,0.5458449173984224,2.56,-9.816,-9.405
1621785391675.592,0.735,0.094,0.548,2.54150133628237,-9.792780757533869,-9.434607870242374
1621785391680.511,0.672,0.148,0.595,2.19830513316745,-9.36200608238872,-9.983907473965532
1621785391685.432,0.627,0.152,0.658,1.8549726599698952,-8.931060363100174,-10.53342518354683
1621785391690.351,0.653,0.124,0.705,1.5117594230946456,-8.500264307437103,-11.082752050502258
1621785391691.222,0.6705304308975377,0.12187509928514695,0.707124900714853,1.451,-8.424,-11.18
1621785391695.269,0.752,0.112,0.717,0.6342383777221104,-8.424,-10.887535139621017
1621785391700.188,0.906,0.147,0.735,-0.3584691788716592,-8.424,-10.53206780494552
1621785391705.104,1.077,0.229,0.756,-1.3505854861762128,-8.424,-10.176812183989304
1621785391707.108,1.1438377358490566,0.2587509433962264,0.7645584905660378,-1.755,-8.424,-10.032
1621785391710.021,1.241,0.302,0.777,-2.271326380028592,-7.546153444114799,-9.992381350591057
1621785391714.937,1.363,0.321,0.747,-3.14265960063333,-6.0647322029729605,-9.925522389436306
1621785391719.854,1.398,0.311,0.668,-4.0141659108726735,-4.58301667870813,-9.858650146803376
1621785391722.99,1.3667360917941584,0.28292628650904034,0.612490611961057,-4.57,-3.638,-9.816
1621785391724.769,1.349,0.267,0.581,-4.280980976254922,-3.3951522976131887,-9.556678549458661
1621785391729.683,1.225,0.206,0.539,-3.4826586337352365,-2.724363419660433,-8.840386226624016
1621785391734.598,1.047,0.131,0.534,-2.6842173043799216,-2.053474563238189,-8.123987143208662
1621785391738.865,0.8776395348837209,0.07975760286225402,0.5661350626118068,-1.991,-1.471,-7.502
1621785391739.511,0.852,0.072,0.571,-1.8608975392187022,-1.5527972931405722,-7.404616456474931
1621785391744.424,0.656,0.068,0.637,-0.8714107966779452,-2.1749018763457397,-6.663971547216241
1621785391749.337,0.473,0.11,0.754,0.1180267763764995,-2.79697554598585,-5.923363442017841
1621785391754.248,0.312,0.133,0.843,1.107120163026761,-3.4188328206705627,-5.183012965241464
1621785391754.739,0.29650385284613473,0.1343996520009943,0.8455993537161323,1.206,-3.481,-5.109
1621785391759.159,0.157,0.147,0.869,0.9655865019157678,-3.3525751765737763,-5.535225552802868
1621785391764.071,0.0,0.145,0.831,0.6984013725822088,-3.2098494006493605,-6.008914136673488
1621785391768.981,-0.141,0.115,0.757,0.43133575945958424,-3.0671874682628832,-6.482390832012556
1621785391770.605,-0.18169209727955438,0.1054059282836823,0.7335110657979809,0.343,-3.02,-6.639
1621785391773.89,-0.264,0.086,0.686,0.3612263750134692,-3.377485491741453,-6.8218851038283335
1621785391778.8,-0.358,0.077,0.625,0.3884704370179949,-3.911840616966581,-7.095254498714653
1621785391783.708,-0.426,0.105,0.564,0.41570230746732756,-4.445956621461447,-7.368501562427844
1621785391786.465,-0.4484702780679501,0.13926717405362385,0.5263622842361836,0.431,-4.746,-7.522
1621785391788.616,-0.466,0.166,0.497,0.3725190438786983,-4.923071108441529,-7.662978453387547
1621785391793.523,-0.49,0.255,0.433,0.2391014800782393,-5.327038441990482,-7.984604552665219
1621785391798.431,-0.489,0.351,0.361,0.10565736419781607,-5.731086171048376,-8.306294660321274
1621785391802.317,-0.47632659865638216,0.42387205772580244,0.3000092560338392,0.0,-6.051,-8.561
1621785391803.337,-0.473,0.443,0.284,-0.04164226515081493,-6.114718458267863,-8.595111901900976
1621785391808.243,-0.45,0.532,0.208,-0.24192979942693413,-6.421186246418339,-8.759180515759311
1621785391813.149,-0.419,0.627,0.148,-0.44221733370305333,-6.727654034568815,-8.923249129617648
1621785391818.053,-0.38,0.726,0.096,-0.6424251317127276,-7.033999815140032,-9.087252426287087
1621785391818.165,-0.37908597600438093,0.727873749191019,0.0948346194055857,-0.647,-7.041,-9.091
1621785391822.957,-0.34,0.808,0.045,-0.7332084482732051,-6.996534589838031,-9.307579820924964
1621785391827.861,-0.286,0.864,0.01,-0.8214328776834287,-6.951029357826442,-9.52922435235556
1621785391832.764,-0.206,0.904,-0.03,-0.9096353465148177,-6.905535452850252,-9.750813712647753
1621785391834.007,-0.18216176104387669,0.9116079486030181,-0.03887594003685443,-0.932,-6.894,-9.807
1621785391837.666,-0.112,0.934,-0.065,-1.0066346130126427,-6.7331774283071235,-9.770722494603762
1621785391842.569,-0.003,0.942,-0.106,-1.1066470860314523,-6.517670675300648,-9.722109620721554
1621785391847.47,0.096,0.953,-0.148,-1.2066147394387912,-6.302260499537466,-9.67351853222325
1621785391849.842,0.1332668493150685,0.9505800747198007,-0.167359402241594,-1.255,-6.198,-9.65
1621785391852.371,0.173,0.948,-0.188,-1.219050667077967,-6.078807989511838,-9.422800215932753
1621785391857.271,0.232,0.932,-0.227,-1.1494007866121694,-5.847879941389682,-8.98261297138891
1621785391862.171,0.269,0.902,-0.251,-1.0797509061463715,-5.616951893267525,-8.542425726845067
1621785391865.671,0.2940042358100364,0.876281357452534,-0.25885847411172574,-1.03,-5.452,-8.228
1621785391867.07,0.304,0.866,-0.262,-1.0264634372107375,-5.382683369330453,-8.099622770749768
1621785391871.968,0.326,0.819,-0.265,-1.0140833076211047,-5.14003282937365,-7.650224066646096
1621785391876.867,0.344,0.757,-0.262,-1.001700709657513,-4.897333909287257,-7.200735760567726
1621785391881.496,0.3288750623192741,0.6794846943862798,-0.262,-0.99,-4.668,-6.776
1621785391881.764,0.328,0.675,-0.262,-1.001292696854647,-4.659196098404173,-6.752263326851251
1621785391886.661,0.293,0.607,-0.269,-1.2077730191067073,-4.498221934129703,-6.318252214711238
1621785391891.558,0.264,0.569,-0.278,-1.4142636355218077,-4.3372397444207795,-5.8842194647652555
1621785391896.454,0.239,0.538,-0.293,-1.6207027811217087,-4.176297681884125,-5.450294903849121
1621785391897.315,0.23284488778054863,0.5336034912718205,-0.29669306733167083,-1.657,-4.148,-5.374
1621785391901.349,0.204,0.513,-0.314,-1.672051968503937,-4.085496062992126,-5.248992125984252
1621785391906.244,0.182,0.464,-0.326,-1.6903149143121816,-4.009658406669755,-5.097316813339509
1621785391911.138,0.166,0.417,-0.356,-1.7085751273737841,-3.933832098193608,-4.9456641963872165
1621785391913.128,0.16152634467618002,0.3970718990120746,-0.36332052689352357,-1.716,-3.903,-4.884
1621785391916.031,0.155,0.368,-0.374,-1.642165672978901,-3.8921636186710327,-4.774166846869112
1621785391920.925,0.129,0.314,-0.4,-1.5176948194371505,-3.873895508325353,-4.589008711501035
1621785391925.818,0.073,0.258,-0.435,-1.3932488029409038,-3.8556310432176946,-4.403887522782737
1621785391928.934,0.03222567763190735,0.2235966655019218,-0.4426451854440174,-1.314,-3.844,-4.286
1621785391930.709,0.009,0.204,-0.447,-1.2170726567689907,-3.866013626040878,-4.2452298660569445
1621785391935.602,-0.017,0.155,-0.45,-0.9498625036691437,-3.9267009841029523,-4.13283440189096
1621785391940.492,-0.045,0.133,-0.45,-0.6828256731913054,-3.987348978046934,-4.020511841678382
1621785391944.737,-0.06930673989016475,0.10956135796305541,-0.4534723914128807,-0.451,-4.04,-3.923
1621785391945.382,-0.073,0.106,-0.454,-0.40935383569265005,-4.058046671199851,-3.9049533288001483
1621785391950.272,-0.106,0.066,-0.45,-0.09363429560487113,-4.194858471904556,-3.7681415280954442
1621785391955.162,-0.157,0.058,-0.421,0.22210100760338752,-4.331677103294801,-3.6313228967051985
1621785391960.05,-0.223,0.054,-0.394,0.5376944427273289,-4.468434258515176,-3.494565741484824
1621785391960.535,-0.2311340592378003,0.05439678337745368,-0.3918176914240048,0.569,-4.482,-3.481
1621785391964.938,-0.305,0.058,-0.372,0.7823214020656812,-4.582944245160492,-3.5384434102294513
1621785391969.826,-0.391,0.056,-0.349,1.019133588966541,-4.6950043911188075,-3.6022124435648464
1621785391974.713,-0.464,0.065,-0.321,1.2558984631084176,-4.807042148555879,-3.6659687364710245
1621785391976.325,-0.48082587188967724,0.06038113320675527,-0.3124221045268312,1.334,-4.844,-3.687
1621785391979.599,-0.515,0.051,-0.295,1.4783939173615086,-4.978435716164164,-3.8824296984979036
1621785391984.486,-0.541,0.056,-0.265,1.6939134941138252,-5.179091873830113,-4.1741242980678495
1621785391989.371,-0.534,0.056,-0.236,1.9093469362498645,-5.37966783719815,-4.465702318889902
1621785391992.107,-0.5244791843670349,0.04927942425908341,-0.22423899245339596,2.03,-5.492,-4.629
1621785391994.256,-0.517,0.044,-0.215,2.0607840066845124,-5.585441719405202,-4.7251659677843625
1621785391999.141,-0.482,0.028,-0.19,2.1307552880375074,-5.797832422981107,-4.9437488201525674
1621785392004.024,-0.424,0.0,-0.159,2.2006950964767045,-6.010127593730175,-5.162233354480326
1621785392007.885,-0.3678595570221489,-0.02055847207639618,-0.1368601069946503,2.256,-6.178,-5.335
1621785392008.907,-0.353,-0.026,-0.131,2.2337112961644428,-6.188172460762158,-5.342580751013838
1621785392013.79,-0.278,-0.066,-0.112,2.127214314459957,-6.236777187877287,-5.378802108163328
1621785392018.672,-0.195,-0.103,-0.099,2.0207386310868958,-6.285372194533015,-5.415016221403585
1621785392023.553,-0.12,-0.147,-0.091,1.914289570628115,-6.333955050614494,-5.451221279757298
1621785392023.658,-0.11862379356903535,-0.14777411611741761,-0.09095699354903235,1.912,-6.335,-5.452
1621785392028.435,-0.056,-0.183,-0.089,1.778386191198786,-6.281675668142826,-5.294753816852993
1621785392033.315,0.002,-0.211,-0.082,1.6418975720789075,-6.227204019695891,-5.13412435353504
1621785392038.195,0.037,-0.244,-0.079,1.5054021244309561,-6.172729646031402,-4.973486853922145
1621785392039.425,0.04178897338403042,-0.2538299979987993,-0.08101640984590755,1.471,-6.159,-4.933
1621785392043.075,0.056,-0.283,-0.087,1.4006045600285002,-6.154368721054507,-4.737560028500178
1621785392047.953,0.045,-0.318,-0.094,1.306524232896021,-6.1481792258484225,-4.4763633308034265
1621785392052.831,0.017,-0.337,-0.098,1.2124391970384598,-6.141989420857794,-4.215153560198882
1621785392055.187,-0.007153984781738086,-0.3437631157388867,-0.09461844213055667,1.167,-6.139,-4.089
1621785392057.708,-0.033,-0.351,-0.091,1.058664052814282,-6.240935004959088,-4.065476537317134
1621785392062.586,-0.093,-0.365,-0.084,0.8490424931812547,-6.4381712434911975,-4.019960482271262
1621785392067.462,-0.173,-0.382,-0.075,0.6395048661046367,-6.635328508554426,-3.974462651872056
1621785392070.941,-0.22649902387745907,-0.3984063673224208,-0.07357335936326775,0.49,-6.776,-3.942
1621785392072.339,-0.248,-0.405,-0.073,0.3838326616653233,-6.823935085870172,-4.0917527590055185
1621785392077.214,-0.304,-0.443,-0.079,0.013665137330274635,-6.9910675801351605,-4.613887051274102
1621785392082.089,-0.335,-0.485,-0.087,-0.356502387004774,-7.158200074400149,-5.136021343542687
1621785392086.692,-0.33311120573060166,-0.5180538997144718,-0.11060992836747985,-0.706,-7.316,-5.629
1621785392086.963,-0.333,-0.52,-0.112,-0.6705638489208633,-7.301818655420491,-5.689253504093276
1621785392091.837,-0.283,-0.508,-0.11,-0.033223920863309275,-7.046758868767055,-6.772948058794344
1621785392096.71,-0.206,-0.436,-0.052,0.603988309352518,-6.79175018605805,-7.856425483750931
1621785392101.584,-0.162,-0.351,0.035,1.241328237410072,-6.536690399404614,-8.940120038451997
1621785392102.438,-0.15814371617558629,-0.3371524353577871,0.04972399278412508,1.353,-6.492,-9.13
1621785392106.456,-0.14,-0.272,0.119,2.229313516867003,-6.451923908491663,-9.380411756494766
1621785392111.327,-0.112,-0.176,0.208,3.2916133695230707,-6.403342179139202,-9.68397020550601
1621785392116.198,-0.084,-0.052,0.323,4.35396646762311,-6.354758014734393,-9.987543869716944
1621785392118.179,-0.09945368885324779,0.0033079390537289546,0.3689543905372895,4.786,-6.335,-10.111
1621785392121.069,-0.122,0.084,0.436,4.739160116064363,-6.92224356447934,-9.76860963272146
1621785392125.938,-0.23,0.255,0.485,4.6602508572935895,-7.911549055813304,-9.191798423510793
1621785392130.808,-0.344,0.44,0.463,4.581321814824584,-8.901102580414914,-8.614842599345199
1621785392133.913,-0.3663201123201123,0.541397081682796,0.4138957528957529,4.531,-9.532,-8.247
1621785392135.677,-0.379,0.599,0.386,3.937047623482661,-9.747554468970227,-8.391114200117972
1621785392140.545,-0.302,0.667,0.309,2.2979034801775793,-10.3424251342709,-8.788829499239391
1621785392145.413,-0.145,0.646,0.234,0.6586771289311106,-10.937325634100153,-9.1865647449629
1621785392149.641,0.015681578815386954,0.5912814082953006,0.1732015647725563,-0.765,-11.454,-9.532
1621785392150.281,0.04,0.583,0.164,-0.9214435955963417,-11.447610394248537,-9.631791804475085
1621785392155.147,0.215,0.44,0.052,-2.1110953711898883,-11.399021599043493,-10.39064356143538
1621785392160.013,0.337,0.267,-0.096,-3.300747146783435,-11.35043280383845,-11.149495318395678
1621785392164.879,0.415,0.15,-0.222,-4.490398922376981,-11.301844008633408,-11.908347075355973
1621785392165.364,0.42108377252421825,0.14511303518546403,-0.2299787180645485,-4.609,-11.297,-11.984
1621785392169.743,0.476,0.101,-0.302,-5.122722744287911,-10.794420916108791,-12.565977664217705
1621785392174.608,0.504,0.084,-0.375,-5.693471691958808,-10.236052639753964,-13.212558223699538
1621785392179.472,0.564,-0.033,-0.473,-6.264106071667107,-9.677796446156474,-13.859008993336545
1621785392181.082,0.6159812741603494,-0.08100818314172398,-0.5104132737587228,-6.453,-9.493,-14.073
1621785392184.335,0.721,-0.178,-0.586,-6.058961770373593,-9.659477528439112,-13.370232920992105
1621785392189.198,0.958,-0.305,-0.712,-5.46988585503823,-9.908356685522472,-12.31961618076708
1621785392194.061,1.204,-0.466,-0.873,-4.880809939702866,-10.157235842605832,-11.268999440542053
1621785392196.792,1.3275960022098336,-0.5581352016473307,-0.9797420019084928,-4.55,-10.297,-10.679
1621785392198.922,1.424,-0.63,-1.063,-3.7028059717731905,-9.677234238995275,-10.65648772071624
1621785392203.783,1.606,-0.724,-1.162,-1.7695528941805518,-8.262960737378762,-10.605115860482467
1621785392208.644,1.735,-0.75,-1.171,0.1637972830141754,-6.848616202437205,-10.553741420044766
1621785392212.499,1.742139053551693,-0.7666577916206169,-1.1741729126896414,1.697,-5.727,-10.513
1621785392213.504,1.744,-0.771,-1.175,1.718955243145732,-5.507319549632211,-10.283846150257375
1621785392218.363,1.651,-0.752,-1.201,1.8251202587748627,-4.445050355348895,-9.175768144565572
1621785392223.221,1.482,-0.702,-1.199,1.9312586037976456,-3.3830480226428006,-8.067968508467724
1621785392228.08,1.286,-0.635,-1.173,2.0374236194267765,-2.3207788283594857,-6.95989050277592
1621785392228.198,1.2813394310986028,-0.6348058096291085,-1.1725387978691326,2.04,-2.295,-6.933
1621785392232.938,1.094,-0.627,-1.154,1.2634966852376357,-2.149670002178717,-6.254692629711475
1621785392237.795,0.902,-0.651,-1.15,0.46783575585919235,-2.0007544741510785,-5.5596503003517075
1621785392242.652,0.716,-0.672,-1.162,-0.3278651685393261,-1.8518314606741573,-4.864573033707865
1621785392243.886,0.6672132730015082,-0.6595492207139266,-1.1660655605832075,-0.53,-1.814,-4.688
1621785392247.508,0.524,-0.623,-1.178,-0.27629253415491867,-1.814,-4.841748109420222
1621785392252.363,0.326,-0.513,-1.133,0.0637739706843432,-1.814,-5.047830267948838
1621785392257.219,0.103,-0.394,-1.045,0.40390887872280834,-1.814,-5.253953879189618
1621785392259.576,-0.020819032290514045,-0.3415589980887235,-0.9983857760788653,0.569,-1.814,-5.354
1621785392262.073,-0.152,-0.286,-0.949,0.6704297101223651,-2.1466321262882584,-5.497784973689946
1621785392266.927,-0.412,-0.211,-0.864,0.8675968490207677,-2.7932289130367094,-5.777285643117352
1621785392271.781,-0.663,-0.159,-0.805,1.0647639879191706,-3.4398256997851604,-6.056786312544758
1621785392275.258,-0.8192219985911241,-0.14538432122370937,-0.7655861930160008,1.206,-3.903,-6.257
1621785392276.633,-0.881,-0.14,-0.75,1.313543524647613,-4.1481746748695585,-6.459104633595514
1621785392281.485,-1.038,-0.096,-0.714,1.693039264854762,-5.013338291410326,-7.17228423020014
1621785392286.338,-1.14,-0.101,-0.632,2.0725922903200686,-5.878632505256601,-7.885571481971809
1621785392290.933,-1.1542088575742326,-0.14552108706592853,-0.5278017111222949,2.432,-6.698,-8.561
1621785392291.189,-1.155,-0.148,-0.522,2.442565569683371,-6.733077038145101,-8.588385564697083
1621785392296.039,-1.075,-0.195,-0.368,2.642847637746198,-7.398001121914735,-9.10750925579656
1621785392300.889,-0.913,-0.215,-0.182,2.843119624158564,-8.062891735228122,-9.626606815632012
1621785392305.739,-0.717,-0.222,0.01,3.0434016922213916,-8.727815818997756,-10.145730506731487
1621785392306.601,-0.6823318060520618,-0.22324449926992598,0.034534414178540855,3.079,-8.846,-10.238
1621785392310.588,-0.522,-0.229,0.148,2.3275985503857846,-8.73349341438703,-10.22552755046372
1621785392315.437,-0.346,-0.269,0.22,1.4136772036474166,-8.596652887537994,-10.21035744680851
1621785392320.284,-0.195,-0.351,0.271,0.5001699789572132,-8.459874366767984,-10.195194217130387
1621785392322.264,-0.14802457942983782,-0.3873548907021255,0.2885647224740607,0.127,-8.404,-10.189
1621785392325.131,-0.08,-0.44,0.314,-0.09200062367469128,-8.062864413122115,-10.178196457527754
1621785392329.979,-0.028,-0.531,0.354,-0.4622914431832357,-7.486065251964575,-10.159929602719222
1621785392334.824,-0.009,-0.628,0.384,-0.8323584882125483,-6.909614662591992,-10.141673786952726
1621785392337.922,-0.0032460577359060905,-0.6714742304398206,0.38847528842762863,-1.069,-6.541,-10.13
1621785392339.67,0.0,-0.696,0.391,-1.0876473001216582,-6.430456125027296,-10.06981500140375
1621785392344.516,0.04,-0.747,0.391,-1.1393512961287706,-6.1239474061827375,-9.902938032255046
1621785392349.36,0.094,-0.775,0.386,-1.1910318495180459,-5.817577658545716,-9.736136725208222
1621785392353.575,0.1488173983166171,-0.7976230532735246,0.3659872990272668,-1.236,-5.551,-9.591
1621785392354.204,0.157,-0.801,0.363,-1.2008974723045718,-5.54782348260259,-9.523971462006553
1621785392359.048,0.218,-0.808,0.349,-0.9306338898424091,-5.52336664066157,-9.007901139023248
1621785392363.89,0.276,-0.812,0.34,-0.6604929006085193,-5.4989208924949295,-8.49206490872211
1621785392368.732,0.321,-0.775,0.349,-0.39033828990482133,-5.474473911686691,-7.976202668122952
1621785392369.222,0.32504698291072237,-0.7711553662348137,0.34940469829107224,-0.363,-5.472,-7.924
1621785392373.575,0.361,-0.737,0.353,-0.1420244435425967,-5.343700590016546,-7.391599194580589
1621785392378.416,0.407,-0.684,0.353,0.10372565791527488,-5.201016966877908,-6.7995085848968255
1621785392383.256,0.422,-0.627,0.353,0.3494261854962071,-5.058362126556989,-6.207537414541255
1621785392384.863,0.4156928585838209,-0.607082711317329,0.3556556384910228,0.431,-5.011,-6.011
1621785392388.097,0.403,-0.567,0.361,0.5385682851029938,-4.877160229881468,-5.72097935439539
1621785392392.936,0.384,-0.504,0.365,0.6995309137475989,-4.676885574625584,-5.286999344088205
1621785392397.775,0.358,-0.445,0.367,0.860485421579498,-4.47662102353474,-4.85304122874143
1621785392400.496,0.347313518696069,-0.4067536458596155,0.36868733915325225,0.951,-4.364,-4.609
1621785392402.613,0.339,-0.377,0.37,0.958992079610073,-4.329457961007311,-4.510656783103168
1621785392407.452,0.319,-0.305,0.379,0.9772602168343435,-4.250502452665125,-4.285865806411298
1621785392412.289,0.3,-0.244,0.384,0.9955219021433481,-4.171574829719428,-4.061154221083547
1621785392416.124,0.2793816639741519,-0.19166114701130854,0.39193012924071086,1.01,-4.109,-3.883
1621785392417.125,0.274,-0.178,0.394,0.9622674709338668,-4.075042630328791,-3.8610238154769347
1621785392421.962,0.251,-0.124,0.398,0.7316145768221027,-3.9109539942492813,-3.754830603825478
1621785392426.798,0.22,-0.068,0.393,0.5009966089511189,-3.746890205025628,-3.6486534723090385
1621785392431.633,0.175,-0.028,0.391,0.27043685148143515,-3.582867827228404,-3.5425031410176273
1621785392431.747,0.1736320202020202,-0.026938636363636366,0.390834898989899,0.265,-3.579,-3.54
1621785392436.467,0.117,0.017,0.384,-0.052365508184419096,-3.549379219236121,-3.406706486562544
1621785392441.302,0.026,0.033,0.374,-0.37746283007363635,-3.5190368025264607,-3.2701656113690727
1621785392446.135,-0.058,0.063,0.365,-0.7024288260400544,-3.4887066429029283,-3.133679893063177
1621785392447.363,-0.08011044866612774,0.06706628940986258,0.36220442603071945,-0.785,-3.481,-3.099
1621785392450.967,-0.145,0.079,0.354,-1.0634194047823844,-3.6010481678995356,-3.094382762773095
1621785392455.8,-0.232,0.098,0.335,-1.4367828065620944,-3.7620340459471717,-3.0881909982328013
1621785392460.632,-0.314,0.112,0.311,-1.810070766151103,-3.9229873950236933,-3.0820004848067812
1621785392462.974,-0.3489065548087128,0.11345443978369638,0.2974252286855006,-1.991,-4.001,-3.079
1621785392465.463,-0.386,0.115,0.283,-2.0691381597472076,-4.149621969151832,-3.1947720489315774
1621785392470.294,-0.44,0.126,0.251,-2.2208154115696273,-4.438118293026312,-3.4195020179582643
1621785392475.124,-0.475,0.113,0.225,-2.3724620029409005,-4.726556299471263,-3.644186559459375
1621785392478.581,-0.4907460574201375,0.10297978164173069,0.20782248281439547,-2.481,-4.933,-3.805
1621785392479.954,-0.497,0.099,0.201,-2.4948194794421923,-5.005530261530997,-3.882723569092076
1621785392484.783,-0.504,0.08,0.18,-2.5434210946426057,-5.260611350226159,-4.156068959040897
1621785392489.612,-0.497,0.056,0.145,-2.5920251670762053,-5.51570533548276,-4.429428168969997
1621785392494.18,-0.4790196247028476,0.03896596024480299,0.11187825603156137,-2.638,-5.757,-4.688
1621785392494.439,-0.478,0.038,0.11,-2.6332821556623713,-5.769209914042806,-4.696621694405737
1621785392499.266,-0.436,0.026,0.079,-2.5453639480812287,-5.996744711832031,-4.85728912304874
1621785392504.094,-0.375,0.024,0.049,-2.457432400695173,-6.22431403341214,-5.017980929715511
1621785392508.92,-0.286,0.005,0.019,-2.369536426122219,-6.451791291549891,-5.1786077283189025
1621785392509.773,-0.2699157223796034,0.004116248482395791,0.014757992715499798,-2.354,-6.492,-5.207
1621785392513.746,-0.195,0.0,-0.005,-2.2115206189603596,-6.56438666228132,-5.09459676737302
1621785392518.571,-0.115,0.0,-0.026,-2.0384949333583924,-6.652292377327758,-4.958095287318517
1621785392523.396,-0.052,0.016,-0.047,-1.8654692477564252,-6.740198092374195,-4.821593807264014
1621785392525.361,-0.03448357710410446,0.024554532111948982,-0.05148094539197328,-1.795,-6.776,-4.766
1621785392528.22,-0.009,0.037,-0.058,-1.67259837645547,-6.7545292504427135,-4.629284543417279
1621785392533.044,0.019,0.073,-0.054,-1.4660626224318691,-6.71830034006676,-4.398596182476376
1621785392537.866,0.031,0.096,-0.047,-1.2596104903543275,-6.68208609800818,-4.168001222359781
1621785392540.94,0.031,0.11065922551252846,-0.045725284738041,-1.128,-6.659,-4.021
1621785392542.689,0.031,0.119,-0.045,-1.0586003291794026,-6.631487185516106,-3.9779901716435457
1621785392547.511,0.005,0.162,-0.047,-0.8672668704443921,-6.555634924367113,-3.8594129633983854
1621785392552.332,-0.03,0.211,-0.026,-0.675972160827651,-6.479798024923583,-3.740859769574418
1621785392556.515,-0.09160140780878108,0.25698414949106196,-0.00777986529599433,-0.51,-6.414,-3.638
1621785392557.153,-0.101,0.264,-0.005,-0.5217803700354093,-6.393925287796802,-3.6769072765455184
1621785392561.983,-0.182,0.316,0.019,-0.6109353281113479,-6.241997961279642,-3.971361236721492
1621785392566.969,-0.25,0.349,0.028,-0.7029745389886108,-6.085155632539816,-4.275341079448779
1621785392571.953,-0.312,0.394,0.028,-0.7949731900608551,-5.928382421018747,-4.579186964452688
1621785392572.442,-0.31768839054007736,0.3943923027958674,0.026823091612397786,-0.804,-5.913,-4.609
1621785392576.939,-0.37,0.398,0.016,-1.3763878673962804,-5.431077337011717,-5.501645859544345
1621785392581.924,-0.468,0.333,-0.017,-2.0108931803368146,-4.896854814994468,-6.491164632944779
1621785392586.909,-0.592,0.264,-0.099,-2.645367419017447,-4.362658455988237,-7.480634945657941
1621785392588.548,-0.6261896880967537,0.2524938549674387,-0.12431351907163492,-2.854,-4.187,-7.806
1621785392591.895,-0.696,0.229,-0.176,-2.980354061183034,-4.354294439559774,-8.376671467119426
1621785392596.879,-0.771,0.185,-0.243,-3.168507230997787,-4.603411712094109,-9.226455355789346
1621785392601.864,-0.799,0.101,-0.312,-3.3567064851590214,-4.85259000090956,-10.076447381984659
1621785392604.653,-0.7984406306615092,0.03499441805807178,-0.35619017774078243,-3.462,-4.992,-10.552
1621785392606.85,-0.798,-0.017,-0.391,-3.132841488555404,-5.742394103380325,-10.598788797938456
1621785392611.834,-0.796,-0.138,-0.414,-2.3861538729725633,-7.444643822949826,-10.70492798241625
1621785392616.819,-0.733,-0.22,-0.358,-1.6392833712293466,-9.147310474458088,-10.811093163559192
1621785392620.759,-0.6223466549123322,-0.24608257419923596,-0.28370418258399455,-1.049,-10.493,-10.895
1621785392621.804,-0.593,-0.253,-0.264,-0.7614608155222069,-10.632357889949978,-10.886111717447324
1621785392626.789,-0.384,-0.269,-0.162,0.6103295134151889,-11.297205729877216,-10.843707548885856
1621785392631.773,-0.103,-0.243,-0.07,1.9817839320903445,-11.96189076853115,-10.801313763832043
1621785392636.758,0.199,-0.211,0.023,3.3535742610277404,-12.626738608458389,-10.758909595270577
1621785392636.865,0.20498618595081808,-0.2099915744097188,0.02490957186244734,3.383,-12.641,-10.758
1621785392641.742,0.478,-0.164,0.112,3.893954786669497,-12.539838827061285,-10.119230797222306
1621785392646.728,0.709,-0.096,0.211,4.416343133092762,-12.43641398550505,-9.466167950389664
1621785392651.711,0.866,-0.01,0.342,4.9383989598811295,-12.333054977711738,-8.813520802377413
1621785392652.967,0.8866616386698662,0.013181350702776823,0.3878587589989716,5.07,-12.307,-8.649
1621785392656.696,0.948,0.082,0.524,5.07,-11.79840706595906,-8.991999150871871
1621785392661.679,0.981,0.169,0.695,5.07,-11.118795845337377,-9.45033440485216
1621785392666.664,0.998,0.243,0.808,5.07,-10.438884943138742,-9.908871766489765
1621785392669.068,0.9888350641716469,0.28737758401097285,0.8432126481826198,5.07,-10.111,-10.13
1621785392671.648,0.979,0.335,0.881,4.705477035284842,-9.889402083428104,-10.28878780572867
1621785392676.632,0.915,0.422,1.002,4.001233983835995,-9.461284219624256,-10.59555917451364
1621785392681.617,0.881,0.447,1.112,3.29688744332742,-9.033103443570031,-10.902375623587925
1621785392685.169,0.9337473421194453,0.43844637695360344,1.1440760864239872,2.795,-8.728,-11.121
1621785392686.6,0.955,0.435,1.157,2.2440541352015284,-8.583285597306887,-11.081710217450642
1621785392691.584,1.145,0.447,1.157,0.32542416522609363,-8.079327934977103,-10.944886331240712
1621785392696.569,1.381,0.471,1.138,-1.5936757346920212,-7.575246838322263,-10.80802893276317
1621785392701.269,1.573415678588927,0.4860914257716805,1.108760362567369,-3.403,-7.1,-10.679
1621785392701.552,1.585,0.487,1.107,-3.421963697020244,-7.020208355447721,-10.665221002350444
1621785392706.536,1.702,0.445,1.044,-3.755980013647737,-5.614801425430283,-10.422525180074304
1621785392711.52,1.695,0.374,0.983,-4.090012692395178,-4.209325650163015,-10.17981746910304
1621785392716.503,1.573,0.302,0.949,-4.423963560542877,-2.804194101144894,-9.9371692016074
1621785392717.369,1.539640999265246,0.28740543717854516,0.9512586823414155,-4.482,-2.56,-9.895
1621785392721.487,1.381,0.218,0.962,-3.731782488702878,-2.625225184241652,-8.851397052133564
1621785392726.471,1.178,0.148,0.99,-2.8238538501197947,-2.7041620416704575,-7.588407333272677
1621785392731.454,1.0,0.131,1.03,-1.9160586388863616,-2.7830872986989355,-6.325603220817032
1621785392733.469,0.9401546300832925,0.14070465458108772,1.0538572758451739,-1.549,-2.815,-5.815
1621785392736.437,0.852,0.155,1.089,-1.1024825452670528,-3.0861920627217856,-5.589160246883625
1621785392741.421,0.719,0.187,1.168,-0.35269169876558193,-3.541577007066816,-5.209930772497043
1621785392746.404,0.565,0.216,1.21,0.39698895999514705,-3.9968950289648477,-4.830757028904189
1621785392749.568,0.45451298383145516,0.22044487996080353,1.21,0.873,-4.286,-4.59
1621785392751.387,0.391,0.223,1.21,0.8951480683765869,-4.309165071516328,-4.741759468519165
1621785392756.37,0.197,0.239,1.187,0.9558278299382669,-4.372631148659922,-5.1575396714647574
1621785392761.354,0.014,0.257,1.15,1.0165165101851992,-4.436106554020234,-5.573380985605727
1621785392765.664,-0.11750093109869648,0.28814495736548074,1.1067431147701656,1.069,-4.491,-5.933
1621785392766.336,-0.138,0.293,1.1,1.0125163908314496,-4.520890808695256,-5.983346809059328
1621785392771.319,-0.264,0.34,1.042,0.5935894479756072,-4.742584593680314,-6.356758407791144
1621785392776.303,-0.368,0.403,0.951,0.17460093141790933,-4.964310963122525,-6.730224890399114
1621785392781.285,-0.431,0.478,0.84,-0.24422338860150794,-5.185950440678995,-7.103545016004005
1621785392781.758,-0.4347979520846602,0.48550095536720395,0.8271819117142717,-0.284,-5.207,-7.139
1621785392786.268,-0.471,0.557,0.705,-0.7567182555934775,-5.34178214637846,-7.471612074326887
1621785392791.251,-0.487,0.63,0.567,-1.279003731513083,-5.490696973833902,-7.839100432309443
1621785392796.234,-0.492,0.707,0.442,-1.8012892074326887,-5.639611801289344,-8.206588790291999
1621785392797.853,-0.4936249326211594,0.7336488949870142,0.4049515362375655,-1.971,-5.688,-8.326
1621785392801.216,-0.497,0.789,0.328,-2.0715108387312084,-5.878573565328195,-8.51866318775504
1621785392806.199,-0.51,0.869,0.227,-2.220434702143475,-6.160940641070372,-8.804126393713688
1621785392811.182,-0.515,0.937,0.143,-2.369358565555741,-6.443307716812548,-9.089589599672335
1621785392813.947,-0.510004949282109,0.9586452197775274,0.10747963933944235,-2.452,-6.6,-9.248
1621785392816.164,-0.506,0.976,0.079,-2.4829912936643965,-6.713497004353168,-9.397860122252727
1621785392821.147,-0.48,0.99,0.026,-2.5526457704500296,-6.968587177114775,-9.734678214442809
1621785392826.129,-0.442,0.977,-0.021,-2.622286596186807,-7.223627356701907,-10.07143029622776
1621785392830.043,-0.38150781594550887,0.949503552702504,-0.048496447297495957,-2.677,-7.424,-10.336
1621785392831.111,-0.365,0.942,-0.056,-2.6959112432317656,-7.440920586049475,-10.35165983650069
1621785392836.094,-0.265,0.899,-0.105,-2.784134894514128,-7.5198575371968515,-10.42471521089591
1621785392841.076,-0.145,0.84,-0.161,-2.8723412555169645,-7.598779018094126,-10.497756267726327
1621785392846.058,-0.021,0.77,-0.225,-2.960551939089682,-7.677704366553926,-10.570800903947946
1621785392846.14,-0.018685693287604117,0.7687689857912788,-0.22608329250367468,-2.962,-7.679,-10.572
1621785392851.041,0.12,0.695,-0.291,-2.7944976864845184,-7.433837522945523,-10.219331492634677
1621785392856.022,0.286,0.625,-0.353,-2.624266941760092,-7.184681614757953,-9.860918397378521
1621785392861.004,0.426,0.545,-0.394,-2.4540028217303576,-6.9354768572598875,-9.502435031934098
1621785392862.233,0.4486901180735878,0.5230497770809858,-0.40263211013669103,-2.412,-6.874,-9.414
1621785392865.987,0.518,0.456,-0.429,-2.2358749487992475,-6.6269583718919245,-8.803277637028383
1621785392870.968,0.583,0.394,-0.447,-2.0021945628593536,-6.299186810686166,-7.992979292140116
1621785392875.95,0.628,0.332,-0.466,-1.7684683617276273,-5.971350986847096,-7.18252208079858
1621785392878.326,0.6380172532104695,0.306241348887364,-0.47601725321046956,-1.657,-5.815,-6.796
1621785392880.931,0.649,0.278,-0.487,-1.6268921370814813,-5.635647784334846,-6.464166026973315
1621785392885.914,0.632,0.244,-0.497,-1.569297798746909,-5.2925589301697595,-5.829389717371846
1621785392890.895,0.592,0.22,-0.504,-1.5117288559855577,-4.949621357161279,-5.1948933052171675
1621785392894.419,0.5538035871802411,0.20231647554640791,-0.5131954327158679,-1.471,-4.707,-4.746
1621785392895.877,0.538,0.195,-0.517,-1.4603086947946535,-4.630620590778753,-4.658929285573408
1621785392900.858,0.489,0.162,-0.539,-1.4237842458998984,-4.369687451640799,-4.361471697540698
1621785392905.84,0.428,0.147,-0.569,-1.3872508458119035,-4.108690364571481,-4.063941210383384
1621785392910.511,0.38018406351073214,0.12356081544643732,-0.5971270214642752,-1.353,-3.864,-3.785
1621785392910.822,0.377,0.122,-0.599,-1.3281806885250875,-3.863613406363319,-3.771353244625165
1621785392915.803,0.311,0.094,-0.621,-0.930721039615227,-3.8574224460999256,-3.5528123473273756
1621785392920.784,0.236,0.059,-0.623,-0.5332613907053665,-3.851231485836532,-3.3342714500295862
1621785392925.766,0.143,0.031,-0.618,-0.13570433476459964,-3.8450390083296666,-3.1156769940372335
1621785392926.602,0.12688863836878736,0.026300852857562985,-0.6136365062248799,-0.069,-3.844,-3.079
1621785392930.747,0.047,0.003,-0.592,0.0953273207215134,-3.844,-3.005851161308919
1621785392935.728,-0.051,-0.007,-0.574,0.2927949846018477,-3.844,-2.917950194942124
1621785392940.708,-0.161,-0.009,-0.555,0.49022393312802454,-3.844,-2.8300664623693432
1621785392942.695,-0.1964979417818289,-0.012988532784475154,-0.5502137606586298,0.569,-3.844,-2.795
1621785392945.69,-0.25,-0.019,-0.543,0.6620615403289434,-3.8842025854221034,-2.8826639709898645
1621785392950.671,-0.309,-0.038,-0.529,0.8168378952479213,-3.9510659707471016,-3.0284632973235417
1621785392955.651,-0.361,-0.04,-0.501,0.9715839048370456,-4.0179162468896035,-3.174234038356497
1621785392958.786,-0.40504714068701914,-0.04251697946782967,-0.4852688783260646,1.069,-4.06,-3.266
1621785392960.633,-0.431,-0.044,-0.476,1.1286895908242682,-4.14551681762323,-3.3109967684675254
1621785392965.613,-0.51,-0.044,-0.445,1.2896132325944807,-4.376070881313246,-3.432308436878916
1621785392970.594,-0.578,-0.037,-0.408,1.4505684311137408,-4.606670156114879,-3.5536438942242046
1621785392974.878,-0.620143074208411,-0.037,-0.3830581805705323,1.589,-4.805,-3.658
1621785392975.575,-0.627,-0.037,-0.379,1.6029914882641216,-4.840693456128904,-3.6940833118390506
1621785392980.555,-0.632,-0.033,-0.344,1.702955893732267,-5.095711010635877,-3.9518862522568994
1621785392985.535,-0.628,-0.019,-0.309,1.8029202992004127,-5.350728565142848,-4.209689192674748
1621785392990.517,-0.602,-0.012,-0.271,1.902928810936291,-5.605858638425707,-4.4676058808356975
1621785392990.969,-0.5992776742817923,-0.011818511618786156,-0.2693666045690754,1.912,-5.629,-4.491
1621785392995.497,-0.572,-0.01,-0.253,1.9232574922990546,-5.811089937937209,-4.675904311011972
1621785393000.477,-0.529,-0.028,-0.227,1.9356384880350828,-6.011352543967466,-4.879262165976237
1621785393005.458,-0.483,-0.031,-0.188,1.9480219116553619,-6.211654421025477,-5.082659898939318
1621785393007.058,-0.4653281694283753,-0.039032650259829396,-0.18028865575056377,1.952,-6.276,-5.148
1621785393010.438,-0.428,-0.056,-0.164,1.830373452294246,-6.267807538237436,-5.228454175770818
1621785393015.418,-0.36,-0.086,-0.147,1.6511666970138383,-6.255736616897305,-5.346996813546977
1621785393020.399,-0.291,-0.124,-0.134,1.471924799708667,-6.243663328477786,-5.465562697256615
1621785393023.148,-0.250695008335785,-0.1411158183779543,-0.1373127390408944,1.373,-6.237,-5.531
1621785393025.378,-0.218,-0.155,-0.14,1.3145064722218007,-6.1812786773297725,-5.433141159688605
1621785393030.358,-0.152,-0.187,-0.14,1.1838790384994764,-6.056842117243577,-5.214603320333247
1621785393035.339,-0.091,-0.213,-0.141,1.053219585110096,-5.932375055010091,-4.996011912530161
1621785393039.236,-0.06595420221633813,-0.2294363047955281,-0.1441307247229577,0.951,-5.835,-4.825
1621785393040.318,-0.059,-0.234,-0.145,0.9589359028831562,-5.8277366312594845,-4.738579362670714
1621785393045.298,-0.054,-0.244,-0.154,0.9954603945371775,-5.794307435508346,-4.3408338391502275
1621785393050.279,-0.075,-0.251,-0.155,1.0319920485584217,-5.760871684370258,-3.9430103186646432
1621785393055.258,-0.117,-0.255,-0.15,1.06850937784522,-5.72744904400607,-3.5453427921092566
1621785393055.325,-0.11788673139158577,-0.255,-0.14971785819358635,1.069,-5.727,-3.54
1621785393060.237,-0.183,-0.255,-0.129,0.9972486304384114,-5.8766092386603335,-3.441380032474923
1621785393065.218,-0.257,-0.255,-0.101,0.9244916005280969,-6.028315386132904,-3.341377816896065
1621785393070.197,-0.328,-0.255,-0.084,0.8517630999893773,-6.17996204683066,-3.241414814027953
1621785393071.413,-0.3468063646170442,-0.2562211925076003,-0.07935946847111897,0.834,-6.217,-3.217
1621785393075.176,-0.405,-0.26,-0.065,0.627454759303102,-6.338634796333394,-3.6228391762277665
1621785393080.156,-0.473,-0.271,-0.056,0.3541069477326534,-6.499609725004553,-4.159938217082498
1621785393085.135,-0.51,-0.302,-0.047,0.08081273902749952,-6.660553086869423,-4.696931934073939
1621785393087.5,-0.5190230904990686,-0.3200461809981371,-0.046050201000098046,-0.049,-6.737,-4.952
1621785393090.115,-0.529,-0.34,-0.045,0.11353167630233228,-6.684502268554347,-5.52898745087328
1621785393095.094,-0.518,-0.325,-0.037,0.42299587259677396,-6.584545333151242,-6.627585347718548
1621785393100.073,-0.501,-0.271,0.002,0.7324600688912155,-6.484588397748137,-7.726183244563816
1621785393103.589,-0.48970099048739824,-0.2314534667058939,0.0486084142394822,0.951,-6.414,-8.502
