time,gyro_x,gyro_y,gyro_z,acc_x,acc_y,acc_z
1621787212677.909,,,,0.804,-6.129,-8.404
1621787212696.477,,,,0.765,-6.855,-9.267
1621787212715.349,,,,0.971,-7.237,-9.248
1621787212734.523,,,,2.01,-6.835,-8.179
1621787212754.004,,,,2.295,-5.835,-6.982
1621787212763.456,0.552,1.389,1.267,2.2259848478976942,-5.373898766388943,-6.5899139184912485
1621787212769.074,0.508,1.386,1.29,2.184965433055609,-5.09984151650197,-6.356876083446361
1621787212772.904,0.47326792845980203,1.387362042021184,1.3029393992012501,2.157,-4.913,-6.198
1621787212774.698,0.457,1.388,1.309,2.151284242855035,-4.87722724407548,-6.166070598017784
1621787212780.33,0.398,1.395,1.33,2.133339659080241,-4.7649189007953,-6.065828440379277
1621787212785.966,0.346,1.384,1.347,2.1153826294542872,-4.652532663653554,-5.965516757641189
1621787212791.108,0.3059063730368191,1.4013131570977373,1.3588458443300309,2.099,-4.55,-5.874
1621787212791.609,0.302,1.403,1.36,2.0928012671425136,-4.544898388002245,-5.874
1621787212797.256,0.26,1.386,1.388,2.0229265645467427,-4.487390889405726,-5.874
1621787212802.91,0.206,1.382,1.393,1.9529702996765312,-4.429816264335552,-5.874
1621787212808.569,0.138,1.388,1.395,1.8829475766567754,-4.372186943620178,-5.874
1621787212809.373,0.1290624246079614,1.3870069360675512,1.3961349302085129,1.873,-4.364,-5.874
1621787212814.236,0.075,1.381,1.403,1.8156844818628692,-4.408313386707874,-5.910352898077717
1621787212819.907,0.01,1.368,1.405,1.7488475495224267,-4.45998823717479,-5.952744841275128
1621787212825.584,-0.044,1.36,1.412,1.6819386814445763,-4.511718704623869,-5.99518241038006
1621787212827.7,-0.0626130916587922,1.355160596168714,1.4172116656644618,1.657,-4.531,-6.011
1621787212831.268,-0.094,1.347,1.426,1.6323577308090598,-4.616568824513422,-6.069986219165715
1621787212836.957,-0.138,1.339,1.428,1.593068359841746,-4.752998844958976,-6.164033217386686
1621787212842.652,-0.169,1.321,1.431,1.553736836515228,-4.889575236982555,-6.258181115743077
1621787212846.089,-0.1840721596505503,1.316779795297846,1.4334115455440881,1.53,-4.972,-6.315
1621787212848.353,-0.194,1.314,1.435,1.5395715590138552,-5.02133034260987,-6.366784588510859
1621787212854.06,-0.204,1.309,1.443,1.5637001865893843,-5.145685577037596,-6.497326650522053
1621787212859.772,-0.208,1.3,1.456,1.5878494580967883,-5.270147207114216,-6.627980401498009
1621787212864.538,-0.2088333831376734,1.2958330843116328,1.4626670651013873,1.608,-5.374,-6.737
1621787212865.491,-0.209,1.295,1.464,1.6165956692030754,-5.385117751783618,-6.7637649579976
1621787212871.215,-0.199,1.286,1.477,1.6682313494837069,-5.451904020889105,-6.924546716955255
1621787212876.945,-0.182,1.265,1.485,1.7199198855319204,-5.5187586543406875,-7.0854930567461
1621787212882.682,-0.15,1.258,1.506,1.7716700866423136,-5.585693046196046,-7.246631407509
1621787212883.051,-0.14832828712366047,1.2570355502636503,1.5067715597890798,1.775,-5.59,-7.257
1621787212888.423,-0.124,1.243,1.518,1.8970532341381985,-5.584215486533735,-7.3790532341381985
1621787212894.171,-0.094,1.227,1.536,2.0276430946779005,-5.5780263936171615,-7.509643094677901
1621787212899.925,-0.07,1.218,1.557,2.1583771737273096,-5.571830465700128,-7.64037717372731
1621787212901.625,-0.06439158082156939,1.2138674806053669,1.5626084191784306,2.197,-5.57,-7.679
1621787212905.684,-0.051,1.204,1.576,2.2845637306921356,-5.5442972133789254,-7.719514561962033
1621787212911.449,-0.031,1.21,1.595,2.4089257163070394,-5.5077929489447,-7.777055182171914
1621787212917.221,-0.016,1.22,1.614,2.533440435483237,-5.47124385227109,-7.834666470148961
1621787212920.26,-0.008635253349110425,1.22,1.628729493301779,2.599,-5.452,-7.865
1621787212922.998,-0.002,1.22,1.642,2.633417564479269,-5.454929154423768,-7.873641005550114
1621787212928.781,0.012,1.229,1.658,2.7061102840352595,-5.461115768854065,-7.891891518119491
1621787212934.57,0.026,1.25,1.684,2.77887972575906,-5.467308912830559,-7.910161292850147
1621787212938.955,0.03810717896865521,1.2666473710819008,1.697620576339737,2.834,-5.472,-7.924
1621787212940.365,0.042,1.272,1.702,2.8406171875,-5.469067382812501,-7.9284365234375
1621787212946.166,0.066,1.292,1.723,2.8678433333333335,-5.45700125,-7.946690416666667
1621787212951.969,0.094,1.318,1.738,2.8950786458333333,-5.4449310546875,-7.964950455729166
1621787212957.705,0.12559788181894596,1.3416984113642096,1.7587361099436831,2.922,-5.433,-7.983
1621787212957.778,0.126,1.342,1.759,2.9214294263497464,-5.431742409097399,-7.981513403346617
1621787212963.594,0.15,1.361,1.778,2.875970545091065,-5.331547323874184,-7.863072916801889
1621787212969.414,0.155,1.388,1.794,2.8304792231900615,-5.231280736827074,-7.7445479080394115
1621787212975.24,0.164,1.412,1.805,2.7849421027351915,-5.130913206028585,-7.62590357379305
1621787212976.512,0.16509032312070987,1.412,1.8082709693621295,2.775,-5.109,-7.6
1621787212981.073,0.169,1.412,1.82,2.7181834711599437,-5.021236595876849,-7.497972020551047
1621787212986.911,0.169,1.412,1.834,2.6454612338393444,-4.908903948441201,-7.367381449702993
1621787212992.754,0.148,1.426,1.848,2.5726751303852673,-4.796472648212137,-7.236676191585459
1621787212995.377,0.14172272765211585,1.429138636173942,1.856070778732994,2.54,-4.746,-7.178
1621787212998.604,0.134,1.433,1.866,2.474688452259621,-4.684269503180112,-7.147987382761602
1621787213004.459,0.103,1.431,1.883,2.3561908325055154,-4.5722691419503825,-7.093534168462064
1621787213010.32,0.068,1.421,1.895,2.2375696850850826,-4.460152026111749,-7.039024189490795
1621787213014.301,0.03814423036910657,1.4257497815321876,1.9024639424077232,2.157,-4.384,-7.002
1621787213016.187,0.024,1.428,1.906,2.092730129746551,-4.380026592256356,-7.007860776421875
1621787213022.059,-0.024,1.412,1.911,1.8926241207710213,-4.3676552779456586,-7.026108465030154
1621787213027.937,-0.072,1.405,1.92,1.69231843841218,-4.355271619067214,-7.044374361875859
1621787213033.287,-0.11745529973034641,1.4031817880107862,1.9245455299730347,1.51,-4.344,-7.061
1621787213033.822,-0.122,1.403,1.925,1.489075287150036,-4.353100143575018,-7.071195531227566
1621787213039.711,-0.169,1.401,1.927,1.2587124397497693,-4.453284791303457,-7.183439442108502
1621787213045.606,-0.202,1.389,1.923,1.0281108347861758,-4.553573274535945,-7.295799687211568
1621787213051.508,-0.229,1.363,1.911,0.7972322710491232,-4.653982206953133,-7.408294880012306
1621787213052.332,-0.22913951469554794,1.3600701913934934,1.9105814559133563,0.765,-4.668,-7.424
1621787213057.414,-0.23,1.342,1.908,0.5849234327480897,-4.759235247514631,-7.520289095044596
1621787213063.326,-0.229,1.312,1.892,0.37544254900457463,-4.865368102941552,-7.632301029926653
1621787213069.246,-0.223,1.299,1.874,0.16566753558741598,-4.971649978276981,-7.744470239464335
1621787213071.438,-0.218559109645507,1.2864174773289365,1.8669685902720528,0.088,-5.011,-7.786
1621787213075.169,-0.211,1.265,1.855,-0.01693525784753365,-5.026380121280066,-7.805273822869955
1621787213081.099,-0.188,1.236,1.826,-0.1837247757847534,-5.050826080309824,-7.835908632286995
1621787213087.035,-0.176,1.204,1.796,-0.3506722253363229,-5.075295187015898,-7.866572449551569
1621787213090.602,-0.17179712348469284,1.1871884939387713,1.7791884939387714,-0.451,-5.09,-7.885
1621787213092.976,-0.169,1.176,1.768,-0.49582357871211064,-5.06456292778321,-7.885
1621787213098.923,-0.169,1.148,1.737,-0.6081083950272383,-5.000842067835782,-7.885
1621787213104.876,-0.169,1.126,1.7,-0.7205038413186199,-4.937058426138745,-7.885
1621787213109.828,-0.17814097836774828,1.1027320550639135,1.670915068829892,-0.814,-4.884,-7.885
1621787213110.835,-0.18,1.098,1.665,-0.8431927254772876,-4.884,-7.863954081632653
1621787213116.8,-0.201,1.058,1.611,-1.0161056616194866,-4.884,-7.739295918367347
1621787213122.77,-0.229,1.012,1.564,-1.189160138248848,-4.884,-7.614535714285714
1621787213128.745,-0.258,0.965,1.517,-1.3623632323897301,-4.884,-7.489668367346939
1621787213129.112,-0.2599629418006693,0.9621169292302669,1.5141169292302668,-1.373,-4.884,-7.482
1621787213134.727,-0.29,0.918,1.47,-1.590854939721309,-4.8927021945618705,-7.5234104430875215
1621787213140.443,-0.325,0.866,1.429,-1.8126314388601847,-4.901561035436564,-7.565566306560201
1621787213146.158,-0.344,0.799,1.381,-2.034360576170346,-4.910417984447576,-7.607713167371223
1621787213147.824,-0.344874386024858,0.7748086533122625,1.3681756716354163,-2.099,-4.913,-7.62
1621787213151.874,-0.347,0.716,1.337,-2.212847153719008,-5.014124350413224,-7.708182188429753
1621787213157.589,-0.332,0.621,1.292,-2.37349867107438,-5.156822519008265,-7.832617467768595
1621787213163.305,-0.291,0.541,1.25,-2.534170776859504,-5.2995389752066115,-7.957068694214876
1621787213166.287,-0.2701276859327609,0.5029080268272886,1.2317367251911657,-2.618,-5.374,-8.022
1621787213169.02,-0.251,0.468,1.215,-2.532438878603544,-5.3377327426606715,-8.039467495371595
1621787213174.735,-0.197,0.393,1.166,-2.3535126421581594,-5.261890306797143,-8.075995688971172
1621787213180.45,-0.154,0.34,1.11,-2.174594049193335,-5.186051110817243,-8.112522322137002
1621787213184.749,-0.14572403332621234,0.3189339030121769,1.0814102969450974,-2.04,-5.129,-8.14
1621787213186.164,-0.143,0.312,1.072,-1.9993709660353403,-5.080091842133108,-8.091091842133109
1621787213191.878,-0.166,0.321,1.04,-1.8353126653264205,-4.8826027933552005,-7.893602793355201
1621787213197.594,-0.206,0.34,1.009,-1.671191276055444,-4.685037800232779,-7.69603780023278
1621787213203.208,-0.24922922452467422,0.348842341380047,0.9500510574663533,-1.51,-4.491,-7.502
1621787213203.308,-0.25,0.349,0.949,-1.5070771611469687,-4.492279758755687,-7.4981715691461215
1621787213209.021,-0.304,0.349,0.866,-1.3402614802666384,-4.565319648714421,-7.2796708813882125
1621787213214.736,-0.349,0.368,0.778,-1.1733816395090466,-4.638387630938525,-7.061086154904243
1621787213220.449,-0.375,0.391,0.712,-1.0065659586287166,-4.71142752089726,-6.842585467146334
1621787213221.667,-0.37393420209356976,0.40101850032044434,0.7049657338175603,-0.971,-4.727,-6.796
1621787213226.163,-0.37,0.438,0.679,-0.8134005079096344,-4.996892175017195,-6.8939211681921595
1621787213231.877,-0.344,0.489,0.656,-0.613114967462039,-5.339885032537961,-7.01836442516269
1621787213237.59,-0.298,0.536,0.637,-0.41285510025924543,-5.682833924130998,-7.142791730596265
1621787213240.125,-0.28291358974358977,0.5466492307692308,0.6223573076923077,-0.324,-5.835,-7.198
1621787213243.303,-0.264,0.56,0.604,-0.5176419000563894,-6.030389570634516,-7.251129185575039
1621787213249.017,-0.232,0.567,0.553,-0.8658164925753873,-6.381706533122097,-7.346657232619962
1621787213254.569,-0.213,0.572,0.517,-1.2041133696732096,-6.723056631132354,-7.439475148357992
1621787213258.309,-0.2055858412530799,0.572,0.4981275959169307,-1.432,-6.953,-7.502
1621787213260.118,-0.202,0.572,0.489,-1.4339191422066502,-7.0748150263800085,-7.558463183869341
1621787213265.665,-0.188,0.579,0.494,-1.4398045289089447,-7.448382203378277,-7.731617455794741
1621787213271.208,-0.178,0.588,0.511,-1.445685512126624,-7.821669874984663,-7.9046421725675176
1621787213276.217,-0.1563041945717307,0.5852880243214663,0.5317918135354248,-1.451,-8.159,-8.061
1621787213276.749,-0.154,0.585,0.534,-1.4174627307986454,-8.184978736479843,-8.086085996394624
1621787213282.285,-0.124,0.585,0.581,-1.068468889981427,-8.455317354965585,-8.347134627990823
1621787213287.818,-0.101,0.579,0.628,-0.7196443515787175,-8.72552482792527,-8.608056620780072
1621787213293.349,-0.068,0.567,0.703,-0.3709583333333335,-8.995625,-8.868875
1621787213294.094,-0.061664531236193344,0.5632256781832641,0.7114922240876557,-0.324,-9.032,-8.904
1621787213298.875,-0.021,0.539,0.766,-0.24494227690118103,-9.018868378197146,-9.051395754930002
1621787213304.4,0.042,0.487,0.819,-0.15358363554253968,-9.00369355302232,-9.221725425259672
1621787213309.92,0.119,0.438,0.843,-0.06230573536052991,-8.988532139093783,-9.391904561192232
1621787213311.934,0.16463456943092308,0.4193810956721834,0.8481110717762633,-0.029,-8.983,-9.454
1621787213315.437,0.244,0.387,0.857,-0.138965202846292,-8.797691912198198,-9.33439562910457
1621787213320.952,0.361,0.347,0.857,-0.3120906535777452,-8.505949202736609,-9.146094602190932
1621787213326.463,0.475,0.311,0.857,-0.48509347793301066,-8.214413137365124,-8.957926950656045
1621787213329.741,0.5279582539330822,0.29017372036339467,0.8581900731220917,-0.588,-8.041,-8.846
1621787213331.972,0.564,0.276,0.859,-0.628668003626274,-7.860127798686849,-8.649061426883877
1621787213337.476,0.625,0.253,0.846,-0.7290028845361392,-7.41388531908464,-8.163180475811105
1621787213342.977,0.66,0.236,0.845,-0.8292799098925854,-6.967900153841927,-7.677579695612758
1621787213347.515,0.6550487480021311,0.23434958266737702,0.8408739566684426,-0.912,-6.6,-7.277
1621787213348.476,0.654,0.234,0.84,-0.9029200524789394,-6.526436113796437,-7.218333752244165
1621787213353.971,0.621,0.237,0.845,-0.8510119044330894,-6.1058868664549095,-6.8829511669658885
1621787213359.462,0.56,0.225,0.853,-0.7991406573677668,-5.6856365833448415,-6.5478070017953325
1621787213364.891,0.48,0.236,0.866,-0.7478529070570363,-5.270113672144731,-6.216432854578097
1621787213365.193,0.47426489917176806,0.2369465700396111,0.8664454447245229,-0.745,-5.247,-6.198
1621787213370.315,0.377,0.253,0.874,-0.7277369456066946,-5.0603249372384935,-6.10319949790795
1621787213375.735,0.278,0.271,0.892,-0.709468340306834,-4.862776290097629,-6.002876987447698
1621787213381.151,0.173,0.295,0.906,-0.6912145467224547,-4.665387810320781,-5.902635815899581
1621787213382.698,0.1455522468868435,0.2975732268543584,0.9105746255188595,-0.686,-4.609,-5.874
1621787213386.562,0.077,0.304,0.922,-0.7229562220357942,-4.65679966442953,-5.971590981543624
1621787213391.97,-0.012,0.342,0.918,-0.7746790548098434,-4.723698657718121,-6.108176426174497
1621787213397.373,-0.075,0.356,0.93,-0.826355187360179,-4.790537248322148,-6.2446385486577185
1621787213400.159,-0.09770435018540291,0.35496798408248165,0.9336120557113141,-0.853,-4.825,-6.315
1621787213402.772,-0.119,0.354,0.937,-0.853,-4.907356155743679,-6.393005830576891
1621787213408.166,-0.155,0.367,0.932,-0.853,-5.077362406794864,-6.554031787856703
1621787213413.557,-0.182,0.382,0.927,-0.853,-5.247268627011269,-6.71496299826204
1621787213417.578,-0.18647919499592058,0.3767742725047593,0.9240138700027196,-0.853,-5.374,-6.835
1621787213418.943,-0.188,0.375,0.923,-0.8807399662731872,-5.390974030354132,-6.876649241146712
1621787213424.325,-0.197,0.375,0.92,-0.9900925801011804,-5.457886677908937,-7.04083305227656
1621787213429.703,-0.194,0.382,0.904,-1.0993658234963462,-5.524750758853288,-7.2048976953344575
1621787213434.951,-0.18325590694292984,0.3771163213376954,0.8766513994910942,-1.206,-5.59,-7.365
1621787213435.076,-0.183,0.377,0.876,-1.2088999098286743,-5.591060414788097,-7.367265103697025
1621787213440.446,-0.159,0.372,0.845,-1.3334827547339945,-5.636616828223625,-7.464576082055906
1621787213445.811,-0.127,0.358,0.803,-1.457946658025248,-5.6821297480838595,-7.561794155770965
1621787213451.171,-0.089,0.33,0.77,-1.5822916197024348,-5.727599174368801,-7.6589193248422
1621787213452.279,-0.08403640588690937,0.32710457010069716,0.7619341595662278,-1.608,-5.737,-7.679
1621787213456.529,-0.065,0.316,0.731,-1.608,-5.751514456911902,-7.616268025211272
1621787213461.881,-0.031,0.29,0.696,-1.608,-5.769792600548317,-7.537269268816597
1621787213467.229,-0.002,0.283,0.667,-1.608,-5.788056569910404,-7.4583317741160515
1621787213469.555,0.00804635275778277,0.28212640410801887,0.6556432534042456,-1.608,-5.796,-7.424
1621787213472.554,0.021,0.281,0.641,-1.6268573621593962,-5.792507895896408,-7.327967137151223
1621787213477.873,0.049,0.276,0.613,-1.6603029295126008,-5.786314272312481,-7.157642488593237
1621787213483.19,0.068,0.284,0.593,-1.6937346808238454,-5.780123207254843,-6.987388199508194
1621787213486.731,0.07600220689655172,0.2900016551724138,0.572327632183908,-1.716,-5.776,-6.874
1621787213488.5,0.08,0.293,0.562,-1.763613974570956,-5.740573550373453,-6.863878157249558
1621787213493.807,0.099,0.297,0.532,-1.9064493272136382,-5.634299090598096,-6.83351402588517
1621787213499.109,0.099,0.297,0.49,-2.0491532584525913,-5.528122412908376,-6.803177832259536
1621787213503.859,0.10079342766281053,0.29520657233718944,0.4639952988892474,-2.177,-5.433,-6.776
1621787213504.406,0.101,0.295,0.461,-2.1873785591766723,-5.429220154373928,-6.776640651801029
1621787213509.699,0.094,0.295,0.429,-2.2877833619210977,-5.392652973127501,-6.782838479130932
1621787213514.987,0.08,0.283,0.391,-2.388095540308748,-5.356119525443111,-6.789030588907948
1621787213520.271,0.077,0.269,0.358,-2.488328987993139,-5.31961475128645,-6.795217838765009
1621787213520.939,0.07497548906257226,0.2667224251953938,0.3529387226564306,-2.501,-5.315,-6.796
1621787213525.55,0.061,0.251,0.318,-2.5115585052248326,-5.315,-6.8065585052248325
1621787213530.824,0.049,0.222,0.272,-2.5236347920817623,-5.315,-6.818634792081762
1621787213536.095,0.031,0.195,0.23,-2.5357043705115894,-5.315,-6.830704370511589
1621787213537.971,0.02565646731571627,0.18466917014371814,0.2164630505331479,-2.54,-5.315,-6.835
1621787213541.361,0.016,0.166,0.192,-2.4479868623420677,-5.326776084862946,-6.8585521697258915
1621787213546.621,-0.007,0.129,0.161,-2.3052227077374194,-5.34504741918328,-6.895094838366561
1621787213551.878,-0.03,0.112,0.133,-2.1625446953471994,-5.363307728795044,-6.931615457590088
1621787213554.956,-0.035860914838229827,0.10789735961323912,0.12069207883971737,-2.079,-5.374,-6.953
1621787213557.13,-0.04,0.105,0.112,-2.010983511573607,-5.376566659940618,-7.005873194776743
1621787213562.377,-0.068,0.089,0.093,-1.8468089418004672,-5.382761926724511,-7.133495690524921
1621787213567.62,-0.091,0.072,0.07,-1.6827565939292612,-5.38895258136116,-7.261023176039895
1621787213571.895,-0.10813946117274167,0.06057369255150555,0.061022187004754355,-1.549,-5.394,-7.365
1621787213572.858,-0.112,0.058,0.059,-1.5367501372396057,-5.4018057265031345,-7.395710121059779
1621787213578.094,-0.122,0.054,0.044,-1.4701368495564995,-5.4442523330733,-7.562708084135101
1621787213583.326,-0.124,0.038,0.028,-1.4035763630059808,-5.486665294270607,-7.72957367599896
1621787213588.552,-0.12,0.016,0.01,-1.3370904192308803,-5.529030756117997,-7.896252390858398
1621787213588.795,-0.11920932080587107,0.015488384050857758,0.00953489459168887,-1.334,-5.531,-7.904
1621787213593.775,-0.103,0.005,0.0,-1.2323439283748154,-5.649795758120129,-7.921435198331063
1621787213598.993,-0.08,0.005,-0.01,-1.125828818126503,-5.774269811375423,-7.939703778286443
1621787213604.206,-0.054,0.005,-0.012,-1.0194133804653318,-5.898627386781792,-7.957955263234144
1621787213605.647,-0.04570134983127109,0.0036168916385451817,-0.012553243344581928,-0.99,-5.933,-7.963
1621787213609.415,-0.024,0.0,-0.014,-0.858141053396295,-5.919769255357791,-7.958515001816201
1621787213614.618,-0.009,0.0,-0.009,-0.6760725027243009,-5.901500472212132,-7.952322193970214
1621787213619.819,0.005,0.005,-0.005,-0.4940637559026517,-5.883237689792953,-7.946131420268797
1621787213622.45,0.010571871768355738,0.006013067594246498,-0.001454263420137257,-0.402,-5.874,-7.943
1621787213625.013,0.016,0.007,0.002,-0.3210991040862408,-5.864977026731736,-7.914554694442421
1621787213630.204,0.016,0.016,0.007,-0.1572397261271761,-5.846701595163522,-7.856940622040935
1621787213635.39,0.017,0.03,0.028,0.006450112899701321,-5.828445072474325,-7.7993861606817685
1621787213639.209,0.016262887569503347,0.041056686457449816,0.042005136179436436,0.127,-5.815,-7.757
1621787213640.571,0.016,0.045,0.047,0.16140203986206092,-5.819809763866971,-7.744201136828569
1621787213645.748,0.005,0.07,0.063,0.29215938979484485,-5.83809100473435,-7.6955544450289315
1621787213650.92,0.01,0.105,0.082,0.42278724647846166,-5.85635414109533,-7.646955929627681
1621787213655.917,0.013868455868455868,0.1398161028161028,0.1052107352107352,0.549,-5.874,-7.6
1621787213656.087,0.014,0.141,0.106,0.5529058726995664,-5.872806822177939,-7.5982051342163865
1621787213661.251,0.023,0.176,0.129,0.6716084866955808,-5.836545188137381,-7.543657718907514
1621787213666.409,0.031,0.204,0.15,0.7901708035400306,-5.800326412495604,-7.489174774352362
1621787213671.563,0.04,0.239,0.173,0.9086433302074786,-5.764135066229047,-7.434733091079592
1621787213672.579,0.040986536455864225,0.24551114060870388,0.1747757656205556,0.932,-5.757,-7.424
1621787213676.713,0.045,0.272,0.182,1.000011962353769,-5.695938165186032,-7.3825474536019
1621787213681.873,0.059,0.297,0.202,1.084910428944205,-5.619715454305568,-7.330802767760284
1621787213687.03,0.063,0.332,0.216,1.1697566775148796,-5.54353962529686,-7.279089908229982
1621787213689.233,0.06086164565361646,0.3431194426011944,0.22198739216987393,1.206,-5.511,-7.257
1621787213692.181,0.058,0.358,0.23,1.1747782805429865,-5.46416742081448,-7.25345207733443
1621787213697.328,0.044,0.38,0.239,1.120267614738203,-5.382401422107304,-7.247257683492977
1621787213702.472,0.019,0.407,0.251,1.0657879767291532,-5.300681965093729,-7.241066815537404
1621787213705.851,0.006504561436852609,0.42146840254680223,0.2595495105958377,1.03,-5.247,-7.237
1621787213707.61,0.0,0.429,0.264,0.9748047260566597,-5.247,-7.250586528970668
1621787213712.744,-0.024,0.445,0.272,0.8137157294597741,-5.247,-7.290239205056055
1621787213717.874,-0.045,0.468,0.274,0.6527416432180793,-5.247,-7.32986359551555
1621787213722.423,-0.05742673399390244,0.48042673399390246,0.2784381192835366,0.51,-5.247,-7.365
1621787213722.999,-0.059,0.482,0.279,0.49804572585172713,-5.25212326034926,-7.371133971574624
1621787213728.12,-0.066,0.499,0.286,0.3917494755193098,-5.29767879620601,-7.425676653960937
1621787213733.236,-0.058,0.511,0.293,0.2855596430576486,-5.3431887244038645,-7.480164731259049
1621787213738.349,-0.044,0.503,0.288,0.17943062080784805,-5.388672591082351,-7.534621605649618
1621787213738.948,-0.04188918634668706,0.5039381394014725,0.2871791280237116,0.167,-5.394,-7.541
1621787213743.456,-0.026,0.511,0.281,0.07042058082678918,-5.388528078233812,-7.58942650763076
1621787213748.559,-0.016,0.506,0.271,-0.03890533412357383,-5.382333975403763,-7.6442443176766925
1621787213753.658,-0.009,0.508,0.26,-0.14814233219736253,-5.376144910357089,-7.699017543339754
1621787213755.425,-0.00691861969805895,0.5041841361131081,0.2575717229810688,-0.186,-5.374,-7.718
1621787213758.752,-0.003,0.497,0.253,-0.186,-5.3818952505459565,-7.721846404112133
1621787213763.842,0.003,0.478,0.239,-0.186,-5.3939748042725775,-7.727731314902025
1621787213768.928,0.01,0.483,0.227,-0.186,-5.406044508490187,-7.733611427213169
1621787213771.859,0.015191476071497213,0.474347539880838,0.21892437055544878,-0.186,-5.413,-7.737
1621787213774.009,0.019,0.468,0.213,-0.18089654096460728,-5.4386481531009485,-7.729410240408903
1621787213779.086,0.03,0.454,0.201,-0.168846304716056,-5.499208314760335,-7.7114893762443915
1621787213784.183,0.035,0.44,0.19,-0.15674797182847464,-5.560010192862025,-7.693496983744911
1621787213788.29,0.042257813998082455,0.4254843720038351,0.17871006711409396,-0.147,-5.609,-7.679
1621787213789.276,0.044,0.422,0.176,-0.15054142077802388,-5.62724732061897,-7.6765990367606625
1621787213794.364,0.049,0.391,0.166,-0.16881946694810696,-5.721425728003806,-7.664207141052131
1621787213799.447,0.056,0.363,0.15,-0.187079095625288,-5.815509238476061,-7.651827731779466
1621787213804.528,0.063,0.346,0.134,-0.2053317081146968,-5.9095565977435225,-7.639453079244274
1621787213804.714,0.06310997257901574,0.34471698657814975,0.13297358926251984,-0.206,-5.913,-7.639
1621787213809.603,0.066,0.311,0.106,-0.1883933744635193,-6.021325509656653,-7.65093669527897
1621787213814.674,0.073,0.284,0.082,-0.17013084167858844,-6.133686516452074,-7.663318073438245
1621787213819.742,0.087,0.248,0.063,-0.15187973891273246,-6.245977199570815,-7.675691702432046
1621787213821.097,0.09262120189061444,0.2394343590238256,0.05684344554837465,-0.147,-6.276,-7.679
1621787213824.804,0.108,0.216,0.04,-0.07575941725812475,-6.336123421740755,-7.679
1621787213829.864,0.129,0.188,0.016,0.021483227493462848,-6.418191258871872,-7.679
1621787213834.918,0.15,0.168,-0.01,0.11860857676503553,-6.500160104594696,-7.679
1621787213837.436,0.1649557735994973,0.15204717482720287,-0.019970515732998212,0.167,-6.541,-7.679
1621787213839.969,0.18,0.136,-0.03,0.2203207222055739,-6.539445459994007,-7.645421935870543
1621787213845.016,0.206,0.113,-0.054,0.3265664369193887,-6.53634791729098,-7.578515013485166
1621787213850.057,0.23,0.103,-0.084,0.43267852861851963,-6.533254270302667,-7.511692238537608
1621787213853.73,0.24531037991858887,0.09570934289591006,-0.09931037991858888,0.51,-6.531,-7.463
1621787213855.095,0.251,0.093,-0.105,0.5569500210311261,-6.522769048191323,-7.432511882586228
1621787213860.13,0.264,0.086,-0.129,0.7301301826703521,-6.4924083042903495,-7.3200532087489485
1621787213865.159,0.279,0.086,-0.14,0.9031088060329286,-6.462082892681168,-7.207725408604735
1621787213869.982,0.2876362753193763,0.07928289697381843,-0.16015130907854472,1.069,-6.433,-7.1
1621787213870.185,0.288,0.079,-0.161,1.0707133237133237,-6.429573352573352,-7.095948051948052
1621787213875.206,0.284,0.075,-0.164,1.1130645442520442,-6.344870911495911,-6.9957889610389605
1621787213880.223,0.274,0.058,-0.178,1.155380756974507,-6.260238486050985,-6.895712662337662
1621787213885.266,0.269,0.042,-0.192,1.1979193722943722,-6.175161255411255,-6.7951103896103895
1621787213886.224,0.2650065907438818,0.04028853889023504,-0.19371146110976498,1.206,-6.159,-6.776
1621787213890.304,0.248,0.033,-0.201,1.2233098194046206,-6.126889030669689,-6.7170462672451325
1621787213895.339,0.225,0.019,-0.204,1.2446728566496028,-6.08725904853407,-6.644288096918019
1621787213900.37,0.206,0.014,-0.201,1.266018284719199,-6.047661732694819,-6.571589899869395
1621787213902.487,0.19631408450704224,0.007261971830985915,-0.20015774647887324,1.275,-6.031,-6.541
1621787213905.397,0.183,-0.002,-0.199,1.2416290247316846,-6.0415854168861856,-6.518214441617871
1621787213910.421,0.155,-0.026,-0.194,1.1840144657022864,-6.059861002814866,-6.478875468517153
1621787213915.44,0.136,-0.033,-0.188,1.126455902939804,-6.078118826486836,-6.43957472942664
1621787213918.706,0.1249287313796125,-0.04342001752507059,-0.18409249342809852,1.089,-6.09,-6.414
1621787213920.455,0.119,-0.049,-0.182,1.07829762030512,-6.099513226395449,-6.426648266912131
1621787213925.467,0.105,-0.068,-0.171,1.047629117687003,-6.126774117611553,-6.4628928609153595
1621787213930.473,0.099,-0.077,-0.164,1.0169979628483907,-6.1540018108014305,-6.4990933166337195
1621787213934.885,0.08842178430320471,-0.0858151797473294,-0.15782937417686943,0.99,-6.178,-6.531
1621787213935.478,0.087,-0.087,-0.157,0.9842674997352536,-6.178,-6.539304776024568
1621787213940.477,0.087,-0.103,-0.15,0.9359436317151026,-6.178,-6.609312430976838
1621787213945.473,0.086,-0.12,-0.143,0.8876504440174884,-6.178,-6.679275638795176
1621787213950.465,0.087,-0.133,-0.14,0.8393926566920319,-6.178,-6.749187561458979
1621787213951.023,0.08856583455702398,-0.13512506118453255,-0.14,0.834,-6.178,-6.757
1621787213955.453,0.101,-0.152,-0.14,0.8661983346983346,-6.1942367670701,-6.778465556465556
1621787213960.437,0.112,-0.171,-0.131,0.9024247884247883,-6.212504807838141,-6.802616525616526
1621787213965.416,0.131,-0.187,-0.126,0.9386139776139776,-6.230754057087391,-6.826742651742651
1621787213967.12,0.13819022858824684,-0.19213587756303346,-0.1222336897871088,0.951,-6.237,-6.835
1621787213970.393,0.152,-0.202,-0.115,1.0090964038622368,-6.232923059378089,-6.787095947692541
1621787213975.365,0.18,-0.22,-0.099,1.0973504143541397,-6.22672979548392,-6.71432509693606
1621787213980.332,0.199,-0.227,-0.089,1.1855177526039686,-6.220542613852353,-6.641625712765149
1621787213983.176,0.2070191768697448,-0.23215518513055022,-0.08212641982593302,1.236,-6.217,-6.6
1621787213985.297,0.213,-0.236,-0.077,1.2436818147171365,-6.202828376297696,-6.538942817506898
1621787213990.257,0.215,-0.257,-0.07,1.2616449532753022,-6.169689482750735,-6.396166836898029
1621787213995.214,0.208,-0.272,-0.056,1.279597481592146,-6.136570163269662,-6.25347518941415
1621787213999.191,0.1951531522649973,-0.27762049588406373,-0.050379504115936315,1.294,-6.11,-6.139
1621787214000.167,0.192,-0.279,-0.049,1.2778696702020356,-6.11,-6.125191460097198
1621787214005.115,0.171,-0.29,-0.033,1.1961004370816395,-6.11,-6.05519204083504
1621787214010.06,0.15,-0.295,-0.016,1.1143796191582358,-6.11,-5.985234067915763
1621787214015.0,0.122,-0.304,-0.003,1.0327435278295687,-6.11,-5.915348626096525
1621787214015.166,0.12089053693266093,-0.3042689607435973,-0.0027982794423019874,1.03,-6.11,-5.913
1621787214019.938,0.089,-0.312,0.003,0.850599215469952,-6.124675523275413,-5.980687107351905
1621787214024.87,0.059,-0.326,0.01,0.6651774079862708,-6.139843584321658,-6.050645919524379
1621787214029.799,0.023,-0.332,0.017,0.4798749195550245,-6.155001884710858,-6.120559713156202
1621787214031.099,0.01613822669376022,-0.34018134509590126,0.018847400505526093,0.431,-6.159,-6.139
1621787214034.725,-0.003,-0.363,0.024,0.2810858209528492,-6.217185868579945,-6.315839404507674
1621787214039.646,-0.023,-0.384,0.024,0.07763374763784969,-6.296151285163392,-6.555832337261288
1621787214044.563,-0.038,-0.396,0.017,-0.125656823733657,-6.375054018344113,-6.79563476163407
1621787214046.99,-0.04491582190419399,-0.39945791095209704,0.013048101769032002,-0.226,-6.414,-6.914
1621787214049.476,-0.052,-0.403,0.009,-0.22897977822270138,-6.455403234252271,-7.050756137378715
1621787214054.385,-0.056,-0.398,-0.007,-0.2348635453565378,-6.537156630217157,-7.320790081626367
1621787214059.292,-0.051,-0.386,-0.023,-0.2407449715077776,-6.61887749884491,-7.590716587093793
1621787214062.842,-0.026372652552926527,-0.3758593275217933,-0.035313673723536734,-0.245,-6.678,-7.786
1621787214064.193,-0.017,-0.372,-0.04,-0.16877740032735244,-6.693124888051635,-7.817873351656836
1621787214069.09,0.028,-0.346,-0.059,0.1074916463358142,-6.747945091257219,-7.933398412649393
1621787214073.984,0.075,-0.309,-0.073,0.3835816373799451,-6.802729764367994,-8.048848599487354
1621787214078.653,0.12465052421367948,-0.27940064902646033,-0.09018671992011981,0.647,-6.855,-8.159
1621787214078.874,0.127,-0.278,-0.091,0.6590918872890541,-6.843174330391702,-8.153507508902308
1621787214083.76,0.183,-0.257,-0.101,0.9264896113949528,-6.58166369407029,-8.032047592506581
1621787214088.642,0.22,-0.222,-0.12,1.1936735562780616,-6.320362130360737,-7.91068478092584
1621787214093.52,0.237,-0.194,-0.122,1.4606303607369562,-6.0592827063012855,-7.789425143211024
1621787214094.422,0.23514916850330594,-0.19196408535363654,-0.12366574834702464,1.51,-6.011,-7.767
1621787214098.394,0.227,-0.183,-0.131,1.5415448307202908,-5.817787911838218,-7.498622494887526
1621787214103.424,0.188,-0.152,-0.126,1.5814930849049458,-5.573104854957207,-7.15875023858214
1621787214108.452,0.129,-0.134,-0.119,1.621423888510187,-5.328528682875104,-6.819026448534424
1621787214110.539,0.09992035570241509,-0.12818407114048302,-0.11526118859031051,1.638,-5.227,-6.678
1621787214113.476,0.059,-0.12,-0.11,1.5065404217529388,-5.209254767674639,-6.598146454535876
1621787214118.498,-0.012,-0.106,-0.094,1.2817587488899258,-5.178912338004425,-6.461605521019914
1621787214123.519,-0.086,-0.106,-0.08,1.057020786609871,-5.148575808660836,-6.3250911389737645
1621787214126.759,-0.12862426395445034,-0.11310404399240839,-0.06643773419631126,0.912,-5.129,-6.237
1621787214128.536,-0.152,-0.117,-0.059,0.8130109472541391,-5.149412376730299,-6.316674115624718
1621787214133.551,-0.213,-0.124,-0.049,0.5336164540547061,-5.2070258753279655,-6.54155261015109
1621787214138.563,-0.26,-0.138,-0.045,0.25439877559636903,-5.264602913236225,-6.766288790373654
1621787214142.95,-0.27226134425110887,-0.14237905151825314,-0.045,0.01,-5.315,-6.963
1621787214143.572,-0.274,-0.143,-0.045,0.003189017760057992,-5.3233117071402685,-6.997709073335749
1621787214148.58,-0.279,-0.154,-0.054,-0.051643666183399786,-5.390226168901776,-7.277138909025009
1621787214153.583,-0.251,-0.159,-0.059,-0.10642021565784705,-5.457072127582458,-7.55628268092304
1621787214158.586,-0.22,-0.162,-0.063,-0.1611967651322943,-5.523918086263139,-7.83542645282107
1621787214159.116,-0.21650112326626295,-0.161151787458488,-0.06353013283844501,-0.167,-5.531,-7.865
1621787214163.585,-0.187,-0.154,-0.068,-0.08006274011555799,-5.593572677496446,-7.870537405088181
1621787214168.581,-0.141,-0.154,-0.075,0.017128414556674826,-5.66352554678283,-7.876727924494055
1621787214173.576,-0.117,-0.147,-0.075,0.11429582236742594,-5.733461324379102,-7.882916931360983
1621787214175.257,-0.11161057574719954,-0.14464212688939979,-0.07331580492099986,0.147,-5.757,-7.885
1621787214178.567,-0.101,-0.14,-0.07,0.19938725564479465,-5.760903364146082,-7.8022075920594025
1621787214183.557,-0.091,-0.133,-0.065,0.2783680860736475,-5.766788210334899,-7.677386907107137
1621787214188.543,-0.087,-0.133,-0.068,0.35728708895287165,-5.772668449765115,-7.5526639339293835
1621787214191.368,-0.08813335618786423,-0.12959993143640727,-0.0651666095303394,0.402,-5.776,-7.482
1621787214193.528,-0.089,-0.127,-0.063,0.426960232960233,-5.781233597233597,-7.464957260290594
1621787214198.509,-0.089,-0.122,-0.059,0.4845143325143325,-5.793301392301393,-7.425659568659569
1621787214203.492,-0.087,-0.126,-0.056,0.5420910000910001,-5.8053739193739196,-7.386346467679801
1621787214207.465,-0.087,-0.12998657586595463,-0.050418793787663514,0.588,-5.815,-7.355
1621787214208.475,-0.087,-0.131,-0.049,0.5905132512188084,-5.822414091095485,-7.356822107133636
1621787214213.453,-0.086,-0.127,-0.047,0.602899685615783,-5.85895407256656,-7.365802272071443
1621787214218.43,-0.08,-0.127,-0.042,0.6152842974955576,-5.895488677611895,-7.3747811156842795
1621787214223.404,-0.075,-0.126,-0.035,0.6276616193065322,-5.9320017769542694,-7.383754673997236
1621787214223.54,-0.07494528755955011,-0.12575379401797554,-0.034699081577525666,0.628,-5.933,-7.384
1621787214228.375,-0.073,-0.117,-0.024,0.6219747782831586,-5.986323212194046,-7.413523586412523
1621787214233.344,-0.058,-0.106,-0.021,0.6157825273438094,-6.0411246330072865,-7.4438656160153345
1621787214238.31,-0.042,-0.093,-0.014,0.6095939273164276,-6.095893743249616,-7.474189756149505
1621787214239.589,-0.037361892583120206,-0.0896502557544757,-0.010907928388746803,0.608,-6.11,-7.482
1621787214243.274,-0.024,-0.08,-0.002,0.5672951241810148,-6.134606902331251,-7.495568291939662
1621787214248.235,0.0,-0.058,0.005,0.5124906597592565,-6.167737284778303,-7.5138364467469145
1621787214253.194,0.023,-0.04,0.012,0.4577104677738839,-6.200852994057596,-7.532096510742039
1621787214255.612,0.03129439873885413,-0.03219350706931376,0.014439529040839451,0.431,-6.217,-7.541
1621787214258.15,0.04,-0.024,0.017,0.423226317476306,-6.226360148344856,-7.525452634952613
1621787214263.103,0.059,0.002,0.021,0.4080543625902355,-6.244628420554614,-7.495108725180471
1621787214268.054,0.079,0.009,0.024,0.3928891381652244,-6.262888588739831,-7.464778276330448
1621787214271.609,0.09624640971228347,0.022653407688891083,0.03190460445146326,0.382,-6.276,-7.443
1621787214273.001,0.103,0.028,0.035,0.3803435822949316,-6.281143612873634,-7.421640929592538
1621787214277.947,0.113,0.033,0.037,0.3744583900313432,-6.2994186835868815,-7.345752924088372
1621787214282.89,0.122,0.042,0.042,0.3685769742374436,-6.317682027367938,-7.269913615167036
1621787214287.577,0.122,0.05338502594514455,0.042,0.363,-6.335,-7.198
1621787214287.83,0.122,0.054,0.042,0.36174691405234255,-6.3343813879498905,-7.193177998378635
1621787214292.768,0.124,0.049,0.051,0.3373063003808679,-6.322315768542454,-7.099128041971948
1621787214297.703,0.12,0.065,0.059,0.31288139559784023,-6.310257904155896,-7.005138534958777
1621787214302.651,0.112,0.063,0.066,0.28839123850895576,-6.298167826605687,-6.910897930464842
1621787214303.538,0.11074460839954597,0.063,0.06707604994324631,0.284,-6.296,-6.894
1621787214307.598,0.105,0.063,0.072,0.22425569875705176,-6.266000733843967,-6.874169976608724
1621787214312.541,0.098,0.063,0.073,0.1515127276062927,-6.229474475989543,-6.850025501077833
1621787214317.482,0.096,0.059,0.079,0.07880209145530429,-6.192964454432876,-6.825891758014952
1621787214319.507,0.096,0.055719723183391,0.07817993079584776,0.049,-6.178,-6.816
1621787214322.421,0.096,0.051,0.077,0.0239579593837106,-6.16904335773578,-6.808688455294514
1621787214327.357,0.084,0.058,0.077,-0.01846348822250131,-6.153870723190492,-6.796302631175912
1621787214332.291,0.077,0.052,0.072,-0.060868150212883276,-6.138704092259625,-6.783921707967041
1621787214335.448,0.0693170767935832,0.0500792691983958,0.07264024360053473,-0.088,-6.129,-6.776
1621787214337.222,0.065,0.049,0.073,-0.0814245352475612,-6.122424535247561,-6.7650780415976435
1621787214342.151,0.052,0.051,0.065,-0.06315422725320571,-6.104154227253206,-6.7347307503527825
1621787214347.076,0.044,0.04,0.065,-0.04489839867476532,-6.0858983986747655,-6.704407509663169
1621787214351.365,0.022224007139669787,0.04174207942882642,0.061515841142347163,-0.029,-6.07,-6.678
1621787214352.0,0.019,0.042,0.061,-0.02116722747176769,-6.075874579396174,-6.678
1621787214356.921,0.003,0.051,0.058,0.03953148959053546,-6.121398617192901,-6.678
1621787214361.839,-0.007,0.047,0.059,0.10019708074057004,-6.166897810555428,-6.678
1621787214366.756,-0.026,0.056,0.063,0.16084761465775527,-6.212385710993316,-6.678
1621787214367.255,-0.02650762808726333,0.05650762808726333,0.063,0.167,-6.217,-6.678
1621787214371.669,-0.031,0.061,0.063,0.15058159794369796,-6.255402364131689,-6.762596512290099
1621787214376.579,-0.037,0.063,0.072,0.13231794185097967,-6.298120746179064,-6.856700774191562
1621787214381.488,-0.038,0.07,0.072,0.11405882624555572,-6.340828508103616,-6.950781641039849
1621787214383.117,-0.03467977108733516,0.07,0.072,0.108,-6.355,-6.982
1621787214386.394,-0.028,0.07,0.072,0.07136698223757247,-6.363071681879857,-7.0389157055630935
1621787214391.298,-0.017,0.07,0.063,0.016547088935487855,-6.375150641420994,-7.124087856173677
1621787214396.198,0.002,0.061,0.061,-0.03822640927593436,-6.387219378315036,-7.209187924016282
1621787214398.951,0.010430864320606121,0.059875884757252515,0.05931382713587878,-0.069,-6.394,-7.257
1621787214401.096,0.017,0.059,0.058,-0.07958063918480779,-6.385996696001235,-7.243706376408831
1621787214405.992,0.04,0.051,0.054,-0.10373089393237611,-6.367729195615254,-7.213363748649066
1621787214410.885,0.047,0.049,0.047,-0.12786669754515978,-6.3494726262158405,-7.18303927744326
1621787214414.764,0.05810050903283761,0.04186395847889011,0.039863958478890106,-0.147,-6.335,-7.159
1621787214415.777,0.061,0.04,0.038,-0.14321303513981687,-6.328709787181391,-7.143274467953477
1621787214420.665,0.066,0.037,0.037,-0.1249434391239792,-6.298363678544915,-7.067409196362286
1621787214425.55,0.059,0.03,0.037,-0.10668479336797822,-6.268035758475625,-6.991589396189061
1621787214430.434,0.059,0.026,0.037,-0.08842979769858944,-6.237713901262064,-6.915784753155159
1621787214430.549,0.0587643586151691,0.02604712827696618,0.03695287172303382,-0.088,-6.237,-6.914
1621787214435.314,0.049,0.028,0.035,-0.07620871222096572,-6.219161897975307,-6.86653250817158
1621787214440.193,0.042,0.026,0.033,-0.06413468003036266,-6.200896054404907,-6.817926788840177
1621787214445.068,0.03,0.026,0.033,-0.052070918470094346,-6.182645748454758,-6.76936241537961
1621787214446.309,0.02668992636377298,0.02549075790211892,0.033,-0.049,-6.178,-6.757
1621787214449.942,0.017,0.024,0.033,-0.03768704422032584,-6.173613343677269,-6.757
1621787214454.812,0.005,0.019,0.035,-0.022520993017843292,-6.167732629945694,-6.757
1621787214459.68,-0.003,0.014,0.031,-0.007361784328937165,-6.161854569433669,-6.757
1621787214462.044,-0.007372434900406403,0.014971652200090313,0.03391495660027093,0.0,-6.159,-6.757
1621787214464.546,-0.012,0.016,0.037,0.004618798955613577,-6.165211488250653,-6.782005221932114
1621787214469.409,-0.016,0.017,0.033,0.013596341539226658,-6.177284735173443,-6.830607780057193
1621787214474.27,-0.017,0.016,0.031,0.022570278503046128,-6.189353133159269,-6.879190818102698
1621787214477.753,-0.019868402533427164,0.016717100633356793,0.032434201266713585,0.029,-6.198,-6.914
1621787214479.127,-0.021,0.017,0.033,0.026458588312234316,-6.201417760545616,-6.925129630494697
1621787214483.983,-0.017,0.017,0.035,0.01747694679310506,-6.213496519829962,-6.964463026112954
1621787214488.836,-0.017,0.014,0.037,0.008500724062222638,-6.225567991778391,-7.003772691175784
1621787214493.432,-0.012262005436424042,0.010209604349139232,0.03131440652370885,0.0,-6.237,-7.041
1621787214493.686,-0.012,0.01,0.031,-0.00016235437233893228,-6.237633182052122,-7.0419578907968
1621787214498.535,-0.002,0.012,0.033,-0.0032598761677505887,-6.249713517054228,-7.0602332693897285
1621787214503.38,0.0,0.012,0.028,-0.006354902602972598,-6.261784120151593,-7.078493925357538
1621787214508.223,0.005,0.016,0.031,-0.009448681358099783,-6.273849857296589,-7.096747220012788
1621787214509.086,0.00713929093751576,0.016,0.03046517726562106,-0.01,-6.276,-7.1
1621787214513.064,0.017,0.016,0.028,-0.029857071433035433,-6.276,-7.105091556777701
1621787214517.901,0.017,0.012,0.023,-0.05400143741016187,-6.276,-7.111282419848759
1621787214522.737,0.023,0.009,0.021,-0.07814214736578963,-6.276,-7.117472345478408
1621787214524.712,0.025043089513032937,0.0053224388765407155,0.01936552838957365,-0.088,-6.276,-7.12
1621787214527.57,0.028,0.0,0.017,-0.10247389589658518,-6.2651903815455885,-7.116335722557826
1621787214532.401,0.037,0.003,0.009,-0.12693746283138752,-6.2469201226955455,-7.110142414473066
1621787214537.228,0.037,-0.005,0.002,-0.15138248458480705,-6.228663714044258,-7.103953801370935
1621787214540.312,0.044670090573293526,-0.009474219501087892,-0.0011958710722056367,-0.167,-6.217,-7.1
1621787214542.053,0.049,-0.012,-0.003,-0.16912408484487435,-6.208280072742094,-7.091280072742094
1621787214546.876,0.049,-0.019,-0.003,-0.17500843432047283,-6.184123269631743,-7.067123269631743
1621787214551.697,0.047,-0.028,-0.009,-0.1808904008653801,-6.159976249078966,-7.042976249078966
1621787214555.885,0.048738522347218004,-0.036692611736089994,-0.015084828215262998,-0.186,-6.139,-7.022
1621787214556.515,0.049,-0.038,-0.016,-0.1852302135678392,-6.137014761306533,-7.019609610552764
1621787214561.33,0.049,-0.038,-0.021,-0.17934552449748745,-6.121838457914573,-7.001336102386935
1621787214566.142,0.044,-0.044,-0.024,-0.17346471419597992,-6.106672157663317,-6.983074638819096
1621787214570.953,0.044,-0.054,-0.024,-0.16758539572864323,-6.091509704773869,-6.964817807788945
1621787214571.432,0.042903910614525136,-0.053701066531234125,-0.024597866937531743,-0.167,-6.09,-6.963
1621787214575.76,0.033,-0.051,-0.03,-0.15054541736148255,-6.079123241984709,-6.963
1621787214580.566,0.03,-0.051,-0.037,-0.13227440770223076,-6.067045794921814,-6.963
1621787214585.368,0.019,-0.054,-0.038,-0.11401824874933139,-6.054978164427524,-6.963
1621787214586.951,0.016691939994914824,-0.05465944571573862,-0.038,-0.108,-6.051,-6.963
1621787214590.169,0.012,-0.056,-0.038,-0.08764869548777413,-6.051,-6.9791979770607515
1621787214594.967,0.007,-0.056,-0.045,-0.05730470128560625,-6.051,-7.003349319384926
1621787214599.761,0.002,-0.054,-0.047,-0.02698695487774136,-6.051,-7.0274797706075125
1621787214602.447,0.0008791768541157295,-0.056241646291768546,-0.045318765281173595,-0.01,-6.051,-7.041
1621787214604.554,0.0,-0.058,-0.044,-0.012588032892971574,-6.056312278043468,-7.046312278043469
1621787214609.344,0.0,-0.063,-0.049,-0.01847183420932178,-6.06838955442966,-7.05838955442966
1621787214614.132,0.0,-0.07,-0.049,-0.024353236422179084,-6.080461906340262,-7.070461906340262
1621787214617.915,-0.0015812031226082966,-0.07,-0.05137180468391244,-0.029,-6.09,-7.08
1621787214618.917,-0.002,-0.07,-0.052,-0.02711832411067194,-6.091297707509882,-7.08
1621787214623.699,-0.007,-0.066,-0.054,-0.018137723320158103,-6.097491225296443,-7.08
1621787214628.48,-0.003,-0.065,-0.058,-0.00915895652173913,-6.103683478260869,-7.08
1621787214633.257,0.0,-0.058,-0.061,-0.00018752569169960473,-6.1098706719367595,-7.08
1621787214633.357,4.181576525917595e-05,-0.05802090788262959,-0.061041815765259175,0.0,-6.11,-7.08
1621787214638.033,0.002,-0.059,-0.063,0.008796354364626885,-6.11,-7.08606645128595
1621787214642.805,0.0,-0.065,-0.066,0.017773200937539594,-6.11,-7.092257379956924
1621787214647.574,-0.003,-0.072,-0.066,0.02674453629798556,-6.11,-7.098444507791714
1621787214648.773,-0.004005631207126037,-0.06848029077505886,-0.06524577659465547,0.029,-6.11,-7.1
1621787214652.343,-0.007,-0.058,-0.063,0.042688254612955945,-6.11,-7.09095183169652
1621787214657.107,-0.01,-0.063,-0.058,0.060953925970584966,-6.11,-7.078877913341477
1621787214661.87,-0.012,-0.066,-0.059,0.0792167890970823,-6.11,-7.06680585127481
1621787214664.161,-0.013925112843660239,-0.066,-0.05996255642183012,0.088,-6.11,-7.061
1621787214666.63,-0.016,-0.066,-0.061,0.07851810828420233,-6.11,-7.079803073402514
1621787214671.387,-0.016,-0.058,-0.063,0.06024908226993182,-6.11,-7.116031480922339
1621787214676.142,-0.012,-0.061,-0.063,0.04198755701050423,-6.11,-7.152245014063915
1621787214679.524,-0.007018290176736539,-0.06242334566378956,-0.06442334566378956,0.029,-6.11,-7.178
1621787214680.894,-0.005,-0.063,-0.065,0.034270322323915636,-6.114377047353761,-7.17978654994031
1621787214685.645,-0.005,-0.059,-0.068,0.05254553123756467,-6.129554763231198,-7.185981536012734
1621787214690.392,0.005,-0.059,-0.072,0.07080571428571429,-6.1447199999999995,-7.192171428571429
1621787214694.862,0.008768253151530743,-0.06465237972729612,-0.07011587342423463,0.088,-6.159,-7.198
1621787214695.137,0.009,-0.065,-0.07,0.08835909047421628,-6.1593411359505055,-7.196599547150557
1621787214699.879,0.017,-0.063,-0.072,0.09455324170041776,-6.165225579615397,-7.172442357368371
1621787214704.618,0.019,-0.061,-0.066,0.10074356602991358,-6.171106387728417,-7.148300092483337
1621787214709.356,0.024,-0.066,-0.066,0.10693261472717415,-6.176985983990815,-7.124162802564021
1621787214710.173,0.024345140500128898,-0.06548228924980666,-0.066,0.108,-6.178,-7.12
1621787214714.091,0.026,-0.063,-0.066,0.1128702541249381,-6.178,-7.109746833421183
1621787214718.823,0.03,-0.059,-0.066,0.11875231204178446,-6.178,-7.097363553596243
1621787214723.553,0.035,-0.063,-0.065,0.12463194211509895,-6.178,-7.084985385020844
1621787214725.458,0.03298538676030156,-0.06098538676030156,-0.06419415470412063,0.127,-6.178,-7.08
1621787214728.281,0.03,-0.058,-0.063,0.13070057446434,-6.170783879794537,-7.069268334053414
1621787214733.005,0.037,-0.061,-0.063,0.13689294801017715,-6.158708751380154,-7.051310450770487
1621787214737.727,0.028,-0.065,-0.061,0.14308308130510616,-6.1466379914550435,-7.033359064215192
1621787214740.715,0.026733874721977965,-0.06056856152692288,-0.05783468680494491,0.147,-6.139,-7.022
1621787214742.447,0.026,-0.058,-0.056,0.1425649706646148,-6.137862812990927,-7.017451251963708
1621787214747.164,0.021,-0.066,-0.061,0.130485861306146,-6.134765605463114,-7.0050624218524575
1621787214751.878,0.017,-0.056,-0.052,0.1184148792921035,-6.13167048186977,-6.99268192747908
1621787214755.945,0.010096503496503496,-0.04995944055944056,-0.05545174825174825,0.108,-6.129,-6.982
1621787214756.591,0.009,-0.049,-0.056,0.10880718655170753,-6.129,-6.98284967005443
1621787214761.3,0.007,-0.054,-0.049,0.11469116773437374,-6.129,-6.989043334457236
1621787214766.008,0.0,-0.051,-0.049,0.12057392868037828,-6.129,-6.9952357144003985
1621787214770.712,0.0,-0.051,-0.049,0.12645150362057062,-6.129,-7.001422635390074
1621787214771.151,-0.0011202492211838007,-0.05128006230529595,-0.04881329179646937,0.127,-6.129,-7.002
1621787214775.414,-0.012,-0.054,-0.047,0.127,-6.137425708495512,-7.029523981085341
1621787214780.114,-0.012,-0.052,-0.049,0.127,-6.146714639559945,-7.059867822562485
1621787214784.81,-0.01,-0.056,-0.044,0.127,-6.1559958503554535,-7.090186444494483
1621787214786.33,-0.00838117524700988,-0.05373364534581383,-0.04561882475299012,0.127,-6.159,-7.1
1621787214789.505,-0.005,-0.049,-0.049,0.13538075596945187,-6.175342474140431,-7.120532852125157
1621787214794.197,-0.002,-0.049,-0.045,0.1477669255308865,-6.1994955047852285,-7.150878967550672
1621787214798.887,0.002,-0.047,-0.042,0.16014729481519674,-6.223637224889634,-7.181210872297232
1621787214801.483,0.004769876002917579,-0.048107950401167034,-0.042,0.167,-6.237,-7.198
1621787214803.573,0.007,-0.049,-0.042,0.16147365448236908,-6.234236827241185,-7.19261181312031
1621787214808.258,0.021,-0.044,-0.051,0.14908601629952392,-6.228043008149762,-7.180533865892036
1621787214812.94,0.03,-0.047,-0.045,0.13670676995077868,-6.221853384975389,-7.16846410070201
1621787214816.611,0.03,-0.044646177928515524,-0.045,0.127,-6.217,-7.159
1621787214817.619,0.03,-0.044,-0.045,0.12439701531148442,-6.213128894565797,-7.155062151368655
1621787214822.297,0.033,-0.044,-0.047,0.11231407136736245,-6.195159388187359,-7.136782825914728
1621787214826.97,0.044,-0.045,-0.045,0.10024499991915795,-6.177210512700286,-7.118524487057187
1621787214831.643,0.044,-0.049,-0.051,0.0881752979029572,-6.159260699445423,-7.100265194263447
1621787214831.711,0.043912779753189704,-0.04894185316879314,-0.050970926584396566,0.088,-6.159,-7.1
1621787214836.312,0.038,-0.045,-0.049,0.09990485754547368,-6.144042614878764,-7.0819900873030015
1621787214840.978,0.042,-0.054,-0.045,0.11197774502340498,-6.1288741152270045,-7.063725975477413
1621787214845.643,0.038,-0.052,-0.047,0.12404810573543465,-6.113708790229839,-7.045465686195112
1621787214846.784,0.03775527625032731,-0.05028693375229117,-0.04748944749934538,0.127,-6.11,-7.041
1621787214850.305,0.037,-0.045,-0.049,0.1454834444606674,-6.1006412939439665,-7.022750523190734
1621787214854.965,0.031,-0.042,-0.044,0.16994690222416897,-6.088254733051054,-6.998596729449555
1621787214859.621,0.021,-0.038,-0.042,0.19438857254100356,-6.075879203776707,-6.9744644473645785
1621787214861.833,0.019098835379288637,-0.040851746931067044,-0.03867296191375512,0.206,-6.07,-6.963
1621787214864.275,0.017,-0.044,-0.035,0.206,-6.07,-6.963
1621787214868.927,0.005,-0.031,-0.033,0.206,-6.07,-6.963
1621787214873.577,0.003,-0.033,-0.03,0.206,-6.07,-6.963
1621787214876.855,-0.0040557015239096154,-0.031588859695218074,-0.030705570152390962,0.206,-6.07,-6.963
1621787214878.223,-0.007,-0.031,-0.031,0.206,-6.073648499055805,-6.971938822686723
1621787214882.867,-0.01,-0.026,-0.026,0.206,-6.086035032884027,-7.0022858305658655
1621787214887.509,-0.016,-0.026,-0.023,0.206,-6.098416357361464,-7.032620075535586
1621787214891.852,-0.012255144466080732,-0.02319135834956055,-0.01925514446608073,0.206,-6.11,-7.061
1621787214892.148,-0.012,-0.023,-0.019,0.20560465154208732,-6.110573255263974,-7.06254185898586
1621787214896.784,-0.019,-0.019,-0.024,0.1994105328396914,-6.1195547273824475,-7.086698921925204
1621787214901.419,-0.012,-0.012,-0.017,0.19321771891768466,-6.128534307569358,-7.11085089622103
1621787214906.05,-0.009,-0.014,-0.017,0.18703012411723452,-6.137506320030011,-7.134982515942785
1621787214906.821,-0.008666947901286647,-0.013666947901286648,-0.01733305209871335,0.186,-6.139,-7.139
1621787214910.68,-0.007,-0.012,-0.019,0.186,-6.139,-7.154237312506128
1621787214915.306,0.005,-0.019,-0.017,0.186,-6.139,-7.172503578314434
1621787214919.93,0.007,-0.017,-0.01,0.186,-6.139,-7.190762131956473
1621787214921.763,0.007,-0.015017113881259245,-0.012379463342488907,0.186,-6.139,-7.198
1621787214924.552,0.007,-0.012,-0.016,0.18244729605866178,-6.139,-7.194260311640697
1621787214929.17,0.017,-0.007,-0.014,0.17656499607175594,-6.139,-7.188068416917638
1621787214933.788,0.017,-0.005,-0.012,0.17068238509886083,-6.139,-7.181876194840906
1621787214936.679,0.01950682756430613,-0.001866465544617339,-0.010119879326770402,0.167,-6.139,-7.178
1621787214938.401,0.021,0.0,-0.009,0.16919752053918435,-6.133332710188419,-7.173489299945885
1621787214943.013,0.024,-0.002,-0.005,0.17508343582427313,-6.1181532444531905,-7.161407684360703
1621787214947.622,0.024,0.0,-0.01,0.180965612239878,-6.102983421065578,-7.149333743297093
1621787214951.567,0.02143061592282413,0.0,-0.01,0.186,-6.09,-7.139
1621787214952.228,0.021,0.0,-0.01,0.186,-6.089110308008213,-7.136375408624231
1621787214956.832,0.026,0.0,-0.009,0.186,-6.082914661190965,-7.118098250513347
1621787214961.433,0.021,0.0,-0.005,0.186,-6.07672295687885,-7.099832722792608
1621787214966.033,0.014,0.003,-0.009,0.186,-6.070532895277208,-7.081572041067762
1621787214966.429,0.013827675962815405,0.003,-0.008827675962815404,0.186,-6.07,-7.08
1621787214970.629,0.012,0.003,-0.007,0.16391728655124746,-6.07,-7.08
1621787214975.222,0.012,0.007,-0.003,0.13976788888157463,-6.07,-7.08
1621787214979.814,0.009,0.0,-0.003,0.1156236258310842,-6.07,-7.08
1621787214981.264,0.008368090652763739,0.0,-0.003,0.108,-6.07,-7.08
1621787214984.403,0.007,0.0,-0.003,0.09549345510897161,-6.082506544891029,-7.088479013485443
1621787214988.99,0.007,0.0,-0.005,0.07721899831844109,-6.1007810016815585,-7.100868475716311
1621787214993.573,0.005,-0.002,-0.007,0.058960104190708566,-6.1190398958092915,-7.11324738698935
1621787214996.073,0.009910485933503837,-0.002,-0.007,0.049,-6.129,-7.12
1621787214998.155,0.014,-0.002,-0.007,0.04618338700355049,-6.129,-7.125492395343077
1621787215002.733,0.017,-0.003,-0.009,0.03999033936091157,-6.129,-7.137568838246223
1621787215007.31,0.023,-0.009,-0.012,0.03379828255305095,-6.129,-7.1496433490215505
1621787215010.857,0.023,-0.01287806310394533,-0.012,0.029,-6.129,-7.159
1621787215011.883,0.023,-0.014,-0.012,0.029,-6.123576684477824,-7.154897748515277
1621787215016.454,0.028,-0.012,-0.014,0.029,-6.09941757514599,-7.136623550430942
1621787215021.023,0.024,-0.026,-0.017,0.029,-6.075270078909494,-7.118358136611027
1621787215025.589,0.023,-0.021,-0.021,0.029,-6.051136776456186,-7.100103459114294
1621787215025.615,0.022926302278318537,-0.020988661888972082,-0.020988661888972082,0.029,-6.051,-7.1
1621787215030.154,0.01,-0.019,-0.019,0.04717972090556532,-6.063017103649441,-7.063640558188869
1621787215034.714,0.003,-0.024,-0.017,0.06544353475421791,-6.075089794159568,-7.0271129304915645
1621787215039.272,0.0,-0.026,-0.019,0.08369854817859393,-6.087156667440087,-6.990602903642812
1621787215040.346,-0.0011783456552019716,-0.026942676524161577,-0.019942676524161578,0.088,-6.09,-6.982
1621787215043.829,-0.005,-0.03,-0.023,0.088,-6.099237216946676,-6.986737034331629
1621787215048.383,-0.009,-0.021,-0.016,0.088,-6.111314164287137,-6.99293034066007
1621787215052.934,-0.009,-0.021,-0.019,0.088,-6.123383342187396,-6.9991196626602035
1621787215055.052,-0.009,-0.021931393601030708,-0.018068606398969293,0.088,-6.129,-7.002
1621787215057.482,-0.009,-0.023,-0.017,0.07823453012488982,-6.130655164385612,-7.018220610978997
1621787215062.028,-0.01,-0.023,-0.023,0.05996437895997206,-6.133751800176276,-7.048567641727503
1621787215066.572,0.0,-0.031,-0.026,0.04170305822094358,-6.136846939284586,-7.078900004988941
1621787215069.733,0.0013921505376344085,-0.025431397849462366,-0.026,0.029,-6.139,-7.1
1621787215071.113,0.002,-0.023,-0.026,0.026268763640604438,-6.1380581943588295,-7.103673042000566
1621787215075.652,0.009,-0.031,-0.031,0.01728607367175916,-6.134960715059227,-7.115753211269014
1621787215080.188,0.014,-0.035,-0.035,0.008309664628559053,-6.1318654015960545,-7.127824933775386
1621787215084.387,0.014,-0.035,-0.03685264178380998,0.0,-6.129,-7.139
1621787215084.721,0.014,-0.035,-0.037,0.00022828535669586984,-6.1285662578222775,-7.13676280350438
1621787215089.252,0.01,-0.035,-0.037,0.0033253233208176886,-6.122681885690446,-7.106411831455987
1621787215093.78,0.016,-0.049,-0.038,0.0064203587818105964,-6.11680131831456,-7.076080483938257
1621787215098.307,0.012,-0.052,-0.042,0.009514559866499791,-6.110922336253651,-7.045757313308302
1621787215099.017,0.012,-0.050900901387164674,-0.042,0.01,-6.11,-7.041
1621787215102.83,0.012,-0.045,-0.042,0.007388337987659069,-6.099553351950637,-7.05118548184813
1621787215107.351,0.009,-0.051,-0.044,0.004291734251935586,-6.087166937007742,-7.063262236417452
1621787215111.869,0.007,-0.061,-0.044,0.0011973043929031282,-6.074789217571613,-7.075330512867678
1621787215113.617,0.00622586225537896,-0.06177413774462104,-0.045935344361552596,0.0,-6.07,-7.08
1621787215116.385,0.005,-0.063,-0.049,0.0,-6.066392074763851,-7.08
1621787215120.898,0.0,-0.061,-0.047,0.0,-6.060509864674751,-7.08
1621787215125.409,-0.002,-0.063,-0.047,0.0,-6.054630200308167,-7.08
1621787215128.194,-0.0026176836861768367,-0.06485305105853051,-0.04947073474470735,0.0,-6.051,-7.08
1621787215129.918,-0.003,-0.066,-0.051,0.0,-6.051,-7.08
1621787215134.423,-0.002,-0.073,-0.052,0.0,-6.051,-7.08
1621787215138.927,-0.005,-0.08,-0.049,0.0,-6.051,-7.08
1621787215142.745,-0.0007576497395833338,-0.07406070963541667,-0.05154541015625,0.0,-6.051,-7.08
1621787215143.427,0.0,-0.073,-0.052,0.002300813691536936,-6.051,-7.079107847752261
1621787215147.925,-0.014,-0.077,-0.051,0.01747811102518409,-6.051,-7.073222773275949
1621787215152.422,-0.016,-0.077,-0.047,0.03265211324434283,-6.051,-7.0673389764970915
1621787215156.914,-0.026,-0.082,-0.049,0.047808816112437376,-6.051,-7.061461887629871
1621787215157.267,-0.02584281754443176,-0.0823929561389206,-0.048607043861079405,0.049,-6.051,-7.061
1621787215161.406,-0.024,-0.087,-0.044,0.04328913105725017,-6.0395782621145,-7.0552891310572505
1621787215165.894,-0.031,-0.089,-0.044,0.03709654545148305,-6.0271930909029665,-7.049096545451484
1621787215170.38,-0.037,-0.082,-0.047,0.03090699162890974,-6.014813983257819,-7.04290699162891
1621787215171.762,-0.037924848880901814,-0.08107515111909819,-0.04638343407939879,0.029,-6.011,-7.041
1621787215174.863,-0.04,-0.079,-0.045,0.041644350334913705,-5.998569960687712,-7.053644350334914
1621787215179.343,-0.044,-0.077,-0.051,0.059911066493445145,-5.9806128498878,-7.0719110664934455
1621787215183.821,-0.047,-0.077,-0.056,0.07816981896100829,-5.962663567801043,-7.090169818961008
1621787215186.232,-0.04807723355514345,-0.08238616777571724,-0.053306916112141375,0.088,-5.953,-7.1
1621787215188.297,-0.049,-0.087,-0.051,0.0935757601365626,-5.955716395963966,-7.102859364172596
1621787215192.77,-0.054,-0.079,-0.054,0.10565206956580526,-5.961599726198726,-7.10905234336708
1621787215197.24,-0.056,-0.077,-0.051,0.11772046918045533,-5.967479202934069,-7.115241266246388
1621787215200.677,-0.05753815897295821,-0.07315460256760448,-0.053307238459437314,0.127,-5.972,-7.12
1621787215201.709,-0.058,-0.072,-0.054,0.12843161958951432,-5.974791658199553,-7.124151696809592
1621787215206.174,-0.063,-0.077,-0.049,0.13462582131003184,-5.986870351554562,-7.142114881799093
1621787215210.637,-0.063,-0.07,-0.049,0.14081697486960645,-5.998943100995732,-7.160069227121859
1621787215215.094,-0.063,-0.06600350262697023,-0.047001751313485114,0.147,-6.011,-7.178
1621787215215.098,-0.063,-0.066,-0.047,0.146994572039217,-6.011010855921566,-7.17801601248431
1621787215219.556,-0.066,-0.073,-0.045,0.14079991179563728,-6.0234001764087255,-7.19629026020287
1621787215224.011,-0.068,-0.066,-0.051,0.13460932252264476,-6.035781354954711,-7.214552498558198
1621787215228.464,-0.068,-0.068,-0.049,0.12842144723004376,-6.048157105539913,-7.232806730671371
1621787215229.487,-0.068,-0.06731051505677144,-0.04968948494322857,0.127,-6.051,-7.237
1621787215232.915,-0.068,-0.065,-0.052,0.11400405336397294,-6.064220014681476,-7.241481360908975
1621787215237.397,-0.065,-0.059,-0.052,0.09701241542193285,-6.081504611898379,-7.24734054640623
1621787215242.458,-0.063,-0.061,-0.056,0.07782532235414275,-6.101022516915614,-7.253956785395123
1621787215244.786,-0.05978027013989388,-0.06191992281717318,-0.056,0.069,-6.11,-7.257
1621787215247.519,-0.056,-0.063,-0.056,0.06231262507093576,-6.1181920342881035,-7.253656312535468
1621787215252.579,-0.049,-0.066,-0.056,0.04993187180789105,-6.1333584570353334,-7.2474659359039455
1621787215257.64,-0.045,-0.068,-0.063,0.03754932648367731,-6.148527075057495,-7.241274663241839
1621787215261.134,-0.04430946637074206,-0.068,-0.06023786548296825,0.029,-6.159,-7.237
1621787215262.7,-0.044,-0.068,-0.059,0.02717971889049874,-6.164556647597425,-7.229527267024153
1621787215267.76,-0.031,-0.068,-0.063,0.02129771915936011,-6.182512225724058,-7.205380110233163
1621787215272.821,-0.033,-0.07,-0.066,0.01541458423576155,-6.200471269175043,-7.181228293178389
1621787215277.479,-0.023794654057705297,-0.07184106918845894,-0.06784106918845895,0.01,-6.217,-7.159
1621787215277.881,-0.023,-0.072,-0.068,0.01,-6.218451708322751,-7.157056187161062
1621787215282.942,-0.016,-0.072,-0.07,0.01,-6.236722784110432,-7.132591526360607
1621787215288.002,-0.012,-0.075,-0.075,0.01,-6.254991215620658,-7.108130406202847
1621787215293.063,-0.01,-0.075,-0.079,0.01,-6.273263172834158,-7.083664565188162
1621787215293.821,-0.00925108538350217,-0.07529956584659912,-0.07914978292329956,0.01,-6.276,-7.08
1621787215298.124,-0.005,-0.077,-0.08,0.01494324220595182,-6.28120341284837,-7.069853344945678
1621787215303.266,0.003,-0.072,-0.082,0.020850451700519607,-6.28742152810581,-7.057728020193671
1621787215308.407,0.007,-0.079,-0.082,0.02675625885687294,-6.293638167217761,-7.045605573925366
1621787215310.36,0.008139709374109603,-0.08431864374584482,-0.083899515623516,0.029,-6.296,-7.041
1621787215313.548,0.01,-0.093,-0.087,0.0328386689008437,-6.296,-7.02602919128671
1621787215318.691,0.017,-0.094,-0.091,0.03903116089014316,-6.296,-7.001878472528442
1621787215323.834,0.021,-0.094,-0.089,0.04522394685010436,-6.296,-6.977726607284593
1621787215326.97,0.021,-0.09339036544850499,-0.09143853820598007,0.049,-6.296,-6.963
1621787215328.978,0.021,-0.093,-0.093,0.05371319002630071,-6.296,-6.949948089157937
1621787215334.121,0.024,-0.098,-0.091,0.06578468681585095,-6.296,-6.916519328817643
1621787215339.266,0.019,-0.094,-0.094,0.07786076786317753,-6.296,-6.883077873609663
1621787215343.586,0.01648056386159761,-0.09567962409226827,-0.09316018795386587,0.088,-6.296,-6.855
1621787215344.41,0.016,-0.096,-0.093,0.09191680867316958,-6.296942017275826,-6.854008402867552
1621787215349.554,0.012,-0.093,-0.087,0.11636930015277941,-6.302822996239277,-6.847817898695499
1621787215354.7,0.016,-0.094,-0.082,0.14083107591961452,-6.308706208132566,-6.841625044070984
1621787215359.845,0.005,-0.096,-0.086,0.16528820954283702,-6.314588303560936,-6.835433364672699
1621787215360.205,0.00527985959586377,-0.09613992979793189,-0.08558021060620434,0.167,-6.315,-6.835
1621787215364.992,0.009,-0.098,-0.08,0.18399021839705085,-6.309528573736543,-6.840759396066797
1621787215370.138,0.002,-0.098,-0.075,0.20225511477962022,-6.303646657952326,-6.846950886365973
1621787215375.285,0.003,-0.096,-0.075,0.22052347731578717,-6.297763625949154,-6.853143551632471
1621787215376.828,0.0021006545868513422,-0.09330196376055402,-0.07410065458685133,0.226,-6.296,-6.855
1621787215380.432,0.0,-0.087,-0.072,0.23857170545481243,-6.296,-6.867788458997137
1621787215385.579,0.002,-0.089,-0.066,0.2565265399016225,-6.296,-6.8860528595550985
1621787215390.728,0.0,-0.08,-0.063,0.2744873357315909,-6.296,-6.904323324278687
1621787215393.455,0.001059470738878877,-0.07947026463056056,-0.06035132315280281,0.284,-6.296,-6.914
1621787215395.876,0.002,-0.079,-0.058,0.2898230078102061,-6.301677432614952,-6.9167659287098475
1621787215401.024,-0.005,-0.075,-0.049,0.3022054142932644,-6.313750278935933,-6.922647571789301
1621787215406.174,-0.005,-0.068,-0.045,0.31459310587820777,-6.325828278231253,-6.928531725292149
1621787215410.085,-0.005,-0.05584713134186818,-0.04120222854433381,0.324,-6.335,-6.933
1621787215411.323,-0.005,-0.052,-0.04,0.32102270692363016,-6.335,-6.938135830556738
1621787215416.474,0.0,-0.056,-0.033,0.30863503060370767,-6.335,-6.959504572208604
1621787215421.624,0.0,-0.051,-0.028,0.29625028989123575,-6.335,-6.980868249937618
1621787215426.718,0.0029668688975258315,-0.04902208740164945,-0.028,0.284,-6.335,-7.002
1621787215426.775,0.003,-0.049,-0.028,0.283935035585883,-6.335068383593807,-7.002133348007924
1621787215431.926,0.005,-0.045,-0.021,0.27805227089294887,-6.341260767481106,-7.014208496588157
1621787215437.078,0.016,-0.049,-0.023,0.27216866974833076,-6.347454031843863,-7.026285362095532
1621787215442.229,0.021,-0.038,-0.012,0.2662859050553966,-6.353646415731162,-7.038360510675766
1621787215443.355,0.022966551381058416,-0.03647046003695456,-0.011562988581987019,0.265,-6.355,-7.041
1621787215447.382,0.03,-0.031,-0.01,0.24588672298982078,-6.340725527296196,-7.026725527296196
1621787215452.535,0.03,-0.031,-0.012,0.22143053477661417,-6.322460779136965,-7.008460779136965
1621787215457.687,0.037,-0.026,-0.003,0.19697782275807446,-6.304198627123119,-6.990198627123119
1621787215460.0,0.03924342884205541,-0.02824342884205541,-0.0038973715368221646,0.186,-6.296,-6.982
1621787215462.842,0.042,-0.031,-0.005,0.17268273151271596,-6.289341365756358,-6.973634023642604
1621787215467.995,0.033,-0.024,-0.005,0.14853638790296558,-6.277268193951483,-6.958465166759555
1621787215473.15,0.042,-0.026,0.0,0.12438203631456982,-6.265191018157284,-6.9432912792232555
1621787215476.646,0.03928672256169769,-0.026,-0.0013566387191511534,0.108,-6.257,-6.933
1621787215478.304,0.038,-0.026,-0.002,0.10013439969504596,-6.247242673039424,-6.9252339642558685
1621787215483.459,0.038,-0.021,0.0,0.07567818552347999,-6.216904584573431,-6.901087322415588
1621787215488.615,0.031,-0.024,0.0,0.05121733839635228,-6.18656074889674,-6.876936106264753
1621787215493.298,0.023733746863014347,-0.016733746863014348,0.0,0.029,-6.159,-6.855
1621787215493.771,0.023,-0.016,0.0,0.028176566302148993,-6.15953949104342,-6.852756853029993
1621787215498.927,0.017,-0.017,0.003,0.01919871588143892,-6.165421530974229,-6.828299950159782
1621787215504.083,0.005,-0.019,0.002,0.01022086546072884,-6.17130357090504,-6.803843047289572
1621787215509.241,0.0,-0.017,0.002,0.0012396141780761684,-6.177187838986778,-6.779376880002345
1621787215509.953,-0.0012424371538133788,-0.017,0.002690242863229655,0.0,-6.178,-6.776
1621787215514.398,-0.009,-0.017,0.007,-0.007736534403938578,-6.172931236080178,-6.781335540968233
1621787215519.556,-0.021,-0.012,0.009,-0.016713837768139728,-6.167049554565701,-6.7875267846676826
1621787215524.715,-0.023,-0.007,0.01,-0.02569326573672489,-6.161166481069042,-6.793719493611535
1621787215526.615,-0.02594675060349316,-0.007,0.010736687650873291,-0.029,-6.159,-6.796
1621787215529.873,-0.031,-0.007,0.012,-0.02528545268092587,-6.166624597128626,-6.803624597128626
1621787215535.032,-0.04,0.0,0.012,-0.0194036917667741,-6.178697685320833,-6.815697685320832
1621787215540.191,-0.044,0.0,0.012,-0.013521930852622327,-6.190770773513039,-6.827770773513039
1621787215543.28,-0.044598646858440574,0.0029932342922028765,0.016190528009084028,-0.01,-6.198,-6.835
1621787215545.351,-0.045,0.005,0.019,-0.017330067369654364,-6.205330067369655,-6.835
1621787215550.512,-0.056,0.0,0.021,-0.03559604569420035,-6.2235960456942,-6.835
1621787215555.672,-0.059,0.005,0.024,-0.053859431751611016,-6.241859431751611,-6.835
1621787215559.95,-0.0639733667628554,0.010802261223331285,0.024,-0.069,-6.257,-6.835
1621787215560.833,-0.065,0.012,0.024,-0.07106543479215778,-6.260071672255004,-6.833993762537154
1621787215565.995,-0.07,0.012,0.024,-0.08313940583041715,-6.278027834311902,-6.828111571518515
1621787215571.157,-0.068,0.014,0.028,-0.09521280583334554,-6.295983147136771,-6.822229658696575
1621787215576.319,-0.072,0.016,0.028,-0.1072867768716049,-6.313939309193669,-6.816347467677936
1621787215576.624,-0.07217722177552854,0.016590739251761813,0.028,-0.108,-6.315,-6.816
1621787215581.481,-0.075,0.026,0.028,-0.11353282491912702,-6.315,-6.7816382452391055
1621787215586.645,-0.08,0.024,0.028,-0.11941551883133042,-6.315,-6.745103619889632
1621787215591.807,-0.086,0.03,0.031,-0.12529570970622247,-6.315,-6.708584539719251
1621787215593.303,-0.08802760446209112,0.029420684439402534,0.030710342219701266,-0.127,-6.315,-6.698
1621787215596.972,-0.093,0.028,0.03,-0.11842262549392653,-6.315,-6.68062531830821
1621787215602.135,-0.105,0.031,0.037,-0.10635220254646569,-6.315,-6.656174974388994
1621787215607.301,-0.113,0.035,0.038,-0.09427493048441388,-6.315,-6.631710756622274
1621787215609.985,-0.12235571104387293,0.03967785552193646,0.041638332072617246,-0.088,-6.315,-6.619
1621787215612.465,-0.131,0.044,0.045,-0.09379650303606701,-6.317972565659522,-6.63074163435511
1621787215617.63,-0.143,0.047,0.049,-0.10586827127075865,-6.324163216036287,-6.655194703343332
1621787215622.797,-0.15,0.054,0.049,-0.1179457458482698,-6.330356792742703,-6.679659331333675
1621787215626.671,-0.16200056724178682,0.05775017726305837,0.052750177263058376,-0.127,-6.335,-6.698
1621787215627.962,-0.166,0.059,0.054,-0.1331104333962292,-6.341110433396229,-6.7040330861380495
1621787215633.129,-0.162,0.063,0.058,-0.15756603332016908,-6.365566033320169,-6.72817912150599
1621787215638.296,-0.169,0.063,0.056,-0.182021633244109,-6.390021633244109,-6.752325156873931
1621787215643.362,-0.16213822098351363,0.0679012707260617,0.05796050829042468,-0.206,-6.414,-6.776
1621787215643.464,-0.162,0.068,0.058,-0.20636067156102839,-6.414354558483723,-6.7763606715610285
1621787215648.631,-0.161,0.072,0.058,-0.2246220421773085,-6.4323064143437945,-6.794622042177308
1621787215653.8,-0.162,0.073,0.059,-0.24289031559858434,-6.450265056012168,-6.812890315598584
1621787215658.968,-0.155,0.075,0.056,-0.2611551376173623,-6.46822030477639,-6.831155137617362
1621787215660.056,-0.153526455026455,0.075,0.056,-0.265,-6.472,-6.835
1621787215664.136,-0.148,0.075,0.056,-0.30555895554028567,-6.472,-6.806413266275823
1621787215669.306,-0.14,0.063,0.056,-0.3569517536806094,-6.472,-6.77019063144198
1621787215674.476,-0.14,0.065,0.049,-0.4083469787569994,-6.472,-6.7339662860568135
1621787215676.755,-0.14044078201737817,0.05926983377408387,0.04723687193048735,-0.431,-6.472,-6.718
1621787215679.646,-0.141,0.052,0.045,-0.4379235266604303,-6.458499123012161,-6.700864271515435
1621787215684.816,-0.145,0.061,0.038,-0.4503042563143124,-6.434356700187091,-6.670221965622076
1621787215689.987,-0.15,0.056,0.035,-0.46268790926099157,-6.410208576941066,-6.639572424579046
1621787215693.458,-0.15469783799093656,0.04995992258308157,0.03365776057401813,-0.471,-6.394,-6.619
1621787215695.159,-0.157,0.047,0.033,-0.4729341466978375,-6.387993965517241,-6.6170658533021625
1621787215700.33,-0.164,0.049,0.031,-0.4788143191116306,-6.369734482758621,-6.611185680888369
1621787215705.503,-0.176,0.056,0.031,-0.4846964348334307,-6.351468965517242,-6.605303565166569
1621787215710.167,-0.18411593108331367,0.04968760915742271,0.024687609157422706,-0.49,-6.335,-6.6
1621787215710.675,-0.185,0.049,0.024,-0.4912160345935838,-6.33797928475428,-6.601185633728744
1621787215715.847,-0.194,0.052,0.017,-0.5035949278326418,-6.3683075731899725,-6.613255054636825
1621787215721.021,-0.201,0.049,0.009,-0.515979080231403,-6.398648746566938,-6.625329603225618
1621787215726.194,-0.204,0.045,0.002,-0.5283608952258517,-6.428984193303337,-6.6374018728452056
1621787215726.879,-0.20360299113040195,0.04552934515946405,0.0017353274202679752,-0.53,-6.433,-6.639
1621787215731.369,-0.201,0.049,0.0,-0.5087790988096108,-6.443476141093989,-6.686545563426568
1621787215736.543,-0.199,0.042,-0.009,-0.48432504199225884,-6.455548396991164,-6.741335032498357
1621787215741.719,-0.197,0.045,-0.016,-0.4598617541809684,-6.4676252099612945,-6.796145183670489
1621787215743.594,-0.195912848582079,0.042463313358184304,-0.018899070447789365,-0.451,-6.472,-6.816
1621787215746.893,-0.194,0.038,-0.024,-0.44705396487027116,-6.479892070259458,-6.839084305508914
1621787215752.069,-0.19,0.044,-0.03,-0.44086289769160014,-6.4922742046168,-6.875302048504139
1621787215757.245,-0.19,0.037,-0.035,-0.43467183051292907,-6.504656338974142,-6.911519791499365
1621787215760.315,-0.19118622641509433,0.03344132075471698,-0.04330358490566038,-0.431,-6.512,-6.933
1621787215762.421,-0.192,0.031,-0.049,-0.4124881894361879,-6.520563286519314,-6.954030424245963
1621787215767.598,-0.182,0.042,-0.052,-0.36698124032818474,-6.541614120120295,-7.005728795001314
1621787215772.775,-0.178,0.035,-0.061,-0.32147429122018156,-6.562664953721277,-7.057427165756664
1621787215777.038,-0.1681200433778113,0.030883351407421378,-0.06511664859257862,-0.284,-6.58,-7.1
1621787215777.953,-0.166,0.03,-0.066,-0.26792314876973816,-6.583226306879542,-7.104265287061089
1621787215783.131,-0.15,0.028,-0.072,-0.17691967543270773,-6.6014889086716675,-7.128409065701526
1621787215788.31,-0.138,0.04,-0.075,-0.08590333031727038,-6.619754093575786,-7.152556259303581
1621787215793.488,-0.12,0.051,-0.066,0.005095852426957759,-6.63801583433058,-7.176698899623479
1621787215793.767,-0.119245651251591,0.051,-0.06573058973271108,0.01,-6.639,-7.178
1621787215798.667,-0.106,0.051,-0.061,0.05011774490063906,-6.561399982491465,-7.232759257638099
1621787215803.847,-0.094,0.059,-0.056,0.09252821792290407,-6.4793651259155505,-7.290648005486008
1621787215809.027,-0.08,0.063,-0.054,0.1349406898362952,-6.3973264028714,-7.348539481747352
1621787215810.5,-0.07516700438245134,0.06641152631826963,-0.05314711842043259,0.147,-6.374,-7.365
1621787215814.208,-0.063,0.075,-0.051,0.25356924041954165,-6.3219339469883735,-7.365
1621787215819.388,-0.052,0.096,-0.044,0.40244200668115704,-6.249199851205671,-7.365
1621787215824.57,-0.026,0.105,-0.021,0.5513779230062289,-6.176434902481365,-7.365
1621787215827.236,-0.015193723198718251,0.12198129211629989,-0.011737477027472788,0.628,-6.139,-7.365
1621787215829.751,-0.005,0.138,-0.003,0.6972572374465851,-6.077104160893724,-7.331047428063062
1621787215834.933,0.017,0.141,0.012,0.8399670832907958,-5.949563040529701,-7.2610855513585255
1621787215840.115,0.042,0.155,0.033,0.9826702057841235,-5.822027928887074,-7.191126970700191
1621787215843.976,0.059130309880380524,0.16468234906282378,0.055343882452670246,1.089,-5.727,-7.139
1621787215845.299,0.065,0.168,0.063,1.131585927362328,-5.68591524632948,-7.094833889804191
1621787215850.481,0.086,0.168,0.098,1.2983853937335064,-5.52499553851313,-6.921845203901614
1621787215855.664,0.098,0.171,0.133,1.465224153265196,-5.364037922638401,-6.748815766836281
1621787215860.721,0.10482696110744891,0.19148088332234675,0.1720112063282795,1.628,-5.207,-6.58
1621787215860.849,0.105,0.192,0.173,1.6328052818748906,-5.204077041916865,-6.573549597738005
1621787215866.033,0.103,0.204,0.209,1.827149186731184,-5.085861481956509,-6.312670757301929
1621787215871.218,0.087,0.218,0.251,2.021538856176762,-4.967618084300122,-6.051730484463359
1621787215876.403,0.066,0.239,0.3,2.2159285256223398,-4.849374686643736,-5.790790211624789
1621787215877.472,0.060021660309836605,0.2414737957338607,0.30948288364646603,2.256,-4.825,-5.737
1621787215881.588,0.037,0.251,0.346,2.3257698506375224,-4.870694338797814,-5.592301260473588
1621787215886.774,-0.009,0.264,0.393,2.413678455373406,-4.928268284153005,-5.409983766848816
1621787215891.96,-0.068,0.274,0.435,2.5015870601092898,-4.985842229508197,-5.2276662732240435
1621787215894.226,-0.1046981078791302,0.2840482914430952,0.4494171138096583,2.54,-5.011,-5.148
1621787215897.147,-0.152,0.297,0.468,2.4169526695316486,-5.105115521887974,-5.238629761818049
1621787215902.334,-0.255,0.319,0.492,2.1984418384441695,-5.272248452181514,-5.399572583582199
1621787215907.522,-0.372,0.356,0.51,1.9798898681622843,-5.4394128487144,-5.560545706169423
1621787215910.985,-0.446109714769839,0.3746943424644639,0.5180118610561988,1.834,-5.551,-5.668
1621787215912.709,-0.483,0.384,0.522,1.6787046914371442,-5.685109326070175,-5.839441906870385
1621787215917.898,-0.581,0.414,0.513,1.2112572352418545,-6.088785804797763,-6.355491515795913
1621787215923.087,-0.651,0.426,0.489,0.743809779046565,-6.492462283525351,-6.871541124721441
1621787215927.747,-0.6806425411764706,0.4367791058823529,0.45576442352941177,0.324,-6.855,-7.335
1621787215928.275,-0.684,0.438,0.452,0.28323249413923146,-6.913963350175459,-7.378223000422267
1621787215933.465,-0.668,0.442,0.403,-0.1176354092345327,-7.493751445170872,-7.803235843149817
1621787215938.655,-0.602,0.436,0.347,-0.5184844562226072,-8.073512267571385,-8.228228693740263
1621787215943.845,-0.497,0.433,0.279,-0.9193335032106817,-8.653273089971897,-8.653221544330707
1621787215944.514,-0.4799893707083059,0.4315824475590255,0.2707524221616029,-0.971,-8.728,-8.708
1621787215949.036,-0.365,0.422,0.215,-1.20373180746047,-8.836410413208702,-8.766250371276318
1621787215954.227,-0.201,0.394,0.14,-1.470904705745319,-8.960864069188434,-8.833120992399754
1621787215959.418,-0.035,0.368,0.061,-1.7380650388748144,-9.08531187210623,-8.89998846859439
1621787215961.282,0.015260967696431094,0.3579478064607138,0.03586951615178446,-1.834,-9.13,-8.924
1621787215964.61,0.105,0.34,-0.009,-1.7425273791156008,-8.92185514249949,-8.6458121160956
1621787215969.802,0.211,0.307,-0.066,-1.5998295537247824,-8.597147943291317,-8.211837384646735
1621787215974.995,0.272,0.274,-0.115,-1.45709817763675,-8.272364399871911,-7.777760618322611
1621787215978.055,0.28437390691114245,0.2586799247766808,-0.13032007522331923,-1.373,-8.081,-7.522
1621787215980.188,0.293,0.248,-0.141,-1.2732001513321596,-7.895130727703971,-7.351132488395443
1621787215985.381,0.279,0.216,-0.168,-1.0302285843167498,-7.442615529007755,-6.93514040423148
1621787215990.575,0.255,0.206,-0.192,-0.787222749297906,-6.990036508883488,-6.519089649753358
1621787215994.833,0.21155121034077556,0.19452296122209167,-0.20593640423031725,-0.588,-6.619,-6.178
1621787215995.769,0.202,0.192,-0.209,-0.5612320984422045,-6.569256316271763,-6.136453986123838
1621787216000.963,0.126,0.178,-0.236,-0.4127030588645983,-6.293239851056712,-5.905924539279429
1621787216006.159,0.042,0.18,-0.251,-0.26411118383732596,-6.017106616631031,-5.675297566580849
1621787216011.354,-0.044,0.178,-0.267,-0.11554723567657194,-5.7410252796322965,-5.444713938706346
1621787216011.618,-0.04892679603439364,0.17820316684677912,-0.2680666259455904,-0.108,-5.727,-5.433
1621787216016.55,-0.141,0.182,-0.288,0.04184903135726338,-5.6752873931002386,-5.455918087148758
1621787216021.746,-0.234,0.185,-0.302,0.19971641747629298,-5.620807667694456,-5.480062510908139
1621787216026.942,-0.319,0.185,-0.319,0.3575763860608529,-5.5663305020652745,-5.504205800221071
1621787216028.404,-0.3344710910713447,0.18415612230519937,-0.3229380959090696,0.402,-5.551,-5.511
1621787216032.14,-0.374,0.182,-0.333,0.524154336067004,-5.592385622055488,-5.626701739079858
1621787216037.336,-0.403,0.188,-0.342,0.6940543971383702,-5.649947391380213,-5.787627115686616
1621787216042.535,-0.433,0.192,-0.356,0.8640502530099459,-5.707541615773861,-5.948643226894666
1621787216045.194,-0.43453502137454786,0.2001867806642552,-0.3641867806642552,0.951,-5.737,-6.031
1621787216047.732,-0.436,0.208,-0.372,1.017789597627631,-5.757701753110827,-6.079958890568671
1621787216052.932,-0.447,0.204,-0.389,1.1546392022328178,-5.800118938248634,-6.180273985347133
1621787216058.13,-0.457,0.215,-0.396,1.2914374055122688,-5.842520191301314,-6.280551401325736
1621787216061.989,-0.46887603305785125,0.21351549586776858,-0.40119576446280997,1.393,-5.874,-6.355
1621787216063.329,-0.473,0.213,-0.403,1.420358457939172,-5.880301219175494,-6.364332185361175
1621787216068.529,-0.485,0.227,-0.412,1.5265176482555183,-5.904751878169638,-6.400543920833515
1621787216073.729,-0.492,0.239,-0.407,1.6326768385718644,-5.929202537163782,-6.436755656305855
1621787216078.79,-0.493946204759893,0.2458117166596254,-0.40505379524010704,1.736,-5.953,-6.472
1621787216078.93,-0.494,0.246,-0.405,1.7379565975501663,-5.9543071736824515,-6.4721665189404405
1621787216084.13,-0.492,0.248,-0.398,1.8106853431365426,-6.002896165414627,-6.4783561994158765
1621787216089.332,-0.487,0.251,-0.396,1.8834448206216126,-6.051505688670609,-6.484548495372052
1621787216094.533,-0.483,0.241,-0.382,1.9561872248296306,-6.100103805524477,-6.4907393382833725
1621787216095.592,-0.48422128378378376,0.24283192567567566,-0.37915033783783786,1.971,-6.11,-6.492
1621787216099.736,-0.489,0.25,-0.368,1.9976262690816136,-6.141310520123749,-6.504080436898139
1621787216104.938,-0.494,0.244,-0.353,2.0310494996296242,-6.180613763453355,-6.519244680387515
1621787216110.141,-0.497,0.237,-0.333,2.064480573428808,-6.219926229865358,-6.534412482388997
1621787216112.401,-0.49873731875557226,0.23352536248885553,-0.32952536248885556,2.079,-6.237,-6.541
1621787216115.344,-0.501,0.229,-0.325,2.0721722530424933,-6.274815213918499,-6.59597211652967
1621787216120.548,-0.506,0.218,-0.309,2.060099233204566,-6.341681169943943,-6.6931754044555465
1621787216125.752,-0.51,0.208,-0.291,2.04802677974963,-6.408543989078974,-6.790374132272213
1621787216129.212,-0.5146539688496904,0.19470294614374178,-0.2843514730718709,2.04,-6.453,-6.855
1621787216130.956,-0.517,0.188,-0.281,2.0267233103448277,-6.494697103448276,-6.898771586206897
1621787216136.162,-0.511,0.192,-0.274,1.987093952813067,-6.619158054446461,-7.02942462431942
1621787216141.366,-0.496,0.183,-0.267,1.9474813212341198,-6.743566475499093,-7.160022519056262
1621787216146.027,-0.47093078221722007,0.183,-0.2589420371412493,1.912,-6.855,-7.277
1621787216146.572,-0.468,0.183,-0.258,1.906913282043838,-6.866761010306286,-7.292875743939614
1621787216151.778,-0.426,0.175,-0.246,1.8583159820002901,-6.979122920598055,-7.444548845986355
1621787216156.984,-0.377,0.169,-0.243,1.8097209609522427,-7.091479561619974,-7.596214835244593
1621787216162.192,-0.318,0.154,-0.244,1.7611054289446944,-7.203883626070548,-7.747944839599362
1621787216162.846,-0.30920568373663476,0.1514873382104671,-0.24387436691052336,1.755,-7.218,-7.767
1621787216167.398,-0.248,0.134,-0.243,1.6462260002612217,-7.2737399103139015,-7.793517044712439
1621787216172.607,-0.175,0.108,-0.251,1.5217528407854064,-7.33752466367713,-7.823861247768732
1621787216177.814,-0.096,0.072,-0.255,1.3973263529104445,-7.401285500747385,-7.854194073171086
1621787216179.669,-0.06786717285339333,0.06131664791901012,-0.255,1.353,-7.424,-7.865
1621787216183.023,-0.017,0.042,-0.255,1.2495388957411304,-7.424,-7.819947573097294
1621787216188.231,0.058,0.005,-0.267,1.088887252412392,-7.424,-7.749991366175724
1621787216193.44,0.138,-0.028,-0.279,0.9282054850177754,-7.424,-7.680022041645506
1621787216196.494,0.18372174320524837,-0.05379175257731959,-0.28603411433926895,0.834,-7.424,-7.639
1621787216198.65,0.216,-0.072,-0.291,0.8076105082975513,-7.416441844609493,-7.541000188580712
1621787216203.86,0.283,-0.12,-0.304,0.7438376465127075,-7.398176801671116,-7.3041737843797145
1621787216209.071,0.335,-0.164,-0.321,0.6800558198909132,-7.379909191133805,-7.067314088429848
1621787216213.324,0.3807132146204311,-0.2023664479850047,-0.33406091846298036,0.628,-7.365,-6.874
1621787216214.281,0.391,-0.211,-0.337,0.628,-7.35436760269204,-6.81714226038524
1621787216219.493,0.438,-0.251,-0.347,0.628,-7.29646443490369,-6.50749965189139
1621787216224.704,0.489,-0.307,-0.367,0.628,-7.238569404154096,-6.197900556973775
1621787216229.917,0.534,-0.347,-0.379,0.628,-7.180655386980738,-5.888199930378278
1621787216230.156,0.5361557814842579,-0.3488347076461769,-0.3793669415292354,0.628,-7.178,-5.874
1621787216235.128,0.581,-0.387,-0.387,0.9436746273418015,-6.877090322487095,-5.931878603329273
1621787216240.341,0.621,-0.428,-0.374,1.2746640856098834,-6.5615821298068555,-5.992565164433618
1621787216245.554,0.653,-0.443,-0.333,1.6056380430369468,-6.246088712951685,-6.053248883475437
1621787216246.993,0.6552078007210751,-0.4468636512618814,-0.31588954441166833,1.697,-6.159,-6.07
1621787216250.768,0.661,-0.457,-0.271,1.5385166350154391,-5.734659109030023,-6.184323219437236
1621787216255.982,0.623,-0.513,-0.243,1.3196347400008699,-5.14860051318479,-6.342215392644351
1621787216261.196,0.508,-0.581,-0.291,1.1007425957872456,-4.562514475000363,-6.500114959191661
1621787216263.834,0.41947588951310866,-0.597187265917603,-0.32640964419475654,0.99,-4.266,-6.58
1621787216266.411,0.333,-0.613,-0.361,1.0635907898360608,-4.3215373320384405,-6.7706322747104615
1621787216271.626,0.162,-0.59,-0.353,1.2125223731319485,-4.4339326849207845,-7.156430097551784
1621787216276.841,0.024,-0.52,-0.281,1.3614539564278365,-4.546328037803128,-7.542227920393106
1621787216280.677,-0.04733795169443925,-0.4972012731698184,-0.2449633027522936,1.471,-4.629,-7.826
1621787216282.057,-0.073,-0.489,-0.232,1.2742370990641207,-4.641855503723234,-7.948823283979949
1621787216287.273,-0.162,-0.496,-0.239,0.5304580158201258,-4.690450308579376,-8.413104859038622
1621787216292.49,-0.255,-0.499,-0.309,-0.213460319299974,-4.739054211456552,-8.877473357865153
1621787216297.529,-0.3032942580373438,-0.48740937807103746,-0.3833731573775095,-0.932,-4.786,-9.326
1621787216297.707,-0.305,-0.487,-0.386,-0.9228867079989571,-4.805979546310513,-9.323719036996263
1621787216302.925,-0.269,-0.471,-0.436,-0.6557009879189966,-5.391744763449894,-9.256845206709738
1621787216308.143,-0.155,-0.485,-0.445,-0.3885152678390359,-5.977509980589275,-9.18997137642321
1621787216313.361,0.003,-0.482,-0.456,-0.12132954775907523,-6.563275197728656,-9.123097546136686
1621787216314.383,0.03178523646910231,-0.4829790896758198,-0.4579581793516396,-0.069,-6.678,-9.11
1621787216318.58,0.15,-0.487,-0.466,-0.16410444605358437,-6.511940666183925,-8.914811817523534
1621787216323.798,0.26,-0.492,-0.482,-0.2823446488052136,-6.305484605358436,-8.672140825488777
1621787216329.018,0.312,-0.504,-0.497,-0.4006291093410572,-6.098951267197683,-8.429379000724113
1621787216331.241,0.312,-0.5018678812289247,-0.497,-0.451,-6.011,-8.326
1621787216334.231,0.312,-0.499,-0.497,-0.4051128477266819,-5.867907002706877,-8.14956858187157
1621787216339.117,0.269,-0.489,-0.475,-0.33012798788787107,-5.634076664270749,-7.861259447307652
1621787216344.002,0.173,-0.473,-0.449,-0.2551581152793283,-5.40029306152411,-7.573007937114806
1621787216347.205,0.10218386725973311,-0.46382013094107655,-0.4247389174871308,-0.206,-5.247,-7.384
1621787216348.887,0.065,-0.459,-0.412,-0.17667648515617743,-5.3462734266167224,-7.3819740117017
1621787216353.77,-0.044,-0.456,-0.375,-0.0915408166424171,-5.634496362566944,-7.376091910968022
1621787216358.652,-0.147,-0.464,-0.319,-0.006422174411045395,-5.9226616568120605,-7.370210986595673
1621787216362.978,-0.23205119999999999,-0.46311405,-0.26495705,0.069,-6.178,-7.365
1621787216363.535,-0.243,-0.463,-0.258,0.0738403370455848,-6.207112684128189,-7.427359086755162
1621787216368.416,-0.321,-0.469,-0.195,0.11626596552098015,-6.462285807221077,-7.973937439011168
1621787216373.296,-0.363,-0.489,-0.148,0.15868098387571444,-6.7173951146977275,-8.52037909883676
1621787216378.176,-0.4,-0.531,-0.106,0.20109812425458093,-6.972517185297625,-9.066848097148434
1621787216378.74,-0.4025430344275421,-0.5365484387510008,-0.10206985588470777,0.206,-7.002,-9.13
1621787216383.055,-0.422,-0.579,-0.072,0.12000846026310488,-7.082514371600787,-9.508746176611867
1621787216387.932,-0.429,-0.634,-0.045,0.022816709794381523,-7.1735155647148146,-9.936823217689078
1621787216392.81,-0.377,-0.672,-0.028,-0.07439936780451525,-7.264539535460279,-10.365007406603963
1621787216394.496,-0.34034688563989585,-0.6851397957139996,-0.026616863609052674,-0.108,-7.296,-10.513
1621787216397.686,-0.271,-0.71,-0.024,-0.21333339534595291,-7.228546114134226,-10.48504613738896
1621787216402.56,-0.145,-0.747,-0.024,-0.3742759871633877,-7.125480954374216,-10.442334449560486
1621787216407.436,-0.012,-0.764,-0.028,-0.5352830721051735,-7.022374494209572,-10.399605646249011
1621787216410.244,0.055415681362725455,-0.773219238476954,-0.03491442885771543,-0.628,-6.963,-10.375
1621787216412.309,0.105,-0.78,-0.04,-0.5906062105442758,-6.80476522777683,-10.206531138031053
1621787216417.182,0.218,-0.782,-0.059,-0.5023756107397125,-6.431410479130151,-9.809029067332599
1621787216422.054,0.309,-0.784,-0.077,-0.4141582727117619,-6.058111848738192,-9.411586744427726
1621787216425.984,0.3598173481659651,-0.7735138805371818,-0.08425962116656643,-0.343,-5.757,-9.091
1621787216426.926,0.372,-0.771,-0.086,-0.2837201266156687,-5.717060933790556,-8.98351780532841
1621787216431.796,0.405,-0.752,-0.077,0.022694912098313313,-5.510617670333763,-8.427947103821744
1621787216436.666,0.407,-0.73,-0.052,0.32912531227209946,-5.304164057287383,-7.872348549971294
1621787216441.534,0.389,-0.7,-0.012,0.635417459307648,-5.097803590547271,-7.317000667214921
1621787216441.718,0.38714751303650224,-0.6987902125952667,-0.010487765744083433,0.647,-5.09,-7.296
1621787216446.403,0.34,-0.668,0.028,0.6937852539714583,-4.970205910213209,-6.924995915958818
1621787216451.27,0.255,-0.63,0.051,0.7423868192617669,-4.845761137941208,-6.539588598847772
1621787216456.136,0.168,-0.606,0.082,0.7909786325449943,-4.721341335776511,-6.154258614531733
1621787216457.44,0.1436143194019367,-0.6030522803672671,0.09218303145853193,0.804,-4.688,-6.051
1621787216461.002,0.077,-0.595,0.12,0.7772555574542123,-4.670094822363413,-6.028788513817905
1621787216465.866,-0.007,-0.557,0.143,0.7407353704192752,-4.6456448666366335,-5.99845818899228
1621787216470.73,-0.082,-0.525,0.166,0.7042151833843382,-4.621194910909853,-5.968127864166654
1621787216473.156,-0.10644465083588533,-0.5070406646920026,0.17098870425222149,0.686,-4.609,-5.953
1621787216475.593,-0.131,-0.489,0.176,0.6495342308170626,-4.665327975376197,-5.981862268374581
1621787216480.455,-0.155,-0.461,0.192,0.5767816969282428,-4.777707421340629,-6.0394451249844545
1621787216485.317,-0.159,-0.435,0.208,0.5040328161920159,-4.890081224350205,-6.097025090162916
1621787216488.861,-0.1538953132064098,-0.41020580700256193,0.22185557843974482,0.451,-4.972,-6.139
1621787216490.177,-0.152,-0.401,0.227,0.433729195831389,-4.981892984912117,-6.116782703375331
1621787216495.038,-0.143,-0.361,0.248,0.3699297557940582,-5.018438295224763,-6.034710608181677
1621787216499.896,-0.141,-0.321,0.271,0.306171970757505,-5.054959744905895,-5.952692098304557
1621787216504.557,-0.15634800522560546,-0.2730374836699829,0.2940220078384082,0.245,-5.09,-5.874
1621787216504.755,-0.157,-0.271,0.295,0.24203369649805448,-5.0914768404669255,-5.871159922178988
1621787216509.612,-0.185,-0.225,0.318,0.16926599221789884,-5.12770586770428,-5.801488715953307
1621787216514.469,-0.227,-0.19,0.351,0.09650194552529182,-5.163933073929961,-5.731821011673151
1621787216519.324,-0.267,-0.157,0.387,0.023767159533073928,-5.200145712062256,-5.662181322957198
1621787216520.243,-0.2728676455798049,-0.14999668108216835,0.3936247611384894,0.01,-5.207,-5.649
1621787216524.179,-0.298,-0.12,0.422,-0.08841969694610126,-5.3696937847476365,-5.649
1621787216529.033,-0.34,-0.087,0.456,-0.2097930014171585,-5.570331288056936,-5.649
1621787216533.886,-0.365,-0.056,0.483,-0.33114188715680626,-5.77092842570819,-5.649
1621787216535.92,-0.36583821309990944,-0.0471987624509508,0.49263945064895864,-0.382,-5.855,-5.649
1621787216538.739,-0.367,-0.035,0.506,-0.5356170298942252,-5.97659849204742,-5.775994874830589
1621787216543.59,-0.344,-0.026,0.504,-0.799960182574424,-6.185844359976945,-5.994526801987756
1621787216548.442,-0.3,-0.007,0.503,-1.0643432461483338,-6.3951218201361515,-6.213091723396633
1621787216551.592,-0.2545257275198872,0.00404375188802739,0.4926058805759742,-1.236,-6.531,-6.355
1621787216553.291,-0.23,0.01,0.487,-1.2816722683835564,-6.582096528286591,-6.45502335261197
1621787216558.14,-0.15,0.035,0.471,-1.4120210142329337,-6.727926122811667,-6.740490202191841
1621787216562.989,-0.075,0.07,0.438,-1.5423763231328045,-6.8737630598469135,-7.025971425008184
1621787216567.253,0.0015352843398982463,0.10342920465420843,0.40105193169798015,-1.657,-7.002,-7.277
1621787216567.836,0.012,0.108,0.396,-1.645678051747532,-7.021366490431853,-7.278452486782389
1621787216572.683,0.105,0.155,0.356,-1.5515465774575399,-7.182380854348945,-7.290528564076171
1621787216577.529,0.19,0.188,0.323,-1.4574388090893495,-7.343354668662955,-7.302601600149721
1621787216582.374,0.276,0.208,0.298,-1.3633500054586003,-7.5042960432945,-7.3146722032470874
1621787216582.907,0.2855721485812207,0.21009046923038152,0.29590953076961846,-1.353,-7.522,-7.316
1621787216587.218,0.363,0.227,0.279,-1.2962360413220562,-7.565261852002123,-7.18896997596829
1621787216592.062,0.449,0.225,0.271,-1.2324545426172717,-7.613872023345089,-7.046235651196904
1621787216596.904,0.545,0.234,0.26,-1.1686987609625168,-7.662462594800412,-6.903558877687963
1621787216598.552,0.5739290576312207,0.2374034185448495,0.253533504764786,-1.147,-7.679,-6.855
1621787216601.746,0.63,0.244,0.241,-1.0730558947056161,-7.4865819138472105,-6.806793345719684
1621787216606.587,0.71,0.257,0.227,-0.9609895704850974,-7.194961810488845,-6.733733532139456
1621787216611.427,0.775,0.274,0.209,-0.8489402020328187,-6.903385829599213,-6.660684772595981
1621787216614.189,0.8046734426229508,0.2939725094577554,0.20329356872635562,-0.785,-6.737,-6.619
1621787216616.267,0.827,0.309,0.199,-0.7405863275635819,-6.606684434168593,-6.514747547334874
1621787216621.105,0.876,0.344,0.197,-0.6371909641942136,-6.303308817096794,-6.2720470536774355
1621787216625.943,0.925,0.361,0.194,-0.5337903830531776,-5.999917890395551,-6.029334312316441
1621787216629.817,0.9546324954572986,0.37781844336765597,0.194,-0.451,-5.757,-5.835
1621787216630.78,0.962,0.382,0.194,-0.4455735900962861,-5.678378720145054,-5.793870279479805
1621787216635.615,1.002,0.393,0.202,-0.41833287482806053,-5.2836979023383766,-5.587398039889959
1621787216640.451,1.019,0.415,0.243,-0.39108665749656124,-4.888937367137677,-5.380884097161435
1621787216645.286,1.005,0.428,0.286,-0.3638459422283356,-4.494256549330999,-5.17441185757159
1621787216645.436,1.0039126591230552,0.4280932006465953,0.28780187916750855,-0.363,-4.482,-5.168
1621787216650.119,0.97,0.431,0.344,-0.03637322324905007,-3.711172804178199,-5.638594502040625
1621787216654.951,0.888,0.445,0.4,0.3006580663320354,-2.915791340244875,-6.1241795280761835
1621787216659.784,0.77,0.469,0.466,0.6377574705633999,-2.1202491282388074,-6.60986269174837
1621787216661.049,0.7228623408126137,0.4695237517687487,0.4903544572468163,0.726,-1.912,-6.737
1621787216664.615,0.59,0.471,0.559,1.3556773335419763,-1.871773789218371,-7.301766857053439
1621787216669.446,0.387,0.461,0.648,2.2087551834754713,-1.8172758939050153,-8.066904921367655
1621787216674.275,0.201,0.445,0.728,3.0614450355997183,-1.7628027853845551,-8.831694984742978
1621787216676.651,0.11832524271844662,0.4331893203883495,0.7796717233009709,3.481,-1.736,-9.208
1621787216679.103,0.033,0.421,0.833,3.3762734445940445,-2.3712782039640543,-9.087863230735511
1621787216683.931,-0.094,0.374,0.965,3.1700839152080658,-3.6220375113504715,-8.851333500328773
1621787216688.758,-0.176,0.295,1.047,2.963925666155243,-4.872607070169396,-8.614839653066976
1621787216692.245,-0.19622780840625156,0.26249102220423853,1.0455551565424106,2.815,-5.776,-8.444
1621787216693.585,-0.204,0.25,1.045,2.5687810639764397,-5.886471834074817,-8.572095745347454
1621787216698.41,-0.166,0.239,0.976,1.6821147314994676,-6.2842952409298825,-9.033385143179398
1621787216703.235,-0.068,0.213,0.883,0.7954035340560188,-6.682138777492324,-9.494697882072812
1621787216707.83,0.05966459124272336,0.17774932928372564,0.7801061503416856,-0.049,-7.061,-9.934
1621787216708.058,0.066,0.176,0.775,-0.04870720544209157,-7.078655511841879,-9.93457094938792
1621787216712.882,0.225,0.164,0.674,-0.042513064468095114,-7.452162212573865,-9.946649524287213
1621787216717.703,0.368,0.154,0.599,-0.03632299879308454,-7.825423172777002,-9.958720152353486
1621787216722.524,0.473,0.141,0.541,-0.03013261963353658,-8.198703036097744,-9.970791391714604
1621787216723.406,0.48288008305058994,0.13971924849344203,0.5302050944447259,-0.029,-8.267,-9.973
1621787216727.345,0.527,0.134,0.482,-0.22761668261012746,-8.54987063841799,-9.392583859990278
1621787216732.165,0.524,0.145,0.412,-0.4706617529443129,-8.896016356422601,-8.682334953816238
1621787216736.984,0.483,0.209,0.351,-0.7136452710649709,-9.242074411529474,-7.9722659212445315
1621787216738.974,0.45491102102862935,0.25030732201672157,0.33736858373448186,-0.814,-9.385,-7.679
1621787216741.802,0.415,0.309,0.318,-0.8121825741766432,-9.098028462491959,-7.8732828205168435
1621787216746.619,0.344,0.396,0.293,-0.8090868466885287,-8.609213092118683,-8.204216088996281
1621787216751.435,0.305,0.463,0.26,-0.8059915899141732,-8.120472047447947,-8.535099038174886
1621787216754.534,0.2895568285511508,0.4848778262192031,0.22847019162526613,-0.804,-7.806,-8.748
1621787216756.251,0.281,0.497,0.211,-0.6968088182203457,-7.57218854478959,-8.828034610494592
1621787216761.066,0.265,0.508,0.145,-0.3962223704657113,-6.916532420851057,-9.052468363967414
1621787216765.879,0.25,0.543,0.075,-0.09575785210880716,-6.261142256196141,-9.276811078497545
1621787216770.088,0.23164004259850907,0.5797199148029819,0.040028652568588674,0.167,-5.688,-9.473
1621787216770.693,0.229,0.585,0.035,0.21316909282203483,-5.669275435373188,-9.41803308679198
1621787216775.505,0.204,0.635,0.019,0.5802310736326377,-5.520407970980355,-8.981025062420503
1621787216780.317,0.171,0.686,0.033,0.9473116785226363,-5.371532953314175,-8.543994865030387
1621787216785.127,0.12,0.714,0.047,1.314243290777469,-5.22271836183477,-8.107142051789388
1621787216785.635,0.11397944371129834,0.7164293472743883,0.04826748553446351,1.353,-5.207,-8.061
1621787216789.937,0.063,0.737,0.059,1.252469989155547,-5.084868499222028,-7.8003974099046
1621787216794.746,0.026,0.745,0.063,1.140090433306615,-4.948341270215474,-7.509077404246625
1621787216799.554,0.002,0.73,0.063,1.0277394030835967,-4.8118486963081715,-7.217831345183648
1621787216801.169,-0.002702447445922616,0.7269769980704783,0.06232822179343962,0.99,-4.766,-7.12
1621787216804.362,-0.012,0.721,0.061,0.8912765957446809,-4.69936170212766,-7.013049645390071
1621787216809.168,-0.042,0.689,0.056,0.7426895315374817,-4.5990654337878,-6.852080325832271
1621787216813.974,-0.08,0.665,0.049,0.5940949190923244,-4.4987640703873195,-6.6911028290166845
1621787216816.694,-0.10887002692952594,0.6519801839337432,0.039942736649560495,0.51,-4.442,-6.6
1621787216818.779,-0.131,0.642,0.033,0.4296330159729326,-4.434205208907074,-6.510359902431348
1621787216823.583,-0.185,0.632,0.019,0.24445957982532063,-4.416245243528208,-6.303820300574396
1621787216828.386,-0.243,0.611,0.0,0.05932378629317808,-4.398288929105359,-6.097322684711622
1621787216832.208,-0.2883583591724699,0.5926975041935647,-0.020689777868144157,-0.088,-4.384,-5.933
1621787216833.189,-0.3,0.588,-0.026,-0.13391999999999998,-4.381469972451791,-5.923069641873278
1621787216837.99,-0.354,0.579,-0.058,-0.35866285714285717,-4.3690874458874465,-5.874468225108225
1621787216842.791,-0.41,0.546,-0.087,-0.5834057142857143,-4.356704919323102,-5.8258668083431715
1621787216847.591,-0.457,0.51,-0.126,-0.8081028571428571,-4.344324911452184,-5.777275277449823
1621787216847.717,-0.457498778998779,0.5083986568986569,-0.12686630036630037,-0.814,-4.344,-5.776
1621787216852.39,-0.476,0.449,-0.159,-0.8435407584729746,-4.3382727100919745,-5.829354227037924
1621787216857.189,-0.482,0.4,-0.194,-0.8738794569736676,-4.332390717525514,-5.884149631472849
1621787216861.986,-0.49,0.332,-0.227,-0.9042058082398892,-4.326511118810634,-5.938922735290412
1621787216863.219,-0.49539749592833876,0.3158075122149837,-0.23496773208469057,-0.912,-4.325,-5.953
1621787216866.783,-0.511,0.269,-0.258,-0.7270258939969425,-4.426459677546453,-5.87845819608832
1621787216871.579,-0.541,0.202,-0.269,-0.4781002663472601,-4.562997241966242,-5.778144883453374
1621787216876.373,-0.572,0.145,-0.276,-0.22928867945343656,-4.6994722541803915,-5.677877527540937
1621787216878.71,-0.5910075356415478,0.12453034623217922,-0.2774621181262729,-0.108,-4.766,-5.629
1621787216881.168,-0.611,0.103,-0.279,0.05709342036800531,-4.8329898301877865,-5.71313414691831
1621787216885.961,-0.646,0.059,-0.278,0.3790157513835675,-4.963616006811409,-5.877190719455087
1621787216890.754,-0.672,0.031,-0.279,0.7009380823991297,-5.094242183435031,-6.041247291991864
1621787216894.194,-0.6806148359486448,0.012334522111269616,-0.26894935805991443,0.932,-5.188,-6.159
1621787216895.546,-0.684,0.005,-0.265,1.030461571232466,-5.259902283162662,-6.261742509112138
1621787216900.337,-0.681,-0.003,-0.248,1.379424885999653,-5.514735298294334,-6.625878141912681
1621787216905.127,-0.661,-0.003,-0.234,1.728317070861669,-5.769516370292061,-6.989939552203481
1621787216909.667,-0.6155051987767584,-0.0115302752293578,-0.21883506625891946,2.059,-6.011,-7.335
1621787216909.917,-0.613,-0.012,-0.218,2.0605842134343675,-6.028280858789171,-7.349112431920435
1621787216914.705,-0.543,-0.031,-0.19,2.090925613702739,-6.359249806614571,-7.6193985792090935
1621787216919.492,-0.443,-0.065,-0.168,2.121259278553951,-6.690134375246665,-7.889615818138764
1621787216924.28,-0.325,-0.093,-0.152,2.151600678822322,-7.021103323072066,-8.159901965427421
1621787216925.132,-0.300604367569774,-0.10225965610490331,-0.15164385938058064,2.157,-7.08,-8.208
1621787216929.065,-0.188,-0.145,-0.15,1.9725176362803483,-7.167533700854566,-8.302912995403352
1621787216933.851,-0.024,-0.204,-0.152,1.7480100778744845,-7.274058666498176,-8.418418263383195
1621787216938.635,0.141,-0.246,-0.152,1.5236055886394868,-7.380534727597264,-8.533870504051684
1621787216940.588,0.20794748660372542,-0.2590629242153611,-0.15036713447307987,1.432,-7.424,-8.581
1621787216943.419,0.305,-0.278,-0.148,1.3834390012642224,-7.308919595448799,-8.534271491782553
1621787216948.202,0.461,-0.297,-0.145,1.3013970448798988,-7.1144956384323645,-8.455325458280658
1621787216952.984,0.583,-0.319,-0.138,1.219371839443742,-6.920111378002529,-8.376395543615677
1621787216956.037,0.641752591533473,-0.3234703058775469,-0.13352969412245316,1.167,-6.796,-8.326
1621787216957.765,0.675,-0.326,-0.131,1.219709873810051,-6.6741294000442775,-8.33260272304627
1621787216962.546,0.744,-0.319,-0.11,1.3655651032606977,-6.336897245327177,-8.350873335652615
1621787216967.325,0.791,-0.283,-0.08,1.5113607482842593,-5.999802855877795,-8.369136484392296
1621787216971.476,0.8092407662835249,-0.23262074074074074,-0.043518467432950195,1.638,-5.707,-8.385
1621787216972.104,0.812,-0.225,-0.038,1.59526695887463,-5.651528442805829,-8.353051964491986
1621787216976.882,0.813,-0.159,0.002,1.2701004161589948,-5.229431302118772,-8.109951263509343
1621787216981.658,0.812,-0.122,0.024,0.945083405857873,-4.8075282687469345,-7.866962355808028
1621787216986.435,0.817,-0.117,0.0,0.6199833219931328,-4.385517397977752,-7.623911340728199
1621787216986.905,0.8159173228346456,-0.12064173228346457,-0.005511811023622048,0.588,-4.344,-7.6
1621787216991.21,0.806,-0.154,-0.056,0.37725924460203886,-4.45090557525486,-7.049841021338567
1621787216995.985,0.805,-0.223,-0.127,0.1434999050212119,-4.569488127651492,-6.439589818273919
1621787217000.759,0.824,-0.312,-0.222,-0.09019967707212062,-4.68804036598493,-5.829494617868676
1621787217002.328,0.8433930434782608,-0.3323791304347826,-0.24829565217391303,-0.167,-4.727,-5.629
1621787217005.532,0.883,-0.374,-0.302,-0.3341052831622957,-4.802446788293425,-5.600525592296972
1621787217010.304,0.942,-0.396,-0.339,-0.5829806157354618,-4.9148121436716075,-5.558117730900798
1621787217015.076,0.97,-0.365,-0.353,-0.8318559483086279,-5.027177499049791,-5.515709869504624
1621787217017.744,0.9565763128262872,-0.335356024158051,-0.37145756986385503,-0.971,-5.09,-5.492
1621787217019.846,0.946,-0.312,-0.386,-1.3348950604567136,-4.901298511956642,-5.604293076398903
1621787217024.615,0.855,-0.302,-0.428,-2.160484620382549,-4.473180641173953,-5.8590588086144875
1621787217029.385,0.707,-0.337,-0.49,-2.9862432372470407,-4.044975104194729,-6.1138767095066795
1621787217033.15,0.5703702243162962,-0.36859069958004714,-0.5602893065656048,-3.638,-3.707,-6.315
1621787217034.152,0.534,-0.377,-0.579,-3.5665260537249055,-3.784853223811487,-6.246715692493102
1621787217038.92,0.353,-0.415,-0.661,-3.22649811296819,-4.15522974215851,-5.921862040531541
1621787217043.686,0.182,-0.428,-0.707,-2.8865920522660238,-4.52547350226761,-5.597124829532841
1621787217048.452,0.024,-0.436,-0.709,-2.546703403000222,-4.895698296914148,-5.272404252957407
1621787217048.546,0.02145490417136415,-0.43607891770011276,-0.7081910935738444,-2.54,-4.903,-5.266
1621787217053.216,-0.105,-0.44,-0.668,-1.74242722513089,-5.361573996509598,-5.304846771378709
1621787217057.98,-0.209,-0.438,-0.623,-0.9288437886720609,-5.829353514199587,-5.344473361891163
1621787217062.744,-0.307,-0.443,-0.565,-0.11526035221323161,-6.297133031889576,-5.384099952403617
1621787217063.934,-0.3309926176561058,-0.4444995386035066,-0.5520039987696093,0.088,-6.414,-5.394
1621787217067.506,-0.403,-0.449,-0.513,0.32488285714285714,-6.587017380952381,-5.7470019047619045
1621787217072.268,-0.511,-0.466,-0.443,0.6406780952380952,-6.8176717460317455,-6.2175987301587305
1621787217077.028,-0.613,-0.482,-0.375,0.9563438095238095,-7.048231507936507,-6.6880025396825395
1621787217079.315,-0.6596019900497512,-0.482,-0.3447327281120172,1.108,-7.159,-6.914
1621787217081.788,-0.71,-0.482,-0.312,1.1316516836086405,-7.392459815756036,-7.380919631512071
1621787217086.547,-0.794,-0.459,-0.248,1.177164247141042,-7.841702874841169,-8.279405749682338
1621787217091.306,-0.878,-0.421,-0.169,1.2226744758576873,-8.290922887547648,-9.1778457750953
1621787217094.686,-0.8978993891484011,-0.3911509162773985,-0.12067291206816899,1.255,-8.61,-9.816
1621787217096.062,-0.906,-0.379,-0.101,1.1698191281407433,-8.682014112486689,-10.1357641561909
1621787217100.819,-0.84,-0.344,-0.061,0.8753284808416636,-8.930984123452474,-11.241265324285237
1621787217105.575,-0.693,-0.342,-0.049,0.5809134020946236,-9.179890246809592,-12.346482812326176
1621787217110.048,-0.4813426605740104,-0.38997566360322433,-0.049,0.304,-9.414,-13.386
1621787217110.33,-0.468,-0.393,-0.049,0.27464975749383796,-9.414734674405661,-13.38094911346108
1621787217115.084,-0.187,-0.443,-0.066,-0.22016229625506883,-9.42712045797885,-13.295796851395403
1621787217119.837,0.101,-0.503,-0.089,-0.7148727041424823,-9.439503697225094,-13.210662081577484
1621787217124.59,0.372,-0.555,-0.112,-1.2096085234952692,-9.451887572553074,-13.125522938697623
1621787217125.401,0.4100566803699897,-0.5637035457348407,-0.11575447070914698,-1.294,-9.454,-13.111
1621787217129.341,0.595,-0.606,-0.134,-1.3823343834526651,-8.927588703261735,-12.325491630867145
1621787217134.093,0.759,-0.642,-0.147,-1.4888676531424025,-8.292724741447891,-11.378150723945904
1621787217138.842,0.869,-0.663,-0.152,-1.5953352426412093,-7.658252187748608,-10.431393874303897
1621787217140.745,0.8858306600863665,-0.6714153300431832,-0.1511985399958873,-1.638,-7.404,-10.052
1621787217143.591,0.911,-0.684,-0.15,-1.5468948968547052,-7.020096826053737,-9.411481026359352
1621787217148.34,0.892,-0.686,-0.152,-1.3948680918120462,-6.379478781994142,-8.342648987648033
1621787217153.087,0.819,-0.696,-0.15,-1.2429116261301414,-5.73915713739972,-7.274311473322297
1621787217156.083,0.747049372557087,-0.6928442707261879,-0.1512622917095248,-1.147,-5.335,-6.6
1621787217157.834,0.705,-0.691,-0.152,-1.008119306962227,-5.256536976877508,-6.3446239887890945
1621787217162.58,0.581,-0.689,-0.15,-0.6316774953818715,-5.043859736288935,-5.652416841837059
1621787217167.326,0.428,-0.663,-0.131,-0.2552550480922352,-4.831193435887636,-4.96024530224855
1621787217171.414,0.2970181144503911,-0.6423186496500618,-0.10083969740634005,0.069,-4.648,-4.364
1621787217172.07,0.276,-0.639,-0.096,0.08873877778663056,-4.653052442036491,-4.332914636283961
1621787217176.813,0.115,-0.628,-0.059,0.23145006772368737,-4.689581579157039,-4.108167572304995
1621787217181.556,-0.045,-0.569,-0.028,0.37416135766074415,-4.726110716277588,-3.88342050832603
1621787217186.298,-0.187,-0.511,0.005,0.5168506095131862,-4.762634212413354,-3.6587081507449604
1621787217186.735,-0.19723173180905298,-0.5059302229774962,0.007949688449456718,0.53,-4.766,-3.638
1621787217191.039,-0.298,-0.456,0.037,0.29551273504409814,-4.845849380392657,-3.8587104352402672
1621787217195.779,-0.375,-0.419,0.054,0.037269485335162056,-4.933788328734789,-4.101781119918343
1621787217200.518,-0.424,-0.37,0.051,-0.2209205594807101,-5.021709159343551,-4.344801725650308
1621787217202.043,-0.43204440781000464,-0.3542329606923909,0.048747565813198696,-0.304,-5.05,-4.423
1621787217205.257,-0.449,-0.321,0.044,-0.38024639022288875,-5.192200567991448,-4.530123027585876
1621787217209.995,-0.459,-0.29,0.037,-0.49264393637219395,-5.401823539735469,-4.68803693539895
1621787217214.731,-0.469,-0.257,0.033,-0.6049893581377539,-5.611349298785838,-4.845877610606761
1621787217217.345,-0.47507004071535325,-0.23658259032108436,0.04569190331392053,-0.667,-5.727,-4.933
1621787217219.468,-0.48,-0.22,0.056,-0.6479797560508335,-5.822378887540712,-4.957434765949294
1621787217224.203,-0.497,-0.182,0.086,-0.605560412542308,-6.035094865572514,-5.011929688996743
1621787217228.938,-0.499,-0.147,0.113,-0.563138881793218,-6.2478218117376585,-5.06642742192988
1621787217232.637,-0.4919661095636026,-0.1258983286908078,0.12941241101826062,-0.53,-6.414,-5.109
1621787217233.671,-0.49,-0.12,0.134,-0.5790412567084079,-6.439839669051878,-5.144174418604651
1621787217238.403,-0.478,-0.099,0.154,-0.8034961985688729,-6.558104203935599,-5.305162790697675
1621787217243.136,-0.457,-0.091,0.166,-1.027985880398671,-6.676387043189369,-5.466176079734219
1621787217247.867,-0.431,-0.101,0.18,-1.2523829223102476,-6.794621070789676,-5.62712292358804
1621787217247.922,-0.43042852719578906,-0.10091836102796987,0.17986004747651976,-1.255,-6.796,-5.629
1621787217252.598,-0.382,-0.094,0.168,-1.4261038516861115,-6.877113632731341,-5.838977177561131
1621787217257.327,-0.309,-0.089,0.148,-1.599155314048266,-6.959150551382452,-6.0513444462202335
1621787217262.056,-0.22,-0.079,0.124,-1.7722067764104203,-7.041187470033562,-6.263711714879335
1621787217263.198,-0.19511445098646835,-0.0741678545604793,0.11506053093688669,-1.814,-7.061,-6.315
1621787217266.783,-0.117,-0.059,0.087,-1.7865282548210688,-7.0079349195689025,-6.467151204067927
1621787217271.51,0.0,-0.024,0.049,-1.7503046147942052,-6.937964469602481,-6.6677744411397875
1621787217276.237,0.126,0.016,0.016,-1.7140809747673416,-6.867994019636061,-6.868397678211648
1621787217278.466,0.17695024027282594,0.040531597168397666,-0.0005116519402676607,-1.697,-6.835,-6.963
1621787217280.962,0.234,0.068,-0.019,-1.676066310451295,-6.753227775200371,-6.873214097170008
1621787217285.687,0.342,0.106,-0.037,-1.6364350253563487,-6.598418067798237,-6.703233038442464
1621787217290.411,0.428,0.138,-0.056,-1.5968139787870546,-6.443648354636933,-6.533295893391352
1621787217293.727,0.477672572753026,0.138,-0.07279072881792428,-1.569,-6.335,-6.414
1621787217295.151,0.499,0.138,-0.08,-1.5313333078253417,-6.243064708673227,-6.353572628904636
1621787217300.104,0.546,0.126,-0.117,-1.400300754526393,-5.923245917445936,-6.143361637000872
1621787217305.059,0.581,0.117,-0.15,-1.2692165322395508,-5.603301014707908,-5.933067754327431
1621787217309.679,0.6071174150934096,0.11886552964952925,-0.17611741509340956,-1.147,-5.305,-5.737
1621787217310.012,0.609,0.119,-0.178,-1.1320988098870919,-5.272554531583765,-5.7478220933780895
1621787217314.965,0.621,0.126,-0.195,-0.910459993896857,-4.789963869392737,-5.908788831248093
1621787217319.918,0.618,0.12,-0.182,-0.6888321025328045,-4.307396994202014,-6.069747635032042
1621787217324.871,0.56,0.108,-0.171,-0.46719328654256953,-3.8248063320109855,-6.230714372902044
1621787217325.68,0.5457923300635875,0.10228427071523635,-0.16446773796027014,-0.431,-3.746,-6.257
1621787217329.824,0.473,0.073,-0.131,-0.07341840187799159,-3.3959219231121,-6.7136798268345474
1621787217334.777,0.36,0.031,-0.087,0.3539773482515776,-2.9774946800402424,-7.2595217218987225
1621787217339.729,0.264,0.012,-0.024,0.7812677662266392,-2.559170558824426,-7.8052290936251945
1621787217341.696,0.22785214218803926,0.0032609574520534434,0.025653650840605433,0.951,-2.393,-8.022
1621787217344.681,0.173,-0.01,0.101,1.3064786554621848,-2.6604962872421694,-8.351700381970971
1621787217349.634,0.091,-0.072,0.246,1.8963650420168068,-3.1043834682964095,-8.898809931245227
1621787217354.585,0.059,-0.152,0.332,2.4859897478991595,-3.5480737356760885,-9.445676776165012
1621787217357.675,0.08083532137223975,-0.19005584582018928,0.3663126478706625,2.854,-3.825,-9.787
1621787217359.538,0.094,-0.213,0.387,3.036752636800733,-4.206462642143021,-9.75496878577425
1621787217364.489,0.143,-0.258,0.508,3.5224086087155615,-5.2201804930168665,-9.66984743951767
1621787217369.441,0.171,-0.314,0.67,4.00816037548653,-6.2340982980996715,-9.584709303213005
1621787217373.67,0.22482156243835077,-0.3456094890510949,0.7682457092128625,4.423,-7.1,-9.512
1621787217374.391,0.234,-0.351,0.785,4.298263128969223,-7.104419455300439,-9.468256411822178
1621787217379.343,0.354,-0.382,0.831,3.441784471177333,-7.134764686126038,-9.167900555691256
1621787217384.293,0.511,-0.379,0.826,2.5856436248168047,-7.165097948216903,-8.867663165608207
1621787217389.243,0.665,-0.332,0.81,1.7295027784562773,-7.195431210307768,-8.567425775525159
1621787217389.662,0.6727044871794872,-0.32454950690335305,0.8074600591715977,1.657,-7.198,-8.542
1621787217394.194,0.756,-0.244,0.78,1.4960237408204706,-6.986860364280371,-8.099882105070307
1621787217399.144,0.78,-0.145,0.733,1.320201209178766,-6.756248064855952,-7.6169892364768925
1621787217404.095,0.73,-0.031,0.691,1.1443439899845798,-6.525590268553719,-7.134001099253424
1621787217405.653,0.6975720980711361,0.0014279019288638978,0.6837588180158848,1.089,-6.453,-6.982
1621787217409.044,0.627,0.072,0.668,1.0389533704862965,-6.631768257118864,-6.8115021604702655
1621787217413.994,0.461,0.178,0.641,0.9658958851820749,-6.89273207115047,-6.562611405450798
1621787217418.944,0.284,0.272,0.597,0.8928347965493549,-7.153708756393618,-6.31370837468509
1621787217421.643,0.19783306200976764,0.3347164422080805,0.5740948645848749,0.853,-7.296,-6.178
1621787217423.893,0.126,0.387,0.555,0.8641185363916801,-7.449266913044807,-6.426407806725512
1621787217428.842,-0.014,0.538,0.518,0.8885742494120522,-7.78638427354082,-6.972791774838887
1621787217433.791,-0.133,0.684,0.496,0.9130299624324242,-8.123501634036835,-7.519175742952261
1621787217437.63,-0.2082418726259188,0.7708772137536383,0.48591603768930985,0.932,-8.385,-7.943
1621787217438.74,-0.23,0.796,0.483,0.8985963039327989,-8.3529852310042,-8.145297227949598
1621787217443.688,-0.281,0.85,0.473,0.7497085299732723,-8.21028821687667,-9.046981397479954
1621787217448.637,-0.267,0.888,0.449,0.6007913707521955,-8.067563039327988,-9.948843528064145
1621787217453.585,-0.208,0.922,0.431,0.451903596792669,-7.924866025200458,-10.8505276975945
1621787217453.615,-0.20750841269058073,0.9221638624364731,0.4309393102087137,0.451,-7.924,-10.856
1621787217458.533,-0.127,0.949,0.421,0.2607938579067991,-7.640229671504966,-10.750432513368985
1621787217463.481,-0.061,0.967,0.403,0.06942631016042783,-7.354726631016042,-10.644220427807486
1621787217468.428,-0.016,0.995,0.374,-0.12190346829640947,-7.069279938884645,-10.538029304812834
1621787217469.594,-0.010579957566487393,0.9971208861696353,0.36528080130261015,-0.167,-7.002,-10.513
1621787217473.376,0.007,1.004,0.337,-0.16226659944388427,-6.781423534085006,-10.095277400922786
1621787217478.323,0.045,1.028,0.309,-0.15607507562563022,-6.492898524154368,-9.548875423961865
1621787217483.271,0.086,1.04,0.29,-0.14988232957496866,-6.204316558193541,-9.002365584990985
1621787217485.574,0.09391398114790504,1.0367413018802745,0.2792928490351873,-0.147,-6.07,-8.748
1621787217488.218,0.103,1.033,0.267,-0.15030980104520034,-5.910964059778125,-8.412055193912167
1621787217493.165,0.099,1.019,0.246,-0.15650246019375935,-5.613406787689863,-7.783500290333425
1621787217498.111,0.079,1.025,0.229,-0.162693896885792,-5.315908254637694,-7.155069466092112
1621787217501.551,0.049795045156196024,1.0256953560677096,0.22413250752603267,-0.167,-5.109,-6.718
1621787217503.058,0.037,1.026,0.222,-0.1780370274152633,-5.060040878388704,-6.589329013722914
1621787217508.004,-0.049,1.018,0.209,-0.21425735810996668,-4.899371206332712,-6.167068064427397
1621787217512.949,-0.15,1.014,0.202,-0.2504723249488065,-4.738725327791192,-5.744869647605367
1621787217517.527,-0.24069219760153976,1.0093728470611458,0.19274569412229187,-0.284,-4.59,-5.354
1621787217517.896,-0.248,1.009,0.192,-0.29623967965275333,-4.585681471518745,-5.354
1621787217522.841,-0.347,0.979,0.182,-0.46031294991517524,-4.527791468614834,-5.354
1621787217527.787,-0.442,0.953,0.161,-0.6244186217120848,-4.469890033471396,-5.354
1621787217532.732,-0.525,0.915,0.136,-0.7884837915908847,-4.412002888627367,-5.354
1621787217533.501,-0.5358840515326522,0.9073811639271435,0.13133540648600622,-0.814,-4.403,-5.354
1621787217537.678,-0.595,0.866,0.106,-0.9345522116589734,-4.4670678782135536,-5.415714364319995
1621787217542.622,-0.639,0.815,0.07,-1.077243358909302,-4.542901568183902,-5.488762326903678
1621787217547.568,-0.667,0.752,0.035,-1.2199908751872344,-4.6187652156634975,-5.561839146516675
1621787217549.474,-0.6646868148148148,0.7277115555555556,0.019578765432098768,-1.275,-4.648,-5.59
1621787217552.512,-0.661,0.689,-0.005,-1.2470356372976195,-4.717054854836491,-5.5787762081670715
1621787217557.456,-0.653,0.618,-0.051,-1.2015235976700454,-4.829441728202541,-5.560509471173692
1621787217562.401,-0.658,0.553,-0.084,-1.1560048158510297,-4.9418452506535795,-5.542240028130685
1621787217565.443,-0.6635390428211587,0.5111494542401344,-0.1055407220822838,-1.128,-5.011,-5.531
1621787217567.344,-0.667,0.485,-0.119,-1.00657439911932,-5.043737294355085,-5.516952724604
1621787217572.289,-0.67,0.405,-0.145,-0.6906900495382545,-5.128902192526451,-5.480409241025014
1621787217577.232,-0.674,0.342,-0.162,-0.37494605834505546,-5.2140292489755975,-5.443881994985016
1621787217581.411,-0.6723095155794776,0.29804740506641647,-0.16707145326156733,-0.108,-5.286,-5.413
1621787217582.176,-0.672,0.29,-0.168,-0.05255345046408857,-5.306175451473309,-5.423351300518372
1621787217587.119,-0.677,0.248,-0.166,0.3056376286373993,-5.436511185528388,-5.490221890912427
1621787217592.062,-0.674,0.209,-0.159,0.6638463996819426,-5.566853357187639,-5.557095784210285
1621787217597.005,-0.675,0.183,-0.154,1.0220374787834303,-5.697189091242717,-5.623966374604339
1621787217597.377,-0.675451622462587,0.18104296932878944,-0.15347310712698178,1.049,-5.707,-5.629
1621787217601.948,-0.681,0.157,-0.147,1.2036101264661354,-5.945786750875476,-5.8591972994051345
1621787217606.891,-0.663,0.138,-0.14,1.3708050861713028,-6.204010077531234,-6.1081320171883835
1621787217611.833,-0.625,0.124,-0.127,1.5379587570535072,-6.46216963589375,-6.3570052605018885
1621787217613.342,-0.6048505383779512,0.11331467944285291,-0.12272587177714117,1.589,-6.541,-6.433
1621787217616.776,-0.559,0.089,-0.113,1.48142994371023,-6.661263322931963,-6.71354270680372
1621787217621.717,-0.454,0.037,-0.106,1.3266407244248652,-6.834317670093,-7.117232990699951
1621787217626.66,-0.326,-0.03,-0.11,1.1717979686735194,-7.007431871023005,-7.521062897699462
1621787217629.303,-0.2366703888532042,-0.06155956321952665,-0.11909343347003311,1.089,-7.1,-7.737
1621787217631.601,-0.159,-0.089,-0.127,0.9942537171877868,-7.028004344367619,-7.8359220308388915
1621787217636.543,0.028,-0.157,-0.148,0.790508443982133,-6.87318270819311,-8.048646958942667
1621787217641.484,0.236,-0.201,-0.175,0.586803432662302,-6.718391666156764,-8.261329850700605
1621787217645.263,0.3782266462480858,-0.23693899125623671,-0.1948811440991948,0.431,-6.6,-8.424
1621787217646.426,0.422,-0.248,-0.201,0.43821597307221544,-6.544240208078335,-8.368240208078335
1621787217651.366,0.581,-0.276,-0.216,0.4688641676866585,-6.307413249694002,-8.131413249694003
1621787217656.306,0.7,-0.29,-0.237,0.49951236230110163,-6.070586291309669,-7.894586291309669
1621787217661.22,0.769602331670207,-0.2780681717136788,-0.2708068468112434,0.53,-5.835,-7.659
1621787217661.248,0.77,-0.278,-0.271,0.5312246771528245,-5.833118994430504,-7.660242273088929
1621787217666.188,0.805,-0.251,-0.291,0.7467039598506641,-5.5021601536201725,-7.878817522492197
1621787217671.128,0.826,-0.188,-0.274,0.9621832425485035,-5.171201312809842,-8.097392771895464
1621787217676.068,0.878,-0.106,-0.202,1.1776731746128895,-4.840226115429341,-8.315978823673419
1621787217677.176,0.8959385314754422,-0.10061844055736732,-0.18809763810653227,1.226,-4.766,-8.365
1621787217681.009,0.958,-0.082,-0.14,0.8583860245167807,-4.3890154722005414,-8.056252314708539
1621787217685.948,0.99,-0.131,-0.173,0.3847025389100591,-3.90325770166659,-7.658420106208776
1621787217690.888,0.955,-0.194,-0.297,-0.08907460630825037,-3.4174038841191865,-7.260509235878365
1621787217693.129,0.9264148788927336,-0.2008059812160158,-0.3460030647553139,-0.304,-3.197,-7.08
