time,gyro_x,gyro_y,gyro_z,acc_x,acc_y,acc_z
1621784650958.353,,,,-2.03,-5.09,-6.982
1621784650976.953,,,,-2.432,-4.786,-7.022
1621784650993.878,0.401,1.199,1.197,-2.546580858426734,-4.136111693610867,-7.161645421207583
1621784650995.86,0.39528878222369346,1.1996719079736833,1.199351677907891,-2.56,-4.06,-7.178
1621784650999.778,0.384,1.201,1.204,-2.481893153052407,-4.00391806028567,-7.182078686524679
1621784651005.708,0.356,1.216,1.213,-2.363676726986225,-3.9190368144156964,-7.188251868042495
1621784651011.665,0.316,1.255,1.223,-2.244920055405886,-3.833767663803182,-7.194453260814314
1621784651015.072,0.2904007582242876,1.2868568342097753,1.2264132322367618,-2.177,-3.785,-7.198
1621784651017.654,0.271,1.311,1.229,-2.0512117611746166,-3.8032531829210336,-7.230406013156908
1621784651023.671,0.229,1.368,1.255,-1.7580904349783637,-3.8457881387728556,-7.3059209710097806
1621784651029.716,0.187,1.417,1.283,-1.463589434453088,-3.8885232997323596,-7.38179136546687
1621784651034.593,0.15730128179370756,1.4619494113392535,1.3110933820870334,-1.226,-3.923,-7.443
1621784651035.792,0.15,1.473,1.318,-1.1692611838142692,-3.955268521053496,-7.4687475907572685
1621784651041.898,0.133,1.52,1.354,-0.8803102995126759,-4.119600777528336,-7.599871037069485
1621784651046.615,0.126,1.576,1.389,-0.65708678749384,-4.246552537918195,-7.701167962547227
1621784651052.226,0.117,1.63,1.41,-0.3915546733833434,-4.3975660625307995,-7.821664170727701
1621784651052.428,0.11613745599930468,1.6314016340011297,1.4107547260006084,-0.382,-4.403,-7.826
1621784651057.844,0.093,1.669,1.431,-0.13390945949574418,-4.505154928442929,-8.004101012270763
1621784651063.466,0.065,1.705,1.431,0.12361979432376557,-4.611196385898022,-8.18897795558897
1621784651069.096,0.044,1.738,1.436,0.3815069140509626,-4.717385199903338,-8.374111806245468
1621784651070.613,0.038617350253367405,1.7479579020312703,1.4346543375633418,0.451,-4.746,-8.424
1621784651074.733,0.024,1.775,1.431,0.5859963880565068,-4.859098980629281,-8.574572894370718
1621784651080.374,0.03,1.801,1.435,0.7708394424229451,-5.013959131528254,-8.780743993471747
1621784651086.023,0.056,1.829,1.447,0.9559384899400682,-5.169033751605308,-8.987200623394692
1621784651088.863,0.07709338168631007,1.8475822648188922,1.449511116867418,1.049,-5.247,-9.091
1621784651091.678,0.098,1.866,1.452,0.9872074390081322,-5.281585388614851,-9.173851219837355
1621784651097.339,0.148,1.885,1.466,0.8629363284895347,-5.35114011465138,-9.340473430209306
1621784651103.007,0.19,1.888,1.482,0.7385151579789362,-5.420778829489402,-9.507296840421278
1621784651107.176,0.2208655534515407,1.8872651058702015,1.480530211740403,0.647,-5.472,-9.63
1621784651108.68,0.232,1.887,1.48,0.6125468168774577,-5.484848336698906,-9.625171644170475
1621784651114.36,0.271,1.871,1.468,0.4824189339993623,-5.533375836964608,-9.60693519502604
1621784651120.046,0.298,1.85,1.447,0.35216241098947815,-5.581951309916038,-9.588680717929641
1621784651125.553,0.31734645567991765,1.8161437025601441,1.4421633860800205,0.226,-5.629,-9.571
1621784651125.739,0.318,1.815,1.442,0.2238210990349356,-5.6318648512688805,-9.562697983822925
1621784651131.437,0.325,1.775,1.438,0.15708439349210343,-5.719611260408531,-9.30841877705556
1621784651137.142,0.311,1.719,1.436,0.09026476389679505,-5.807466699320881,-9.053823614291954
1621784651142.854,0.279,1.665,1.438,0.023365069699095825,-5.8954274083585965,-8.798923390566461
1621784651143.995,0.2724121214709777,1.6524231409900483,1.4360036731730235,0.01,-5.913,-8.748
1621784651148.57,0.246,1.602,1.428,-0.03844929295061207,-5.978505421591389,-8.498090636872098
1621784651154.294,0.208,1.538,1.414,-0.09906585056986071,-6.060461481637822,-8.185420536091177
1621784651160.024,0.155,1.482,1.4,-0.15974704516673702,-6.142504933516252,-7.872417027226678
1621784651162.503,0.13252679293466696,1.4569337305809746,1.3887633964673334,-0.186,-6.178,-7.737
1621784651165.76,0.103,1.424,1.374,-0.12410948588550702,-6.226214989749251,-7.614972244125532
1621784651171.503,0.037,1.375,1.349,-0.014983441097618677,-6.311228197445198,-7.399811543920517
1621784651177.251,-0.023,1.349,1.319,0.0942400252326131,-6.396317300110393,-7.184458760447879
1621784651181.08,-0.06690482249650083,1.3290432625015904,1.3010389362514314,0.167,-6.453,-7.041
1621784651183.007,-0.089,1.319,1.292,0.1710318406265963,-6.47429638895074,-7.032936318746808
1621784651188.769,-0.155,1.293,1.258,0.18308751915545718,-6.537975101180107,-7.008824961689086
1621784651194.535,-0.227,1.271,1.216,0.1951513706793802,-6.601696983588521,-6.98469725864124
1621784651199.72,-0.2898476009300359,1.2485544282392729,1.1666197421264004,0.206,-6.659,-6.963
1621784651200.31,-0.297,1.246,1.161,0.20663087283357692,-6.685591289935268,-6.9830932997494255
1621784651206.09,-0.354,1.203,1.103,0.21281039883065359,-6.946058310712048,-7.179911202756316
1621784651211.875,-0.403,1.176,1.052,0.21899514512424306,-7.206745366986844,-7.376895372207141
1621784651217.669,-0.422,1.147,1.014,0.2251895489663813,-7.467839488932971,-7.574187134579244
1621784651218.427,-0.421084957689555,1.143993432408538,1.0117777543889193,0.226,-7.502,-7.6
1621784651223.468,-0.415,1.124,0.997,0.38140580238554095,-7.83700974009063,-7.961358820771915
1621784651229.263,-0.391,1.112,0.99,0.5600532319391636,-8.222121673003802,-8.376760456273765
1621784651235.065,-0.356,1.087,0.986,0.7389189280691703,-8.607704125214854,-8.792669618209283
1621784651237.176,-0.33746292559899116,1.0877269440941573,0.9834556956704498,0.804,-8.748,-8.944
1621784651240.873,-0.305,1.089,0.979,0.9158761701961905,-8.865578119116558,-9.105817377981484
1621784651246.687,-0.253,1.084,0.97,1.0918135087058702,-9.050482387005466,-9.360292649674747
1621784651252.506,-0.195,1.075,0.972,1.2679059947803732,-9.235549709804328,-9.614992326369503
1621784651255.979,-0.15982944307086286,1.0654622218497254,0.9702116665968236,1.373,-9.346,-9.767
1621784651258.332,-0.136,1.059,0.969,1.332587529603603,-9.276276015581525,-9.71685860154521
1621784651264.162,-0.059,1.047,0.955,1.2324578561167838,-9.10352142459655,-9.592623636293046
1621784651270.0,0.016,1.037,0.932,1.1321940055130644,-8.930535336672232,-9.468222192025468
1621784651274.844,0.08065296403058027,1.0378288841542382,0.9071334753728537,1.049,-8.787,-9.365
1621784651275.844,0.094,1.038,0.902,1.0511133827797483,-8.745524862947438,-9.277981464043856
1621784651281.694,0.161,1.049,0.878,1.063476878426314,-8.502891260883587,-8.768914530796517
1621784651287.548,0.225,1.068,0.866,1.075848629474363,-8.260095646565624,-8.2595076813931
1621784651293.41,0.279,1.107,0.869,1.0882368913253788,-8.016976007739439,-7.749420999677524
1621784651293.771,0.28226177596537955,1.1102002330226364,0.8702924017976031,1.089,-8.002,-7.718
1621784651299.277,0.332,1.159,0.89,1.2394905822908497,-7.9196506254901715,-7.393821828514123
1621784651305.15,0.372,1.215,0.922,1.400003638514252,-7.831816891448849,-7.04805381915427
1621784651311.029,0.426,1.269,0.972,1.5606901862970726,-7.7438882217565155,-6.701912084238676
1621784651312.76,0.4418803766228379,1.2828218092828403,0.9858218092828404,1.608,-7.718,-6.6
1621784651316.915,0.48,1.316,1.019,1.4069117680981125,-7.570346276575295,-6.50381788474107
1621784651322.805,0.539,1.34,1.054,1.1218624940730204,-7.361042200094832,-6.367476529160739
1621784651328.702,0.588,1.363,1.07,0.836470570143401,-7.15148652493176,-6.230971281380954
1621784651331.811,0.6037982880535914,1.3687927056196503,1.067366951991068,0.686,-7.041,-6.159
1621784651334.606,0.618,1.374,1.065,0.5492304649121659,-6.9381229154931425,-6.064820978031623
1621784651340.514,0.634,1.367,1.04,0.26012442197099706,-6.720659378807132,-5.865743571269502
1621784651346.162,0.634,1.347,1.0,-0.016269987031190647,-6.512757443965574,-5.67541935103554
1621784651350.448,0.6309641158668396,1.3257488110678772,0.977230869001297,-0.226,-6.355,-5.531
1621784651351.809,0.63,1.319,0.97,-0.2362169056664348,-6.3381458344480714,-5.469549414093851
1621784651357.456,0.611,1.297,0.944,-0.2786056102520199,-6.268219942211997,-5.214598373374712
1621784651363.101,0.579,1.264,0.925,-0.3209796538070523,-6.198318235325592,-4.959735512868532
1621784651368.699,0.5204924746994205,1.2441669405760747,0.9081418994896635,-0.363,-6.129,-4.707
1621784651368.746,0.52,1.244,0.908,-0.3628992747029226,-6.128798549405845,-4.705556270741891
1621784651374.391,0.452,1.222,0.895,-0.3508320709774114,-6.104664141954823,-4.532593017342896
1621784651380.034,0.372,1.187,0.873,-0.338769564286479,-6.0805391285729575,-4.3596970881061985
1621784651385.677,0.278,1.157,0.857,-0.32670653570281555,-6.056413071405631,-4.186793678407023
1621784651386.943,0.2566852124253699,1.1491471835251363,0.8500446482651207,-0.324,-6.051,-4.148
1621784651391.32,0.183,1.122,0.826,-0.2532018955315788,-6.0956388048512755,-4.162159620893684
1621784651396.961,0.077,1.07,0.791,-0.16195969318090547,-6.153167786672379,-4.180408061363819
1621784651402.602,-0.012,1.018,0.764,-0.07071354180610961,-6.210699258386656,-4.198657291638778
1621784651405.181,-0.053602813243886605,0.9978843540359229,0.7516563081584072,-0.029,-6.237,-4.207
1621784651408.243,-0.103,0.974,0.737,0.0845372212922665,-6.3144270103783064,-4.290977234683629
1621784651413.882,-0.18,0.932,0.71,0.2936332775359893,-6.4570206226983595,-4.445634081017744
1621784651419.521,-0.229,0.906,0.703,0.502720281218614,-6.599608061600268,-4.600284231670573
1621784651423.412,-0.2503914361172447,0.8818483785773045,0.7023099536736372,0.647,-6.698,-4.707
1621784651425.16,-0.26,0.871,0.702,0.7090553449176726,-6.723416795059016,-4.760615050709395
1621784651430.797,-0.283,0.85,0.705,0.9092031189292749,-6.805393858603181,-4.933540252676143
1621784651436.434,-0.288,0.841,0.71,1.1093422247826261,-6.887367371819778,-5.106457965461342
1621784651441.635,-0.288,0.8280829399281042,0.718303824331933,1.294,-6.963,-5.266
1621784651442.071,-0.288,0.827,0.719,1.3078594346829642,-6.9653458110516935,-5.279141329258977
1621784651447.706,-0.286,0.822,0.738,1.486968959832737,-6.995661412890515,-5.448970568131559
1621784651453.341,-0.274,0.822,0.761,1.6660784849825099,-7.025977014729337,-5.618799807004142
1621784651458.976,-0.26,0.845,0.785,1.8451880101322826,-7.056292616568158,-5.788629045876724
1621784651459.851,-0.2559611650485437,0.8446893203883495,0.7893495145631069,1.873,-7.061,-5.815
1621784651464.609,-0.234,0.843,0.813,1.9422416604097394,-7.055774214308699,-5.940680145875792
1621784651470.242,-0.215,0.85,0.838,2.0242209723265043,-7.049587096428189,-6.08948033090207
1621784651475.875,-0.201,0.862,0.864,2.106200284243269,-7.043399978547678,-6.238280515928349
1621784651478.06,-0.19479145892044222,0.8654923043572512,0.8740888792542814,2.138,-7.041,-6.296
1621784651481.506,-0.185,0.871,0.89,2.1453836094158674,-7.041,-6.346170679364228
1621784651487.137,-0.166,0.876,0.911,2.1574484742807325,-7.041,-6.4281498893434375
1621784651492.768,-0.143,0.883,0.935,2.169513862249346,-7.041,-6.510132653745557
1621784651496.262,-0.12996743278404163,0.8898265828274068,0.9492737640936687,2.177,-7.041,-6.561
1621784651498.398,-0.122,0.894,0.958,2.1654954177680574,-7.028321480805614,-6.584009164463885
1621784651504.026,-0.103,0.915,0.979,2.1351829672467697,-6.994915923088277,-6.644634065506461
1621784651509.655,-0.072,0.92,1.002,2.104863941927087,-6.961503119674749,-6.705272116145826
1621784651514.457,-0.050668879056047195,0.927679203539823,1.0156519174041299,2.079,-6.933,-6.757
1621784651515.283,-0.047,0.929,1.018,2.06866562136736,-6.927649901327349,-6.7560854532183505
1621784651520.909,-0.021,0.941,1.038,1.998270876699738,-6.891206604309156,-6.749855829796437
1621784651526.477,0.005,0.955,1.058,1.9286001189478523,-6.855138114676543,-6.743690276013084
1621784651532.042,0.028,0.956,1.073,1.8589690735584332,-6.819090184098835,-6.7375282365980915
1621784651532.519,0.029457569109258445,0.957200351031154,1.0739431329530496,1.853,-6.816,-6.737
1621784651537.606,0.045,0.97,1.084,1.8309273665625425,-6.788267716963194,-6.698231400244466
1621784651543.167,0.063,0.977,1.1,1.8067974738557653,-6.75795067228032,-6.655849409208203
1621784651548.728,0.075,0.99,1.105,1.782667581148988,-6.727633627597447,-6.613467418171941
1621784651550.495,0.07881449275362318,0.9931787439613526,1.1088144927536232,1.775,-6.718,-6.6
1621784651554.287,0.087,1.0,1.117,1.7707775119617224,-6.678519736842105,-6.591766148325359
1621784651559.842,0.094,1.014,1.126,1.7645919421487601,-6.620684659090909,-6.579704287190083
1621784651565.397,0.101,1.023,1.14,1.758406372335798,-6.562849581339712,-6.567642426054807
1621784651568.456,0.1059571409732296,1.0257539672073497,1.1438555540902897,1.755,-6.531,-6.561
1621784651570.951,0.11,1.028,1.147,1.7495766404485207,-6.498320782189805,-6.5377768962795635
1621784651576.503,0.115,1.045,1.164,1.7375076885393135,-6.425597610429198,-6.486097025283727
1621784651582.052,0.108,1.051,1.173,1.7254451051901043,-6.352912813324987,-6.434444424788395
1621784651586.397,0.10251797579757976,1.0478674147414742,1.1823977557755776,1.716,-6.296,-6.394
1621784651587.6,0.101,1.047,1.185,1.719960497459578,-6.276868783457971,-6.386079005080844
1621784651593.146,0.087,1.058,1.192,1.7382167191096944,-6.188681950063341,-6.349566561780611
1621784651598.689,0.065,1.075,1.199,1.7564632966913216,-6.100541702423277,-6.313073406617357
1621784651604.232,0.047,1.084,1.215,1.7747098742729488,-6.0124014547832125,-6.276580251454102
1621784651604.32,0.04674550581600282,1.0840795294324992,1.2152226824109975,1.775,-6.011,-6.276
1621784651609.773,0.031,1.089,1.229,1.7512426019364515,-5.93363616528024,-6.258029660439111
1621784651615.312,0.017,1.101,1.243,1.727109723169235,-5.8550496113459705,-6.239775303422882
1621784651620.849,-0.005,1.115,1.253,1.702985353879722,-5.776490767762171,-6.221527383062866
1621784651622.223,-0.01145212789415656,1.1184742227122382,1.2574668577728776,1.697,-5.757,-6.217
1621784651626.385,-0.031,1.129,1.271,1.6392912813738443,-5.726972699251431,-6.187207287538529
1621784651631.918,-0.047,1.134,1.285,1.5625753797886395,-5.687055482166446,-6.1476019237120205
1621784651637.355,-0.063,1.138,1.292,1.4871898117569353,-5.64783047115808,-6.108683358102158
1621784651639.965,-0.07404938438033612,1.1355979599173183,1.2953628561157544,1.451,-5.629,-6.09
1621784651642.788,-0.086,1.133,1.299,1.3768163131819195,-5.610011550879537,-6.05845986417279
1621784651648.217,-0.129,1.138,1.295,1.234152415942997,-5.573494544644845,-5.997804497884658
1621784651653.644,-0.178,1.138,1.297,1.091539843576041,-5.536990675796036,-5.937170953017145
1621784651657.508,-0.2250278227984873,1.1330122006122816,1.297,0.99,-5.511,-5.894
1621784651659.067,-0.244,1.131,1.297,0.9594625402624204,-5.509308420597627,-5.9245374597375795
1621784651664.487,-0.304,1.115,1.292,0.8532820949007907,-5.50342670496535,-6.03071790509921
1621784651669.902,-0.365,1.101,1.293,0.7472020859768256,-5.497550552867521,-6.136797914023175
1621784651675.017,-0.41602855080961615,1.101,1.3015047584682693,0.647,-5.492,-6.237
1621784651675.315,-0.419,1.101,1.302,0.6341277443157204,-5.493670835837165,-6.24252398786981
1621784651680.725,-0.454,1.1,1.297,0.4003169361488045,-5.52401978842042,-6.3428613413083275
1621784651686.13,-0.464,1.103,1.293,0.16673825062537562,-5.554338611177103,-6.443099081850832
1621784651691.533,-0.476,1.103,1.272,-0.0667665776933074,-5.584647847170787,-6.543305127380969
1621784651692.487,-0.4791809713303789,1.103353441258931,1.267758704892828,-0.108,-5.59,-6.561
1621784651696.932,-0.494,1.105,1.248,-0.08046999523956204,-5.744983730503206,-6.703493265380415
1621784651702.328,-0.499,1.115,1.227,-0.04704869648007617,-5.933133264260312,-6.876479432107754
1621784651707.719,-0.48,1.122,1.222,-0.013657640502926269,-6.121112542353897,-7.049309064433928
1621784651709.924,-0.4599534357023146,1.1269093626851474,1.2289549304706255,0.0,-6.198,-7.12
1621784651713.109,-0.431,1.134,1.239,0.15262660980331638,-6.3954629640021325,-7.333567450408238
1621784651718.494,-0.36,1.147,1.262,0.4106936954630902,-6.72934112398642,-7.694675710558066
1621784651723.876,-0.269,1.173,1.283,0.6686203810218568,-7.063037639235712,-8.05558751157375
1621784651727.327,-0.21382525417574438,1.1864729030501089,1.297756036673929,0.834,-7.277,-8.287
1621784651729.255,-0.183,1.194,1.306,0.8361093600629814,-7.315079500084351,-8.34905959343193
1621784651734.63,-0.08,1.204,1.325,0.8419900326154192,-7.421241115109937,-8.522075170106282
1621784651740.001,0.01,1.196,1.337,0.8478664314232693,-7.527325577799021,-8.69496500871619
1621784651744.693,0.08515614769006911,1.1785218261185886,1.3352521826118589,0.853,-7.62,-8.846
1621784651745.37,0.096,1.176,1.335,0.8472579904494936,-7.603516135848206,-8.820336732825288
1621784651750.735,0.175,1.157,1.333,0.8017546872138721,-7.472887605471116,-8.616964826527306
1621784651756.097,0.241,1.121,1.328,0.7562783028834641,-7.342336352495387,-8.413713231254667
1621784651761.455,0.293,1.084,1.33,0.7108329788283021,-7.211874265751997,-8.21060045639588
1621784651762.025,0.29725640558037747,1.081339746512264,1.33,0.706,-7.198,-8.189
1621784651766.81,0.333,1.059,1.33,0.6733540828569412,-6.942919189780507,-7.7657097183993224
1621784651772.162,0.356,1.038,1.337,0.6368406238972404,-6.657619112146235,-7.292272496294728
1621784651777.51,0.347,1.031,1.337,0.6003554802738372,-6.372540278071847,-6.8192024137200935
1621784651779.321,0.3375110329389191,1.030661108319247,1.3356444332769883,0.588,-6.276,-6.659
1621784651782.854,0.319,1.03,1.333,0.5519765208412893,-6.1073446203024,-6.464145726368792
1621784651788.195,0.269,1.031,1.328,0.4975168668052785,-5.852374421861077,-6.1695685068103705
1621784651793.533,0.194,1.03,1.33,0.44308957440488816,-5.5975557347137945,-5.875166334280986
1621784651796.582,0.14712623581105821,1.0328581563529842,1.33,0.412,-5.452,-5.707
1621784651798.867,0.112,1.035,1.33,0.41712044947603216,-5.446879550523968,-5.757285439726162
1621784651804.198,0.026,1.03,1.349,0.4290672530617398,-5.4349327469382605,-5.8746091775037526
1621784651809.625,-0.049,1.028,1.36,0.44122907285046925,-5.422770927149531,-5.994044484659736
1621784651813.985,-0.10366138542557501,1.0296076878066345,1.371253814646442,0.451,-5.413,-6.09
1621784651815.049,-0.117,1.03,1.374,0.42895800473735546,-5.436256430263342,-6.141188435279364
1621784651820.472,-0.166,1.019,1.382,0.31661362686359207,-5.554790581022711,-6.402087362407691
1621784651825.894,-0.197,0.993,1.386,0.20428442246063816,-5.673308722307371,-6.662951051971576
1621784651831.312,-0.208,0.951,1.382,0.09204120105893826,-5.791736143235335,-6.9236150620036225
1621784651831.507,-0.20709973859744005,0.9497036235803137,1.3813158013340543,0.088,-5.796,-6.933
1621784651836.729,-0.183,0.915,1.363,-0.01733954182711088,-5.950875983592835,-7.10876484457838
1621784651842.144,-0.148,0.881,1.347,-0.1265747112004018,-6.111479532898041,-7.291029758915118
1621784651847.557,-0.096,0.85,1.318,-0.2357655561136224,-6.272017913946091,-7.47322071544171
1621784651849.006,-0.08046353790613718,0.8411602888086642,1.3129104693140794,-0.265,-6.315,-7.522
1621784651852.967,-0.038,0.817,1.299,-0.2693061535237829,-6.306161053293288,-7.486417573514005
1621784651858.376,0.021,0.78,1.278,-0.2751865055528393,-6.29409085702312,-7.4378272962212755
1621784651863.783,0.075,0.763,1.253,-0.2810647342320318,-6.282025019207935,-7.389254564503737
1621784651866.483,0.09598008040110213,0.7540085369709563,1.2460066398662992,-0.284,-6.276,-7.365
1621784651869.188,0.117,0.745,1.239,-0.309874818212328,-6.21681329007719,-7.249415482716188
1621784651874.59,0.136,0.716,1.213,-0.36154739064772345,-6.09861614833874,-7.018590698064661
1621784651879.991,0.136,0.688,1.194,-0.41320828672110976,-5.980445715404407,-6.78781807249133
1621784651883.942,0.12063222393054174,0.667509631907389,1.1822912182327936,-0.451,-5.894,-6.619
1621784651885.39,0.115,0.66,1.178,-0.4623752712407778,-5.8687585222102445,-6.5685170444204894
1621784651890.786,0.08,0.62,1.161,-0.5047654659741568,-5.774695608349316,-6.380391216698632
1621784651896.181,0.03,0.588,1.145,-0.547147988968375,-5.680649717909591,-6.192299435819182
1621784651901.381,-0.04135355364418289,0.5783576278859212,1.122822544137619,-0.588,-5.59,-6.011
1621784651901.574,-0.044,0.578,1.122,-0.5860511325409284,-5.592491449876654,-6.01480915003364
1621784651906.966,-0.113,0.552,1.108,-0.5315667189952904,-5.662144819466248,-6.121301412872842
1621784651912.354,-0.19,0.534,1.087,-0.47712424310383494,-5.731744575577484,-6.227711706660687
1621784651917.74,-0.255,0.529,1.07,-0.4227015025790536,-5.801319101816551,-6.334083426777305
1621784651918.799,-0.2624721907438466,0.5258538144236435,1.069213453605911,-0.412,-5.815,-6.355
1621784651923.126,-0.293,0.513,1.066,-0.49009680316596027,-5.944332285497769,-6.594016012237223
1621784651928.508,-0.304,0.496,1.059,-0.5872385977714782,-6.105204047264869,-6.891319402733728
1621784651933.889,-0.297,0.476,1.045,-0.6843583597631143,-6.266039321900699,-7.188555362204945
1621784651936.196,-0.2871352516679526,0.4554126991331185,1.030846230654019,-0.726,-6.335,-7.316
1621784651939.268,-0.274,0.428,1.012,-0.7762103636261452,-6.369652222784241,-7.373105448771989
1621784651944.645,-0.257,0.387,0.97,-0.8640934637216883,-6.430303939751587,-7.473057002753892
1621784651950.019,-0.23,0.332,0.92,-0.951928679817906,-6.490922610015175,-7.572954097116844
1621784651953.572,-0.19892080152671757,0.3002595419847328,0.9034685114503818,-1.01,-6.531,-7.639
1621784651955.392,-0.183,0.284,0.895,-1.028562515825901,-6.544423740258279,-7.632917367695468
1621784651960.763,-0.138,0.255,0.869,-1.0833387446191938,-6.5840359283121845,-7.614968094983541
1621784651966.131,-0.086,0.239,0.845,-1.1380875840531188,-6.623628309371747,-7.597027797315928
1621784651970.927,-0.04221361961515717,0.21397921120866123,0.8199792112086612,-1.187,-6.659,-7.581
1621784651971.498,-0.037,0.211,0.817,-1.2102474202131404,-6.657682865710304,-7.57033121225346
1621784651976.863,0.005,0.168,0.787,-1.428657877324624,-6.645308335562344,-7.470097518054988
1621784651982.23,0.033,0.126,0.752,-1.6471478467754423,-6.63292930046598,-7.369827333774443
1621784651987.593,0.042,0.082,0.712,-1.8654787915475906,-6.620559275266425,-7.269630129658046
1621784651988.269,0.03935241087283158,0.07645267040021855,0.705822292036607,-1.893,-6.619,-7.257
1621784651992.955,0.021,0.038,0.663,-1.9433119266055046,-6.722599289730689,-7.1534007102693105
1621784651998.316,-0.012,0.024,0.609,-2.0008689384010485,-6.841117222621514,-7.034882777378486
1621784652003.673,-0.061,0.044,0.559,-2.0583866317169073,-6.959554193266534,-6.916445806733465
1621784652005.593,-0.07426077841582354,0.053318384832740866,0.5432304256676693,-2.079,-7.002,-6.874
1621784652009.03,-0.098,0.07,0.515,-1.9816678706982915,-7.136477248035217,-7.022183200936887
1621784652014.384,-0.113,0.115,0.482,-1.8300487773905436,-7.345959138176739,-7.253015534829907
1621784652019.736,-0.105,0.171,0.464,-1.678484994285553,-7.555364609936083,-7.483763661761179
1621784652022.896,-0.07782991831332998,0.19994204353580067,0.4634093460502898,-1.589,-7.679,-7.62
1621784652025.086,-0.059,0.22,0.463,-1.5952088401067932,-7.683941729880917,-7.6609276602958
1621784652030.434,0.023,0.237,0.466,-1.6103716997923465,-7.6960101284061535,-7.760878755774039
1621784652035.781,0.127,0.229,0.454,-1.6255310985859783,-7.708075772343942,-7.860807037617776
1621784652040.179,0.22330514050719671,0.21418382453735435,0.4383607036783185,-1.638,-7.718,-7.943
1621784652041.124,0.244,0.211,0.435,-1.6519608938547485,-7.679894972067039,-7.886663687150838
1621784652046.466,0.356,0.19,0.391,-1.730875468495863,-7.464504603634821,-7.568220168304928
1621784652051.807,0.428,0.176,0.349,-1.8097720104660207,-7.249163453786861,-7.249849416590057
1621784652057.145,0.469,0.147,0.326,-1.8886288805600735,-7.033930584824271,-6.931638752563468
1621784652057.441,0.46911090775988284,0.14533638360175694,0.3255563689604685,-1.893,-7.022,-6.914
1621784652062.481,0.471,0.117,0.318,-1.835703465073139,-6.881389626021326,-6.627224996105864
1621784652067.815,0.44,0.099,0.33,-1.7750652798821847,-6.73257856950679,-6.3237246916552206
1621784652073.148,0.379,0.093,0.346,-1.7144381965193505,-6.583794757784733,-6.020279952987156
1621784652074.682,0.3562647031879809,0.09530230853792598,0.3523313484792964,-1.697,-6.541,-5.933
1621784652078.478,0.3,0.101,0.368,-1.6773813405540277,-6.601619453344297,-5.8897948623437015
1621784652083.806,0.215,0.105,0.4,-1.6498465791488277,-6.6866987722929485,-5.8291565113839345
1621784652089.132,0.136,0.119,0.428,-1.6223206498624856,-6.771750800986702,-5.768537610933114
1621784652091.903,0.1032160836275274,0.12888721287423777,0.4394483517491174,-1.608,-6.816,-5.737
1621784652094.457,0.073,0.138,0.45,-1.6240355971896956,-6.893059953161592,-5.849100702576113
1621784652099.778,0.042,0.148,0.475,-1.6574450074515648,-7.053610730253353,-6.082657228017884
1621784652105.099,0.033,0.15,0.485,-1.6908544177134341,-7.214161507345114,-6.316213753459655
1621784652109.104,0.05709916444770912,0.16355578000183638,0.48801239555596365,-1.716,-7.335,-6.492
1621784652110.417,0.065,0.168,0.489,-1.716,-7.344784157937377,-6.541455860824083
1621784652115.734,0.11,0.161,0.489,-1.716,-7.384404721633953,-6.74172542888412
1621784652121.047,0.175,0.169,0.48,-1.716,-7.423997995935017,-6.941857057577782
1621784652126.281,0.2518387096774194,0.16604466501240694,0.4691637717121588,-1.716,-7.463,-7.139
1621784652126.36,0.253,0.166,0.469,-1.7169036499466381,-7.460782369263607,-7.137238804695838
1621784652131.671,0.328,0.162,0.454,-1.7775737033084311,-7.31189310565635,-7.018994108858058
1621784652136.979,0.38,0.157,0.442,-1.838213077196727,-7.163079131981501,-6.900809206688011
1621784652142.285,0.41,0.143,0.428,-1.8988273496976165,-7.014326759160442,-6.782673226609747
1621784652143.438,0.41086955721255636,0.14191305348430452,0.42604349627174815,-1.912,-6.982,-6.757
1621784652147.589,0.414,0.138,0.419,-1.936234888591541,-6.831644772819827,-6.592054380708593
1621784652152.664,0.387,0.131,0.4,-1.9658632264820524,-6.647828145907266,-6.390400285066031
1621784652157.879,0.346,0.122,0.38,-1.9963082785502355,-6.458944557565885,-6.183187532724417
1621784652160.224,0.3190080082424015,0.11885093429494685,0.37865040041212006,-2.01,-6.374,-6.09
1621784652163.092,0.286,0.115,0.377,-1.9466196643798859,-6.333961347121702,-6.101756029994053
1621784652168.302,0.208,0.134,0.384,-1.8314807895920053,-6.261225767618606,-6.123112434188579
1621784652173.509,0.134,0.14,0.403,-1.7164066601882604,-6.188531089097423,-6.144456829158629
1621784652177.057,0.09240401670498803,0.142045704096476,0.415274224578856,-1.638,-6.139,-6.159
1621784652178.712,0.073,0.143,0.421,-1.6649859944791514,-6.1428410722068865,-6.2400564724684005
1621784652183.913,0.021,0.134,0.443,-1.7497934330960336,-6.154912203980823,-6.494788304518378
1621784652189.111,-0.012,0.117,0.457,-1.8345491210228098,-6.166975969780619,-6.749364695626907
1621784652193.861,-0.0312054150606374,0.10694002068252327,0.4524272821284197,-1.912,-6.178,-6.982
1621784652194.305,-0.033,0.106,0.452,-1.912,-6.192290372354362,-6.991870942385513
1621784652199.497,-0.024,0.106,0.45,-1.912,-6.3594594311333665,-7.107341421875455
1621784652204.687,0.014,0.105,0.442,-1.912,-6.526557745494774,-7.222763035313983
1621784652209.873,0.054,0.11,0.44,-1.912,-6.693530292002678,-7.338097775772221
1621784652210.633,0.060893333333333334,0.11234666666666666,0.44,-1.912,-6.718,-7.355
1621784652215.055,0.101,0.126,0.44,-1.6893212186620385,-6.780075342365861,-7.22794366094477
1621784652220.236,0.145,0.133,0.449,-1.428406405413683,-6.852809602286815,-7.0790705587235845
1621784652225.413,0.173,0.155,0.459,-1.167700599413712,-6.925485598028207,-6.930316712120991
1621784652227.373,0.1801962634459332,0.1671200226457822,0.46430250990752975,-1.069,-6.953,-6.874
1621784652230.588,0.192,0.187,0.473,-0.9406827956989248,-6.926643992519869,-6.789160589060308
1621784652235.758,0.208,0.216,0.497,-0.7343209005376343,-6.884257816152408,-6.652720415497896
1621784652240.927,0.213,0.253,0.517,-0.5280077284946236,-6.841881647381954,-6.516312456171108
1621784652244.084,0.2215554820415879,0.2786664461247637,0.5298332230623819,-0.402,-6.816,-6.433
1621784652246.093,0.227,0.295,0.538,-0.3618096711742102,-6.7828097885072305,-6.399930480185386
1621784652251.255,0.239,0.349,0.555,-0.25854753453990786,-6.697533249244668,-6.314964037429234
1621784652256.414,0.251,0.403,0.569,-0.15533912176234196,-6.612301076530462,-6.230041799888533
1621784652260.73,0.2619607478418467,0.4535880669623695,0.5867058234368293,-0.069,-6.541,-6.159
1621784652261.533,0.264,0.463,0.59,-0.06705597422939387,-6.537646555545705,-6.138490528120105
1621784652266.648,0.264,0.518,0.611,-0.05467248869580637,-6.516285043000266,-6.0078447557407575
1621784652271.76,0.25,0.567,0.628,-0.04229609598959719,-6.494935765582055,-5.87727381269025
1621784652276.867,0.236,0.613,0.634,-0.029932115731300057,-6.473607899636493,-5.7468338209652154
1621784652277.252,0.23464246771879482,0.6156396461023433,0.634,-0.029,-6.472,-5.737
1621784652281.972,0.218,0.648,0.634,-0.1666941289701636,-6.376673295328349,-5.737
1621784652287.074,0.204,0.684,0.628,-0.31553455245428297,-6.2736299252239585,-5.737
1621784652292.172,0.213,0.719,0.611,-0.46426102021174204,-6.170665447545717,-5.737
1621784652293.74,0.2136154583353299,0.7226927500119794,0.6051531458143657,-0.51,-6.139,-5.737
1621784652297.267,0.215,0.731,0.592,-0.650853265466633,-6.0654647335539496,-5.791669075637734
1621784652302.358,0.209,0.768,0.572,-0.8541530710671198,-5.959328000949738,-5.870575392879933
1621784652307.447,0.206,0.796,0.548,-1.0573846290827609,-5.853226898363186,-5.9494552213334915
1621784652310.192,0.19952112946600076,0.810037552823665,0.5377417883211679,-1.167,-5.796,-5.992
1621784652312.531,0.194,0.822,0.529,-1.2131666270077335,-5.801557093991672,-6.0603950029744205
1621784652317.612,0.18,0.836,0.501,-1.313450505651398,-5.813628301606187,-6.208963712076145
1621784652322.69,0.176,0.848,0.482,-1.4136717430101131,-5.825691969066032,-6.357439619274242
1621784652326.608,0.15901553855775244,0.8549481887718285,0.4735077692788762,-1.491,-5.835,-6.472
1621784652327.765,0.154,0.857,0.471,-1.4681161750897955,-5.87999072983889,-6.4976383593901375
1621784652332.835,0.136,0.864,0.466,-1.3678358644946869,-6.077146772582977,-6.609989448112435
1621784652337.903,0.113,0.857,0.464,-1.2675941845388021,-6.274226865582664,-6.722297256211157
1621784652342.968,0.087,0.845,0.466,-1.1674152793716561,-6.471183540247702,-6.834534733296571
1621784652342.989,0.0868921161825726,0.8448838174273858,0.46604979253112033,-1.167,-6.472,-6.835
1621784652348.028,0.061,0.817,0.478,-1.1488106319735918,-6.6958217150368196,-7.064987602503399
1621784652353.086,0.042,0.773,0.499,-1.130553406324217,-6.92047842387489,-7.295833201392105
1621784652358.141,0.044,0.716,0.517,-1.1123058746209802,-7.145015847884211,-7.526556229368625
1621784652359.334,0.04731158017041053,0.7046460108443068,0.5198384972889233,-1.108,-7.198,-7.581
1621784652363.184,0.058,0.668,0.529,-1.2749133322339326,-7.2166772708873665,-7.785031452858193
1621784652368.222,0.087,0.595,0.538,-1.4933189511716116,-7.241116426547532,-8.052006026715441
1621784652373.258,0.12,0.51,0.527,-1.7116504804881338,-7.265547291726009,-8.318890034930963
1621784652375.619,0.13970118845500848,0.47622653407712834,0.5204329371816638,-1.814,-7.277,-8.444
1621784652378.291,0.162,0.438,0.513,-1.936692943439322,-7.16236597643806,-8.4004160455611
1621784652383.32,0.201,0.363,0.485,-2.167606780068522,-6.946619402536515,-8.318389012442148
1621784652388.344,0.243,0.295,0.464,-2.398285207669652,-6.731092775139749,-8.23644560317365
1621784652391.866,0.267541168465053,0.2690564790512297,0.439458831534947,-2.56,-6.58,-8.179
1621784652393.367,0.278,0.258,0.429,-2.5726848795180723,-6.521945843373494,-8.04002186746988
1621784652398.385,0.302,0.204,0.405,-2.615092981927711,-6.3278591265060244,-7.575390030120482
1621784652403.4,0.309,0.182,0.374,-2.657474262048193,-6.133895165662651,-7.1110520632530125
1621784652408.077,0.2893996589524969,0.1689331059683313,0.3487995615103532,-2.697,-5.953,-6.678
1621784652408.411,0.288,0.168,0.347,-2.6842410014940916,-5.945897903744284,-6.652688459274686
1621784652413.419,0.262,0.161,0.319,-2.4929213111785216,-5.839402801044355,-6.27314486651273
1621784652418.424,0.209,0.171,0.302,-2.3017135419024766,-5.732969997434388,-5.893823304809768
1621784652423.424,0.154,0.194,0.288,-2.1107016344456015,-5.626646217231856,-5.514890297460044
1621784652424.254,0.1428758792497069,0.19914698124267294,0.2853434935521688,-2.079,-5.609,-5.452
1621784652428.422,0.087,0.225,0.272,-1.8586715634361102,-5.639479197555145,-5.353330055372326
1621784652433.416,0.017,0.248,0.258,-1.5946981451783717,-5.67599603618869,-5.235114526914582
1621784652438.406,-0.049,0.269,0.258,-1.3309312082059972,-5.712484311174317,-5.116991467215347
1621784652440.391,-0.07407725069760611,0.2725824643853723,0.2587961031967494,-1.226,-5.727,-5.07
1621784652443.393,-0.112,0.278,0.26,-1.1290533865025094,-5.847623959486301,-5.144947189665368
1621784652448.376,-0.162,0.302,0.26,-0.9681327308841144,-6.047846390611496,-5.269351234970358
1621784652453.357,-0.195,0.325,0.258,-0.8072751504859521,-6.247990341606902,-5.393706518278168
1621784652456.493,-0.2050834069276813,0.332562555195761,0.25295829653615937,-0.706,-6.374,-5.472
1621784652458.333,-0.211,0.337,0.25,-0.6745601061812666,-6.443510747061054,-5.570664103147516
1621784652463.316,-0.213,0.346,0.246,-0.5894216913158893,-6.631744042472507,-5.837843928706864
1621784652468.297,-0.202,0.36,0.244,-0.5043124762988244,-6.819912779673872,-6.104932119833144
1621784652472.588,-0.181308314937454,0.35655138582290896,0.23968923227863626,-0.431,-6.982,-6.335
1621784652473.274,-0.178,0.356,0.239,-0.4297614372131197,-6.991225157309177,-6.360540018846703
1621784652478.247,-0.134,0.361,0.232,-0.42078295893242545,-7.058099340365383,-6.545682433048606
1621784652483.217,-0.086,0.374,0.22,-0.4118102106575068,-7.124930844757881,-6.730706690579688
1621784652488.184,-0.026,0.382,0.206,-0.40284275161868865,-7.191722953460802,-6.915621880414627
1621784652488.651,-0.02110901219992129,0.3826584022038568,0.20468319559228648,-0.402,-7.198,-6.933
1621784652493.147,0.026,0.389,0.192,-0.43790574400999227,-7.085233522718618,-6.911119937243911
1621784652498.106,0.063,0.387,0.183,-0.4775081263042452,-6.9608572908257305,-6.886987235533351
1621784652503.062,0.089,0.389,0.157,-0.5170871121536611,-6.8365545383924085,-6.862868791031363
1621784652504.679,0.09520283925666682,0.3935705131364914,0.15177655641543847,-0.53,-6.796,-6.855
1621784652508.015,0.108,0.403,0.141,-0.4828654985041822,-6.75512229073814,-6.750720129434032
1621784652512.965,0.101,0.403,0.138,-0.412922644850113,-6.694463886684169,-6.595979302765737
1621784652517.91,0.08,0.41,0.124,-0.34305568105500944,-6.633871298614078,-6.441406374015508
1621784652520.674,0.06378337531486146,0.41615113350125943,0.12567758186397984,-0.304,-6.6,-6.355
1621784652522.853,0.051,0.421,0.127,-0.3012694731689408,-6.579930627791715,-6.360324527320566
1621784652527.792,0.033,0.435,0.119,-0.29508027901854006,-6.534440050786269,-6.372393455913847
1621784652532.728,0.017,0.447,0.106,-0.2888947561647188,-6.488976457810684,-6.384455225478798
1621784652536.634,0.0035334950735257716,0.4493764420458484,0.1036235579541516,-0.284,-6.453,-6.394
1621784652537.659,0.0,0.45,0.103,-0.2915952775222324,-6.459951609935603,-6.411057191045692
1621784652542.588,-0.012,0.449,0.105,-0.3281224471021159,-6.493383256669733,-6.493088546458142
1621784652547.513,-0.028,0.454,0.103,-0.3646206685065931,-6.526788408463662,-6.575054891137688
1621784652552.435,-0.035,0.449,0.106,-0.4010971787795155,-6.560173689052438,-6.656972477767556
1621784652552.557,-0.035,0.44890091342335187,0.10604954328832407,-0.402,-6.561,-6.659
1621784652557.353,-0.035,0.445,0.108,-0.487467998406814,-6.613966083519716,-6.773960476730292
1621784652562.291,-0.03,0.433,0.103,-0.5754637090597139,-6.668498636600386,-6.892320904439474
1621784652567.224,-0.009,0.405,0.099,-0.663372407242869,-6.7229772664603695,-7.010564294249211
1621784652568.494,-0.002304649205327523,0.3995922166658415,0.09590983809476655,-0.686,-6.737,-7.041
1621784652572.155,0.017,0.384,0.087,-0.7200269528555002,-6.79332840168647,-7.059163035645842
1621784652577.081,0.044,0.363,0.075,-0.7658099501724799,-6.86911782292066,-7.083601257186662
1621784652582.005,0.087,0.344,0.065,-0.8115725258719816,-6.944873438098889,-7.108028577999233
1621784652584.418,0.10171052239916654,0.33615438805377784,0.05813508954705561,-0.834,-6.982,-7.12
1621784652586.926,0.117,0.328,0.051,-0.834,-7.000628524887434,-7.098214098013001
1621784652591.842,0.14,0.311,0.047,-0.834,-7.037142101947044,-7.055511779078881
1621784652596.756,0.169,0.297,0.031,-0.834,-7.073641172221966,-7.012826425706514
1621784652600.305,0.1906793437733035,0.28905090728312205,0.020160328113348246,-0.834,-7.1,-6.982
1621784652601.667,0.199,0.286,0.016,-0.8297897582011396,-7.108420483597721,-6.959316248267365
1621784652606.575,0.22,0.267,0.002,-0.8146188510703835,-7.138762297859233,-6.877579115971046
1621784652611.478,0.232,0.246,-0.014,-0.7994630371168951,-7.1690739257662095,-6.795923302017558
1621784652616.157,0.24059245790574874,0.23072451927866894,-0.027366045631164692,-0.785,-7.198,-6.718
1621784652616.379,0.241,0.23,-0.028,-0.7841722972451578,-7.197172297245158,-6.715376603132958
1621784652621.277,0.248,0.202,-0.044,-0.7659036499729918,-7.178903649972992,-6.657474280422872
1621784652626.171,0.248,0.188,-0.056,-0.7476513928543869,-7.160651392854387,-6.599623906165599
1621784652631.061,0.248,0.169,-0.072,-0.729412794197083,-7.142412794197083,-6.54181682228567
1621784652631.976,0.24706398281804107,0.1661919484541232,-0.07349762749113431,-0.726,-7.139,-6.531
1621784652635.949,0.243,0.154,-0.08,-0.7358177219497858,-7.094694382995839,-6.501546834150642
1621784652640.833,0.232,0.124,-0.089,-0.7478870101944526,-7.040227851430163,-6.465338969416642
1621784652645.714,0.229,0.103,-0.096,-0.7599490586761134,-6.9857939916154885,-6.429152823971659
1621784652647.758,0.22355166199439327,0.08749319183019623,-0.09725730877052463,-0.765,-6.963,-6.414
1621784652650.591,0.216,0.066,-0.099,-0.7719955481357819,-6.936632164718976,-6.375255425709516
1621784652655.466,0.204,0.04,-0.108,-0.7840333889816361,-6.891258764607679,-6.308584307178631
1621784652660.366,0.185,0.002,-0.113,-0.7961327212020034,-6.845653589315526,-6.241572621035059
1621784652663.552,0.1726383487885133,-0.01036165121148669,-0.11690367932994317,-0.804,-6.816,-6.198
1621784652665.263,0.166,-0.017,-0.119,-0.7806234055039072,-6.816,-6.182090928745715
1621784652670.157,0.147,-0.051,-0.12,-0.7137559378571208,-6.816,-6.136583902152763
1621784652675.048,0.127,-0.079,-0.112,-0.6469284986255676,-6.816,-6.091104117120178
1621784652679.361,0.11464677089056491,-0.09576509664851907,-0.11641186753908397,-0.588,-6.816,-6.051
1621784652679.936,0.113,-0.098,-0.117,-0.5851574695923989,-6.813121026894866,-6.048849880845532
1621784652684.821,0.089,-0.124,-0.115,-0.5610062207916808,-6.788660146699266,-6.030581628547553
1621784652689.701,0.077,-0.157,-0.117,-0.5368803193958713,-6.764224938875306,-6.01233254928662
1621784652694.58,0.058,-0.187,-0.126,-0.512758039057906,-6.739793398533007,-5.99408620903098
1621784652695.138,0.05616943721209694,-0.18940261365912278,-0.12634323052273183,-0.51,-6.737,-5.992
1621784652699.456,0.042,-0.208,-0.129,-0.4642029118084843,-6.747695128380054,-5.96512506201935
1621784652704.328,0.028,-0.223,-0.133,-0.412533273381295,-6.759761690647482,-5.934803956834532
1621784652709.197,0.017,-0.236,-0.131,-0.36089211734061033,-6.771821601339618,-5.90449956586455
1621784652710.884,0.01179955847674477,-0.23773348050775173,-0.131,-0.343,-6.776,-5.894
1621784652714.063,0.002,-0.241,-0.131,-0.3231758921219842,-6.787934922089826,-5.894
1621784652718.926,-0.007,-0.251,-0.127,-0.2928497724059718,-6.80619248395967,-5.894
1621784652723.786,-0.024,-0.25,-0.133,-0.2625434448259255,-6.82443813015582,-5.894
1621784652726.599,-0.024,-0.2517379216731185,-0.12952415665376302,-0.245,-6.835,-5.894
1621784652728.642,-0.024,-0.253,-0.127,-0.23991861424678862,-6.859364593226936,-5.906768610354224
1621784652733.495,-0.04,-0.248,-0.129,-0.22784789412222653,-6.9172421486959905,-5.937100163487738
1621784652738.346,-0.042,-0.244,-0.127,-0.2157826391592059,-6.975093499416116,-5.967417983651226
1621784652742.279,-0.043622846781504986,-0.2431885766092475,-0.13024569356300997,-0.206,-7.022,-5.992
1621784652743.193,-0.044,-0.243,-0.131,-0.20483178882336422,-7.0265560235888795,-5.998892445942151
1621784652748.037,-0.049,-0.239,-0.127,-0.19864095603606977,-7.050700271459328,-6.035418359387188
1621784652752.878,-0.045,-0.239,-0.129,-0.19245417953758306,-7.074828699803426,-6.07192034072826
1621784652757.717,-0.047,-0.239,-0.131,-0.18626958719460826,-7.0989486099410275,-6.1084094355518115
1621784652757.928,-0.04678181818181818,-0.2383890909090909,-0.131,-0.186,-7.1,-6.11
1621784652762.551,-0.042,-0.225,-0.131,-0.13952075418601378,-7.105920923033628,-6.115624876881948
1621784652767.383,-0.037,-0.223,-0.136,-0.09094041867954912,-7.112109500805153,-6.121504025764895
1621784652772.212,-0.037,-0.218,-0.131,-0.04239199224551696,-7.118294013726686,-6.127379313040351
1621784652773.544,-0.03534399028733306,-0.21744799676244436,-0.1296199919061109,-0.029,-7.12,-6.129
1621784652777.038,-0.031,-0.216,-0.126,-0.03796966658310354,-7.102284908498371,-6.120254575081474
1621784652781.859,-0.03,-0.216,-0.131,-0.05034494860867386,-7.0778437264978695,-6.108188675106542
1621784652786.679,-0.031,-0.223,-0.131,-0.06271835046377539,-7.053406257834044,-6.096124608297819
1621784652789.126,-0.03303234146094186,-0.21893531707811628,-0.13455659755664826,-0.069,-7.041,-6.09
1621784652791.495,-0.035,-0.215,-0.138,-0.069,-7.02911699138107,-6.09
1621784652796.309,-0.042,-0.227,-0.143,-0.069,-7.004971364428466,-6.09
1621784652801.118,-0.051,-0.232,-0.147,-0.069,-6.980851452972668,-6.09
1621784652804.677,-0.05618263077704419,-0.23866338242762825,-0.15070187912646013,-0.069,-6.963,-6.09
1621784652805.925,-0.058,-0.241,-0.152,-0.07213698587028354,-6.963,-6.095550051924348
1621784652810.729,-0.073,-0.244,-0.154,-0.08421180413506625,-6.963,-6.116913191931271
1621784652815.53,-0.073,-0.246,-0.154,-0.09627925858325204,-6.963,-6.138263303647292
1621784652820.193,-0.0866095276872964,-0.2566932003257329,-0.15497210912052117,-0.108,-6.963,-6.159
1621784652820.327,-0.087,-0.257,-0.155,-0.1100305256850935,-6.963,-6.159501151020151
1621784652825.122,-0.091,-0.265,-0.155,-0.18280708586925676,-6.963,-6.177463025448582
1621784652829.913,-0.098,-0.265,-0.157,-0.25552065529311596,-6.963,-6.1954093532212795
1621784652834.701,-0.105,-0.276,-0.162,-0.3281860553120369,-6.963,-6.213343792374886
1621784652835.677,-0.10459204081632653,-0.27844775510204084,-0.1632238775510204,-0.343,-6.963,-6.217
1621784652839.486,-0.103,-0.288,-0.168,-0.3745515601548306,-6.9726133659846745,-6.260629891776602
1621784652844.268,-0.112,-0.295,-0.175,-0.4141618927245438,-6.984682139189509,-6.315403554783158
1621784652849.047,-0.112,-0.314,-0.183,-0.4537479579745636,-6.996743518445375,-6.3701436606367015
1621784652851.13,-0.11025559758715878,-0.31879710663531335,-0.1847444024128412,-0.471,-7.002,-6.394
1621784652853.823,-0.108,-0.325,-0.187,-0.4743185395126431,-6.998506800513007,-6.4179284164859
1621784652858.595,-0.096,-0.34,-0.195,-0.4801987111484079,-6.992317146159571,-6.460327548806942
1621784652863.365,-0.084,-0.351,-0.195,-0.48607647608341115,-6.986130025175357,-6.502709327548807
1621784652866.549,-0.08066035030216122,-0.36035101915394857,-0.19900757963740653,-0.49,-6.982,-6.531
1621784652868.132,-0.079,-0.365,-0.201,-0.49606990876636253,-6.980045283617613,-6.532028798095993
1621784652872.895,-0.073,-0.387,-0.211,-0.5143329948433162,-6.974163950813169,-6.535124236414122
1621784652877.655,-0.07,-0.405,-0.22,-0.5325848472828243,-6.968286235620785,-6.538217770725903
1621784652881.936,-0.0664003079291763,-0.417598922247883,-0.232598922247883,-0.549,-6.963,-6.541
1621784652882.412,-0.066,-0.419,-0.234,-0.5459613611066942,-6.963589123867069,-6.538271426299889
1621784652887.167,-0.063,-0.435,-0.239,-0.5156123708061695,-6.969473111782477,-6.511019271744316
1621784652891.917,-0.059,-0.45,-0.246,-0.4852945460327556,-6.975351057401813,-6.483795102560026
1621784652896.665,-0.056,-0.454,-0.255,-0.454989187470186,-6.98122658610272,-6.456582127524249
1621784652897.29,-0.05626344224337536,-0.4551854900951891,-0.255,-0.451,-6.982,-6.453
1621784652901.41,-0.058,-0.463,-0.255,-0.44562297066930073,-6.952964041614224,-6.442514792805136
1621784652906.151,-0.051,-0.476,-0.264,-0.4394353242946134,-6.919550751190912,-6.430448882374496
1621784652910.89,-0.058,-0.494,-0.269,-0.4332502270301273,-6.886151225962687,-6.418387942708748
1621784652912.614,-0.060912915699922666,-0.49582057231245164,-0.272277030162413,-0.431,-6.874,-6.414
1621784652915.625,-0.066,-0.499,-0.278,-0.42135192221725526,-6.8547038444345105,-6.406124018136534
1621784652920.357,-0.073,-0.511,-0.284,-0.4061894278050961,-6.824378855610192,-6.3937464716776296
1621784652925.087,-0.082,-0.52,-0.295,-0.39103319177469825,-6.794066383549397,-6.381374034101794
1621784652927.906,-0.08736847814856907,-0.5241754830044426,-0.2979824878603161,-0.382,-6.776,-6.374
1621784652929.813,-0.091,-0.527,-0.3,-0.36487856194300894,-6.776,-6.374
1621784652934.535,-0.105,-0.527,-0.3,-0.32248376825970787,-6.776,-6.374
1621784652939.255,-0.112,-0.529,-0.302,-0.2801065102958353,-6.776,-6.374
1621784652943.165,-0.12028942601314632,-0.529,-0.30365788520262926,-0.245,-6.776,-6.374
1621784652943.972,-0.122,-0.529,-0.304,-0.24605987236635346,-6.777059872366353,-6.377126623480742
1621784652948.686,-0.129,-0.532,-0.304,-0.2522520283487798,-6.783252028348779,-6.3953934836289
1621784652953.396,-0.134,-0.531,-0.302,-0.25843873264278616,-6.789438732642786,-6.413644261296219
1621784652958.103,-0.141,-0.538,-0.302,-0.2646215886861431,-6.795621588686143,-6.431883686624122
1621784652958.391,-0.1409387712743877,-0.5373264840182649,-0.30218368617683683,-0.265,-6.796,-6.433
1621784652962.808,-0.14,-0.527,-0.305,-0.28215184625767264,-6.78466233891442,-6.475734261014879
1621784652967.509,-0.143,-0.527,-0.307,-0.30040625702991935,-6.7725958639971715,-6.521215589549121
1621784652972.206,-0.147,-0.527,-0.305,-0.3186454992447858,-6.760539415753446,-6.566659125237009
1621784652973.585,-0.147,-0.5264125845033801,-0.3061748309932397,-0.324,-6.757,-6.58
1621784652976.901,-0.147,-0.525,-0.309,-0.31109517521257407,-6.757,-6.605809649574852
1621784652981.594,-0.141,-0.527,-0.305,-0.29283060100489566,-6.757,-6.642338797990209
1621784652986.282,-0.136,-0.52,-0.311,-0.27458597977325433,-6.757,-6.678828040453491
1621784652988.745,-0.13337128712871288,-0.5173712871287128,-0.3088970297029703,-0.265,-6.757,-6.698
1621784652990.967,-0.131,-0.515,-0.307,-0.2563343392937835,-6.7540624878961975,-6.700937512103803
1621784652995.65,-0.127,-0.515,-0.304,-0.2380708475889226,-6.7478714737589565,-6.707128526241044
1621784653000.33,-0.124,-0.497,-0.305,-0.21981782970757213,-6.741684010070363,-6.713315989929637
1621784653003.873,-0.12096924763744582,-0.5000307523625541,-0.29969618336553017,-0.206,-6.737,-6.718
1621784653005.006,-0.12,-0.501,-0.298,-0.19421681194107088,-6.732571922958747,-6.716498956935168
1621784653009.678,-0.112,-0.496,-0.3,-0.14563179002862364,-6.714313857399292,-6.710309782169252
1621784653014.349,-0.112,-0.478,-0.293,-0.09705438491518024,-6.696058654203794,-6.704121577696202
1621784653018.97,-0.10803954802259887,-0.4680988700564972,-0.293,-0.049,-6.678,-6.698
1621784653019.016,-0.108,-0.468,-0.293,-0.04863855304528217,-6.67812252439143,-6.697938737804286
1621784653023.68,-0.101,-0.45,-0.281,-0.01210563677028298,-6.690506563806684,-6.691746718096659
1621784653028.341,-0.098,-0.436,-0.269,0.02440624290946808,-6.702883472172701,-6.6855582639136495
1621784653032.998,-0.094,-0.428,-0.255,0.06088561148747204,-6.715249359826261,-6.679375320086869
1621784653034.034,-0.0922197514029475,-0.42354937850736873,-0.25299722032831595,0.069,-6.718,-6.678
1621784653037.653,-0.086,-0.408,-0.246,0.069,-6.727390355222766,-6.668609644777234
1621784653042.304,-0.077,-0.398,-0.234,0.069,-6.739457696493251,-6.656542303506749
1621784653046.952,-0.075,-0.38,-0.229,0.069,-6.75151743628892,-6.64448256371108
1621784653049.065,-0.07363528855250709,-0.3740862503941974,-0.22399605802585937,0.069,-6.757,-6.639
1621784653051.597,-0.072,-0.367,-0.218,0.0755835829155544,-6.757,-6.648959779282506
1621784653056.24,-0.072,-0.354,-0.211,0.08765634155869523,-6.757,-6.66722369620418
1621784653060.879,-0.077,-0.34,-0.197,0.09971830848362524,-6.757,-6.685471287193177
1621784653064.064,-0.07425188266891358,-0.32557238401179633,-0.18738158934119753,0.108,-6.757,-6.698
1621784653065.515,-0.073,-0.319,-0.183,0.08899698190776058,-6.768343638350979,-6.69421878721634
1621784653070.147,-0.068,-0.309,-0.175,0.028329934580811456,-6.804558151296148,-6.682147282901284
1621784653074.777,-0.065,-0.295,-0.164,-0.032311532375157034,-6.840757394325986,-6.670080868558005
1621784653079.029,-0.053051087185982684,-0.27385961579058477,-0.15756597002322145,-0.088,-6.874,-6.659
1621784653079.403,-0.052,-0.272,-0.157,-0.09045476692663625,-6.875001945684341,-6.659976897042233
1621784653084.027,-0.045,-0.262,-0.148,-0.12080286457055966,-6.887388924314513,-6.6720542012066515
1621784653088.646,-0.028,-0.244,-0.138,-0.1511173133205801,-6.899762168702277,-6.684118114484721
1621784653093.264,-0.021,-0.229,-0.129,-0.18142535275747618,-6.912132797043868,-6.696179477117772
1621784653093.961,-0.017827609926451136,-0.22703613947827928,-0.1271872056722578,-0.186,-6.914,-6.698
1621784653097.878,0.0,-0.216,-0.117,-0.21176251413216235,-6.918994773148072,-6.713510085038751
1621784653102.489,0.017,-0.197,-0.11,-0.24209015090691613,-6.924874621094197,-6.731768560239878
1621784653107.097,0.037,-0.185,-0.108,-0.2723969130441906,-6.930750421916731,-6.750014468057216
1621784653108.861,0.04159815462933503,-0.185,-0.10416820447555414,-0.284,-6.933,-6.757
1621784653111.701,0.049,-0.185,-0.098,-0.2916401911361434,-6.9293709092103315,-6.7495508136422595
1621784653116.303,0.066,-0.175,-0.094,-0.3040213468201448,-6.923489860260431,-6.737479186850359
1621784653120.902,0.082,-0.168,-0.084,-0.3163946206013235,-6.9176125552143715,-6.72541524491371
1621784653123.729,0.09061303862706552,-0.16123261250730567,-0.084,-0.324,-6.914,-6.718
1621784653125.497,0.096,-0.157,-0.084,-0.33329684002633314,-6.899935549703752,-6.708583969716919
1621784653130.089,0.106,-0.154,-0.075,-0.35744269256089534,-6.863407208689927,-6.684128554970376
1621784653134.678,0.113,-0.148,-0.07,-0.3815718564845293,-6.826904114549046,-6.65969004279131
1621784653138.563,0.11469395358739622,-0.14545906961890567,-0.0683060464126038,-0.402,-6.796,-6.639
1621784653139.265,0.115,-0.145,-0.068,-0.4071202981481176,-6.7932028000857505,-6.631082501937633
1621784653143.847,0.126,-0.138,-0.063,-0.4405456044590294,-6.77494267904553,-6.579397074586502
1621784653148.427,0.131,-0.136,-0.059,-0.47395666298378986,-6.756690341518115,-6.527733678534325
1621784653153.004,0.124,-0.126,-0.056,-0.5073445688560545,-6.738450652199007,-6.476106083342954
1621784653153.368,0.12360208166533226,-0.12512457966373097,-0.05512457966373099,-0.51,-6.737,-6.472
1621784653157.578,0.119,-0.115,-0.045,-0.5211148646415231,-6.731585065943873,-6.438655406075431
1621784653162.149,0.11,-0.101,-0.044,-0.5331830396985423,-6.725705698608403,-6.402450880904373
1621784653166.715,0.094,-0.091,-0.033,-0.5452383234720524,-6.719832611641821,-6.366285029583843
1621784653168.14,0.09368788105679751,-0.08819092951117767,-0.029254572681570223,-0.549,-6.718,-6.355
1621784653171.28,0.093,-0.082,-0.021,-0.5907576651041063,-6.7220479369233574,-6.350739013764888
1621784653175.841,0.084,-0.072,-0.014,-0.6514104951052658,-6.727927547994899,-6.344549949479054
1621784653180.399,0.082,-0.063,-0.01,-0.712021119411638,-6.733803067698067,-6.338365191896772
1621784653182.879,0.08472215671561796,-0.057011255225640475,-0.009455568656876407,-0.745,-6.737,-6.335
1621784653184.954,0.087,-0.052,-0.009,-0.7506437155567359,-6.745324480446186,-6.326675519553814
1621784653189.506,0.08,-0.04,-0.005,-0.7630233716220702,-6.763584473142553,-6.308415526857447
1621784653194.055,0.079,-0.031,-0.003,-0.7753943961224354,-6.781831734280592,-6.290168265719408
1621784653197.587,0.0720077332044466,-0.02478465173728586,-0.0006692444014821976,-0.785,-6.796,-6.276
1621784653198.601,0.07,-0.023,0.0,-0.785,-6.796,-6.273304437530157
1621784653203.143,0.07,-0.019,0.005,-0.785,-6.796,-6.261232159198682
1621784653207.682,0.061,-0.007,0.009,-0.785,-6.796,-6.249168316666944
1621784653212.219,0.054,0.0,0.012,-0.785,-6.796,-6.23710901648891
1621784653212.26,0.05397285506543868,2.7144934561318466e-05,0.012,-0.785,-6.796,-6.237
1621784653216.752,0.051,0.003,0.012,-0.8058612398706106,-6.784035465368326,-6.237
1621784653221.282,0.04,0.009,0.017,-0.826899356387768,-6.7719694867776035,-6.237
1621784653225.809,0.028,0.023,0.014,-0.8479238670090372,-6.759911311568346,-6.237
1621784653226.902,0.025100701565029682,0.023,0.014483216405828387,-0.853,-6.757,-6.237
1621784653230.333,0.016,0.023,0.016,-0.8621591797854207,-6.752302984725425,-6.260015374845416
1621784653234.853,0.009,0.024,0.017,-0.8742258598215181,-6.746114943681273,-6.290336775961763
1621784653239.371,0.0,0.031,0.012,-0.8862873257796049,-6.73992957652328,-6.32064507503593
1621784653241.511,-0.003318459624641679,0.028629671696684515,0.012,-0.892,-6.737,-6.335
1621784653243.885,-0.007,0.026,0.012,-0.8825533725273437,-6.743352042610924,-6.344609500360116
1621784653248.397,-0.01,0.037,0.026,-0.8645995343617574,-6.755424451032612,-6.3628728874595915
1621784653252.906,-0.009,0.061,0.033,-0.846657353901814,-6.767489020652229,-6.381124415858499
1621784653256.087,-0.009706255420641803,0.047581147007805726,0.02593744579358196,-0.834,-6.776,-6.394
1621784653257.41,-0.01,0.042,0.023,-0.8410951941315696,-6.777819280546556,-6.399366877612342
1621784653261.913,-0.016,0.03,0.005,-0.8652455642656909,-6.7840116831450485,-6.417634465277895
1621784653266.412,-0.012,0.026,0.005,-0.8893736759941584,-6.79019837846004,-6.43588521645712
1621784653270.631,-0.010123160467010589,0.01943106163453706,0.0021847407005158837,-0.912,-6.796,-6.453
1621784653270.908,-0.01,0.019,0.002,-0.9088138028500766,-6.796,-6.454125662466141
1621784653275.4,-0.003,0.019,0.0,-0.857118175547218,-6.796,-6.472389387082121
1621784653279.89,0.002,0.019,-0.002,-0.8054450258256641,-6.796,-6.490645170516681
1621784653284.376,0.007,0.012,0.003,-0.7538168312667194,-6.796,-6.508885071588404
1621784653285.142,0.007,0.013879348832144606,0.004025099362987968,-0.745,-6.796,-6.512
1621784653288.86,0.007,0.023,0.009,-0.7601494014500084,-6.790864609677963,-6.491715208227954
1621784653293.34,0.007,0.023,0.002,-0.7784034901365706,-6.784676783004552,-6.467273292867982
1621784653297.817,0.007,0.019,0.002,-0.7966446467712022,-6.778493340077558,-6.442848693306356
1621784653299.622,0.005386470267321331,0.02061352973267867,0.002,-0.804,-6.776,-6.433
1621784653302.292,0.003,0.023,0.002,-0.7967924968314323,-6.765281149133925,-6.422096341360372
1621784653306.763,-0.002,0.017,0.003,-0.78472309252218,-6.747331778622729,-6.40383749894381
1621784653311.231,-0.007,0.019,0.002,-0.7726615969581749,-6.729394169835234,-6.38559062103929
1621784653314.069,-0.013357670221493027,0.020271534044298607,0.005178835110746514,-0.765,-6.718,-6.374
1621784653315.695,-0.017,0.021,0.007,-0.7606012057986723,-6.718,-6.380654586099444
1621784653320.157,-0.014,0.03,0.01,-0.7485302804498035,-6.718,-6.398915729575938
1621784653324.615,-0.031,0.038,0.01,-0.7364699227746918,-6.718,-6.4171608860588
1621784653328.485,-0.03447403024326102,0.03539447731755424,0.017816568047337278,-0.726,-6.718,-6.433
1621784653329.071,-0.035,0.035,0.019,-0.7267740358500815,-6.719588810429115,-6.436218359587181
1621784653333.523,-0.044,0.037,0.021,-0.7326550957360131,-6.7316604596686584,-6.460671187533949
1621784653337.972,-0.042,0.037,0.017,-0.7385322854426942,-6.743724164856056,-6.485107923682781
1621784653342.419,-0.045,0.038,0.021,-0.7444068950298751,-6.75578257400869,-6.509533931966322
1621784653342.868,-0.04449475245892631,0.038,0.021202099016429474,-0.745,-6.757,-6.512
1621784653346.862,-0.04,0.038,0.023,-0.7285770919113894,-6.773422908088611,-6.54735100554667
1621784653351.301,-0.042,0.044,0.023,-0.7103251777997074,-6.791674822200292,-6.586639024058257
1621784653355.738,-0.035,0.042,0.024,-0.6920812944499268,-6.809918705550073,-6.625909756014565
1621784653357.217,-0.031998017839444996,0.039665124986235,0.026001321440370005,-0.686,-6.816,-6.639
1621784653360.172,-0.026,0.035,0.03,-0.686,-6.816,-6.647049793663245
1621784653364.603,-0.026,0.04,0.03,-0.686,-6.816,-6.659119828791651
1621784653369.03,-0.014,0.045,0.037,-0.686,-6.816,-6.671179223082432
1621784653371.534,-0.012868053639423872,0.046131946360576125,0.034736107278847746,-0.686,-6.816,-6.678
1621784653373.454,-0.012,0.047,0.033,-0.686,-6.813311478772134,-6.675445904833527
1621784653377.875,-0.005,0.04,0.037,-0.686,-6.807121556026527,-6.6695654782252
1621784653382.294,-0.003,0.042,0.038,-0.686,-6.800934367949682,-6.663687649552198
1621784653385.818,-0.0022017805795178057,0.042,0.03560534173855342,-0.686,-6.796,-6.659
1621784653386.709,-0.002,0.042,0.035,-0.686,-6.794749743027479,-6.655311741931063
1621784653391.12,0.0,0.047,0.042,-0.686,-6.788559103679846,-6.637049355855547
1621784653395.529,0.005,0.044,0.045,-0.686,-6.782371548002467,-6.618796066607278
1621784653399.935,0.003,0.037,0.042,-0.686,-6.776188103885424,-6.600554906462002
1621784653400.069,0.00290867250748586,0.03715221248752357,0.042273982477542424,-0.686,-6.776,-6.6
1621784653404.338,0.0,0.042,0.051,-0.7037156031048222,-6.776,-6.561566149196318
1621784653408.737,0.002,0.049,0.047,-0.7219722489352933,-6.776,-6.521958510784448
1621784653413.133,0.0,0.051,0.047,-0.7402157233136419,-6.776,-6.482379447726337
1621784653414.286,-0.000524724969441049,0.051,0.0480494499388821,-0.745,-6.776,-6.472
1621784653417.527,-0.002,0.051,0.051,-0.7406588992530891,-6.776,-6.458748218772588
1621784653421.917,-0.007,0.052,0.047,-0.7347793171101091,-6.776,-6.4408000206519125
1621784653426.303,-0.007,0.054,0.051,-0.7289049667848415,-6.776,-6.4228677933432
1621784653428.472,-0.005021491008295752,0.053010745504147874,0.051494627247926056,-0.726,-6.776,-6.414
1621784653430.688,-0.003,0.052,0.052,-0.7352387565338899,-6.7730248072179,-6.414
1621784653435.068,-0.01,0.045,0.058,-0.7534994738385633,-6.767144237238428,-6.414
1621784653439.446,-0.005,0.051,0.056,-0.7717510307588801,-6.761266617213241,-6.414
1621784653442.624,-0.007905580357142856,0.051,0.05454720982142857,-0.785,-6.757,-6.414
1621784653443.821,-0.009,0.051,0.054,-0.785,-6.755304750708802,-6.410609501417606
1621784653448.192,-0.009,0.044,0.052,-0.785,-6.749114653205172,-6.398229306410345
1621784653452.561,-0.023,0.047,0.049,-0.785,-6.7429269760044255,-6.385853952008851
1621784653456.746,-0.023,0.047,0.05187633536551261,-0.785,-6.737,-6.374
1621784653456.926,-0.023,0.047,0.052,-0.785,-6.737753500381229,-6.373501923476814
1621784653461.288,-0.03,0.051,0.054,-0.785,-6.75602051708602,-6.361427115824496
1621784653465.647,-0.035,0.047,0.054,-0.785,-6.774274242739309,-6.349361093782491
1621784653470.003,-0.04,0.052,0.058,-0.785,-6.792515699729674,-6.337303181534622
1621784653470.835,-0.04229366236679753,0.053720246775098145,0.05819113853056646,-0.785,-6.796,-6.335
1621784653474.356,-0.052,0.061,0.059,-0.7897590746465665,-6.8010095522595435,-6.359546806071763
1621784653478.706,-0.061,0.058,0.061,-0.7956387856472958,-6.807198721733996,-6.389873736496578
1621784653483.052,-0.058,0.068,0.063,-0.8015128868665116,-6.813381986175275,-6.420171732258849
1621784653484.892,-0.06011844398223622,0.06715262240710552,0.063,-0.804,-6.816,-6.433
1621784653487.395,-0.063,0.066,0.063,-0.8057850053974998,-6.826353031305498,-6.452278058292997
1621784653491.736,-0.059,0.065,0.065,-0.8088809067799562,-6.844309259323746,-6.4857137932235265
1621784653496.073,-0.061,0.065,0.066,-0.8119738482432008,-6.862248319810565,-6.51911756102657
1621784653498.914,-0.054444682289319514,0.065,0.0673110635421361,-0.814,-6.874,-6.541
1621784653500.407,-0.051,0.065,0.068,-0.8202960927002076,-6.878268537423869,-6.543134268711935
1621784653504.738,-0.044,0.066,0.065,-0.8385614540250946,-6.890651833237352,-6.549325916618677
1621784653509.066,-0.037,0.065,0.066,-0.8568134303614121,-6.903026054482313,-6.555513027241156
1621784653512.904,-0.030788270489952585,0.065,0.06511261006999323,-0.873,-6.914,-6.561
1621784653513.391,-0.03,0.065,0.065,-0.8743610838989574,-6.911940924357987,-6.561
1621784653517.712,-0.023,0.07,0.061,-0.8864355013644951,-6.893674497935764,-6.561
1621784653522.031,-0.014,0.058,0.061,-0.8985051430970541,-6.875415296340354,-6.561
1621784653526.347,0.0,0.056,0.059,-0.9105659156112239,-6.857169512280457,-6.561
1621784653526.86,0.000595062846789718,0.05540493715321028,0.058642962291926164,-0.912,-6.855,-6.561
1621784653530.659,0.005,0.051,0.056,-0.8907208079107932,-6.844360403955397,-6.536719896205905
1621784653534.969,0.005,0.047,0.058,-0.866577950767936,-6.832288975383968,-6.509172277158286
1621784653539.274,0.0,0.054,0.056,-0.8424638123290553,-6.820231906164528,-6.481657426888281
1621784653540.785,0.003160340425531915,0.05048851063829787,0.05705344680851064,-0.834,-6.816,-6.472
1621784653543.577,0.009,0.044,0.059,-0.8299801750500896,-6.792283032795528,-6.464161341347675
1621784653547.877,0.003,0.051,0.058,-0.8237890962775493,-6.755755668037541,-6.452088737741221
1621784653552.175,0.0,0.049,0.058,-0.8176008295546416,-6.719244894372386,-6.440021617631551
1621784653554.676,0.0,0.04783484986351229,0.05392197452229299,-0.814,-6.698,-6.433
1621784653556.468,0.0,0.047,0.051,-0.8050781101363492,-6.703042807314238,-6.420328330338583
1621784653560.759,-0.009,0.052,0.051,-0.7837141951167952,-6.715118063629638,-6.38998537857168
1621784653565.046,-0.019,0.047,0.054,-0.7623709438748546,-6.727181640418561,-6.359671775358489
1621784653568.535,-0.024699464448495898,0.04537158158614403,0.057256836827711946,-0.745,-6.737,-6.335
1621784653569.331,-0.026,0.045,0.058,-0.7460401582086695,-6.741108624924245,-6.335
1621784653573.635,-0.035,0.049,0.061,-0.7516632643296864,-6.763319894102262,-6.335
1621784653578.623,-0.038,0.059,0.061,-0.7581801218461931,-6.789061481292463,-6.335
1621784653583.612,-0.042,0.065,0.063,-0.7646982552390673,-6.814808108194316,-6.335
1621784653583.843,-0.04209260437570359,0.06537041750281435,0.06323151093925897,-0.765,-6.816,-6.335
1621784653588.6,-0.044,0.073,0.068,-0.7968753692118935,-6.827510549993184,-6.329097153849649
1621784653593.588,-0.044,0.073,0.073,-0.8302966570229783,-6.839579348369409,-6.322908026477227
1621784653598.575,-0.047,0.08,0.07,-0.8637130371559703,-6.851646374528546,-6.31671980793408
1621784653599.961,-0.0464442758553179,0.08055572414468211,0.07083358621702315,-0.873,-6.855,-6.315
1621784653603.563,-0.045,0.082,0.073,-0.8817168199239521,-6.841813016012483,-6.302036524215661
1621784653608.551,-0.047,0.084,0.072,-0.8937876717516777,-6.823551983760282,-6.2840850009846845
1621784653613.538,-0.054,0.084,0.072,-0.9058561603369135,-6.8052945266697975,-6.266136992319462
1621784653616.077,-0.061127484578478414,0.0804362577107608,0.0755637422892392,-0.912,-6.796,-6.257
1621784653618.525,-0.068,0.077,0.079,-0.9328126751814312,-6.792961653258185,-6.237554580852385
1621784653623.512,-0.075,0.079,0.077,-0.9752122479281244,-6.786771934609033,-6.19794038149781
1621784653628.499,-0.091,0.077,0.079,-1.0176118206748177,-6.78058221595988,-6.158326182143235
1621784653632.191,-0.09988527640405424,0.0755191205993243,0.079,-1.049,-6.776,-6.129
1621784653633.485,-0.103,0.075,0.079,-1.0640197275716299,-6.771341474870831,-6.124261155472052
1621784653638.472,-0.115,0.066,0.079,-1.1218942711253201,-6.753391081683056,-6.106001272746557
1621784653643.457,-0.127,0.056,0.08,-1.1797489810451673,-6.735446840103638,-6.087747647691632
1621784653648.304,-0.14255344464574254,0.06280463203251237,0.07027909709641092,-1.236,-6.718,-6.07
1621784653648.443,-0.143,0.063,0.07,-1.2363368232852012,-6.717490446824952,-6.071442294580221
1621784653653.429,-0.164,0.056,0.072,-1.248404551584115,-6.69923413991121,-6.12311692601403
1621784653658.415,-0.178,0.056,0.065,-1.2604728708010726,-6.680976939044531,-6.174794087789209
1621784653663.4,-0.194,0.061,0.07,-1.2725382354278094,-6.662724207942545,-6.226458597857543
1621784653664.417,-0.19542817963661296,0.058551692051520644,0.06775571771389392,-1.275,-6.659,-6.237
1621784653668.385,-0.201,0.049,0.059,-1.2942133309084296,-6.654073504895274,-6.294886317480525
1621784653673.37,-0.201,0.04,0.059,-1.3183514594889514,-6.647884241156679,-6.367610166409021
1621784653678.354,-0.208,0.04,0.049,-1.3424836773665545,-6.641696492982935,-6.440316207450517
1621784653680.526,-0.20712844126579796,0.03912844126579798,0.049,-1.353,-6.639,-6.472
1621784653683.338,-0.206,0.038,0.049,-1.3496829556650247,-6.656108965517242,-6.472
1621784653688.323,-0.206,0.042,0.044,-1.3438025312618416,-6.686439575596817,-6.472
1621784653693.307,-0.195,0.033,0.04,-1.3379235467980297,-6.71676275862069,-6.472
1621784653696.633,-0.195,0.028328532941464608,0.038665295126132745,-1.334,-6.737,-6.472
1621784653698.291,-0.195,0.026,0.038,-1.3359558738820676,-6.743073503107473,-6.453882431408216
1621784653703.274,-0.192,0.014,0.028,-1.3418341518872214,-6.761327103228741,-6.399431014097317
1621784653708.258,-0.19,0.014,0.023,-1.3477138699408822,-6.779585175079582,-6.344966257389723
1621784653712.739,-0.1882014698677119,0.010402939735423812,0.019402939735423813,-1.353,-6.796,-6.296
1621784653713.241,-0.188,0.01,0.019,-1.353,-6.795376610775902,-6.294784391013008
1621784653718.224,-0.19,0.005,0.017,-1.353,-6.789187896061369,-6.282716397319669
1621784653723.208,-0.197,0.009,0.017,-1.353,-6.782998271732209,-6.270646629877809
1621784653728.19,-0.201,0.007,0.007,-1.353,-6.7768110730420545,-6.258581592432006
1621784653728.843,-0.201,0.008179742245307983,0.006737835056598226,-1.353,-6.776,-6.257
1621784653733.172,-0.201,0.016,0.005,-1.337138573031323,-6.781376754904636,-6.272592589223445
1621784653738.155,-0.197,0.014,0.0,-1.3188816519603384,-6.78756554170836,-6.290540070954243
1621784653743.137,-0.195,0.016,-0.005,-1.3006283089238606,-6.7937531156190305,-6.308484035295188
1621784653744.946,-0.19064160376433684,0.01781599843152632,-0.006815998431526321,-1.294,-6.796,-6.315
1621784653748.118,-0.183,0.021,-0.01,-1.2806041546626232,-6.826928642911296,-6.334502774829416
1621784653753.1,-0.176,0.024,-0.005,-1.259562820318423,-6.875509370735406,-6.365136482183472
1621784653758.082,-0.168,0.028,-0.01,-1.2385225170583776,-6.924087717968158,-6.395768688400303
1621784653761.047,-0.16383300656798352,0.03335756298402118,-0.011190569552004705,-1.226,-6.953,-6.414
1621784653763.063,-0.161,0.037,-0.012,-1.218612138123474,-6.964019183815836,-6.426271363794907
1621784653768.045,-0.15,0.042,-0.021,-1.2003540892616127,-6.991251527880985,-6.456598292412914
1621784653773.025,-0.136,0.044,-0.03,-1.182103198313644,-7.018473195735583,-6.486913331614625
1621784653777.146,-0.12193540165661912,0.04979130520021565,-0.03248198794294957,-1.167,-7.041,-6.512
1621784653778.006,-0.119,0.051,-0.033,-1.160694137277209,-7.0441529313613955,-6.515633886992794
1621784653782.986,-0.101,0.061,-0.037,-1.1241834963974213,-7.06240825180129,-6.536673917330299
1621784653787.967,-0.089,0.066,-0.04,-1.087665695866515,-7.080667152066742,-6.557718073568449
1621784653792.946,-0.075,0.079,-0.044,-1.0511622146378459,-7.098918892681077,-6.5787539780053095
1621784653793.241,-0.07363790567702716,0.0791776644769095,-0.044710657907638,-1.049,-7.1,-6.58
1621784653797.926,-0.052,0.082,-0.056,-1.0262923525039063,-7.122707647496093,-6.5744686499689005
1621784653802.906,-0.031,0.08,-0.063,-1.0021552710226496,-7.14684472897735,-6.5685891044798765
1621784653807.886,-0.012,0.08,-0.066,-0.978018189541393,-7.170981810458607,-6.562709558990852
1621784653809.334,-0.009091791703442188,0.08378067078552516,-0.066,-0.971,-7.178,-6.561
1621784653812.865,-0.002,0.093,-0.066,-0.9624413625673317,-7.160882725134663,-6.586675912298005
1621784653817.844,0.003,0.096,-0.073,-0.9503729914270541,-7.136745982854108,-6.622881025718837
1621784653822.823,0.016,0.094,-0.08,-0.9383046202867764,-7.112609240573552,-6.659086139139671
1621784653825.424,0.02017926841227812,0.09034314013925664,-0.08731371972148672,-0.932,-7.1,-6.678
1621784653827.802,0.024,0.087,-0.094,-0.8870688922610016,-7.094235811836115,-6.692484370257967
1621784653832.781,0.037,0.08,-0.093,-0.7929903490136571,-7.082166525037936,-6.722812321699545
1621784653837.759,0.051,0.094,-0.094,-0.6989302579666161,-7.070099605462822,-6.753134324734446
1621784653841.513,0.06231142717018146,0.10078685630210887,-0.08796723884256988,-0.628,-7.061,-6.776
1621784653842.737,0.066,0.103,-0.086,-0.5958906778760793,-7.046771461523286,-6.790228538476714
1621784653847.715,0.077,0.108,-0.079,-0.465314475621045,-6.988909495121174,-6.848090504878826
1621784653852.693,0.093,0.133,-0.063,-0.3347382733660106,-6.931047528719061,-6.905952471280939
1621784653857.601,0.10582016188373804,0.15666799116997793,-0.054124503311258274,-0.206,-6.874,-6.963
1621784653857.67,0.106,0.157,-0.054,-0.20335464480874316,-6.87316102003643,-6.963252550091075
1621784653862.647,0.119,0.182,-0.044,-0.012119854280510017,-6.812510503946569,-6.981509593199757
1621784653867.624,0.131,0.211,-0.026,0.1791149362477231,-6.751859987856709,-6.99976663630844
1621784653872.601,0.161,0.243,0.0,0.37034972677595634,-6.691209471766848,-7.018023679417122
1621784653873.685,0.16622737306843266,0.250841059602649,0.005227373068432671,0.412,-6.678,-7.022
1621784653877.578,0.185,0.279,0.024,0.5804637804359707,-6.6734011324306275,-6.874836237780071
1621784653882.555,0.22,0.321,0.052,0.7958480782075414,-6.667521388669622,-6.686684437427894
1621784653887.531,0.248,0.354,0.087,1.0111901147610665,-6.661642798591292,-6.498569554921367
1621784653889.768,0.2533947600824257,0.36838602688646843,0.10138602688646844,1.108,-6.659,-6.414
1621784653892.507,0.26,0.386,0.119,1.1865152872237066,-6.65559369686665,-6.286944893126062
1621784653897.483,0.265,0.414,0.15,1.3291501093028906,-6.649405635171242,-6.056130191887297
1621784653902.459,0.248,0.449,0.169,1.471791929803255,-6.643217269856692,-5.825304165654603
1621784653905.85,0.23096290844863115,0.4687630261995879,0.1867185752134236,1.569,-6.639,-5.668
1621784653907.435,0.223,0.478,0.195,1.5709717240436742,-6.680603377321529,-5.664155138114835
1621784653912.409,0.18,0.511,0.222,1.5771593293951496,-6.811161850237658,-5.652089307679458
1621784653917.385,0.12,0.538,0.248,1.5833496681903083,-6.941777998815508,-5.640018147028898
1621784653921.927,0.06613622534105408,0.5535200706644421,0.26352007066444205,1.589,-7.061,-5.629
1621784653922.36,0.061,0.555,0.265,1.552790969975853,-7.075521329749267,-5.652250292344374
1621784653927.335,0.002,0.564,0.276,1.1368769875620757,-7.242320166446459,-5.919314106944887
1621784653932.309,-0.054,0.539,0.262,0.7210242380062873,-7.409094446216228,-6.186338603125427
1621784653937.283,-0.106,0.52,0.237,0.30519189940316194,-7.575860540343523,-6.4533499931659755
1621784653938.003,-0.10889429777210717,0.5169609873392875,0.2328032682304446,0.245,-7.6,-6.492
1621784653942.258,-0.126,0.499,0.208,-0.07164541021707099,-7.7712956357946865,-6.73345536297489
1621784653947.232,-0.105,0.469,0.178,-0.4417766249943036,-7.971525481915815,-7.0156958879555225
1621784653952.205,-0.063,0.438,0.15,-0.8118533365739545,-8.171725843447616,-7.297894851969437
1621784653954.075,-0.038559183072315775,0.4319837989101085,0.13345544700279838,-0.951,-8.247,-7.404
1621784653957.178,0.002,0.422,0.106,-1.0950303200619769,-8.27731201105862,-7.387009828196442
1621784653962.152,0.077,0.41,0.07,-1.3259094499551882,-8.325901854749283,-7.359774756573651
1621784653967.125,0.168,0.38,0.031,-1.5567319196123406,-8.374479773966673,-7.332546368732056
1621784653970.147,0.21783042859246896,0.35690785016446563,0.0066924738573322165,-1.697,-8.404,-7.316
1621784653972.098,0.25,0.342,-0.009,-1.727957340139465,-8.328973975662002,-7.17784528204427
1621784653977.071,0.337,0.311,-0.056,-1.8068712456132354,-8.1377238047491,-6.825672637224071
1621784653982.043,0.405,0.291,-0.11,-1.8857657809580237,-7.946520577913495,-6.473586436352035
1621784653986.217,0.430179675994109,0.2750528718703977,-0.15700206185567012,-1.952,-7.786,-6.178
1621784653987.016,0.435,0.272,-0.166,-1.928080813759154,-7.750892005226533,-6.119022547023611
1621784653991.988,0.421,0.251,-0.223,-1.7792527576043027,-7.532445835485733,-5.752057734966119
1621784653996.959,0.374,0.232,-0.269,-1.6304539335744022,-7.314042571940806,-5.385165000455802
1621784654001.931,0.33,0.208,-0.304,-1.481625877419551,-7.095596402200006,-5.0182001883983105
1621784654002.286,0.3262875380536188,0.206357949523716,-0.3052136894824708,-1.471,-7.08,-4.992
1621784654006.903,0.278,0.185,-0.321,-1.2511498320847327,-6.899809078061605,-4.887678939930402
1621784654011.875,0.225,0.154,-0.328,-1.0144086799276673,-6.705774172960323,-4.7753429422401865
1621784654016.846,0.157,0.147,-0.333,-0.7777140273831051,-6.511777379306153,-4.663029009071983
1621784654018.352,0.13487802721422607,0.14427263349216485,-0.33148479638453604,-0.706,-6.453,-4.629
1621784654021.816,0.084,0.138,-0.328,-0.5770534666707194,-6.423243107693243,-4.580267698106325
1621784654026.787,0.012,0.133,-0.339,-0.39199501504605,-6.380537311164473,-4.510329219733122
1621784654031.758,-0.058,0.126,-0.332,-0.2069456518435211,-6.33783361196389,-4.440394176114775
1621784654034.416,-0.09489420951819655,0.12493060262266097,-0.32611831442463535,-0.108,-6.315,-4.403
1621784654036.729,-0.127,0.124,-0.321,-0.030386752591421706,-6.331991397391859,-4.435542845852205
1621784654041.698,-0.19,0.127,-0.309,0.13634983433139802,-6.368494026810955,-4.505454661519287
1621784654046.668,-0.248,0.14,-0.314,0.3031191901997143,-6.405003830136486,-4.575380217041067
1621784654050.479,-0.286340619934175,0.149201748784202,-0.3116995628039495,0.431,-6.433,-4.629
1621784654051.638,-0.298,0.152,-0.311,0.46008152686145143,-6.463452616217202,-4.665081298835547
1621784654056.608,-0.344,0.176,-0.305,0.5847945334590009,-6.594045392356572,-4.8198120762518615
1621784654061.578,-0.375,0.188,-0.3,0.7095075400565504,-6.724638168495941,-4.974542853668177
1621784654066.539,-0.39597110423116616,0.20098211214310285,-0.30199724802201583,0.834,-6.855,-5.129
1621784654066.546,-0.396,0.201,-0.302,0.8341711340519665,-6.855187736609247,-5.129229455855746
1621784654071.515,-0.403,0.218,-0.3,0.9585672540404117,-6.991652136895079,-5.296019278427318
1621784654076.484,-0.401,0.232,-0.291,1.082963374028857,-7.128116537180911,-5.46280910099889
1621784654081.453,-0.391,0.25,-0.29,1.207359494017302,-7.264580937466742,-5.629598923570462
1621784654082.597,-0.38892746572313136,0.2559873212442872,-0.2872366209641751,1.236,-7.296,-5.668
1621784654086.421,-0.382,0.276,-0.278,1.2733915244959402,-7.36387633427607,-5.759216266763982
1621784654091.389,-0.346,0.288,-0.262,1.3219697107928108,-7.452059666088861,-5.877722288112398
1621784654096.357,-0.298,0.309,-0.246,1.3705478970896816,-7.540242997901652,-5.9962283094608155
1621784654098.653,-0.27396638655462185,0.31454621848739495,-0.24184033613445377,1.393,-7.581,-6.051
1621784654101.325,-0.246,0.321,-0.237,1.3424049911036087,-7.561361147862585,-6.0411805739312925
1621784654106.292,-0.202,0.332,-0.223,1.2483483887646942,-7.5248523351126115,-6.022926167556306
1621784654111.26,-0.162,0.346,-0.216,1.1542732940979668,-7.488336344419606,-6.0046681722098025
1621784654114.707,-0.14256859179159498,0.3432240845416564,-0.20142644384369623,1.089,-7.463,-5.992
1621784654116.227,-0.134,0.342,-0.195,1.0583174537987678,-7.443491961365884,-5.95762418434862
1621784654121.194,-0.113,0.353,-0.182,0.9580546201232033,-7.379744604152407,-5.845292676249144
1621784654126.161,-0.099,0.356,-0.178,0.8577967145790555,-7.316000380257053,-5.732966689482089
1621784654130.758,-0.08974283466889534,0.3606285826655523,-0.17151998426822673,0.765,-7.257,-5.629
1621784654131.127,-0.089,0.361,-0.171,0.7604947669465741,-7.254747383473287,-5.623138599853961
1621784654136.094,-0.087,0.365,-0.159,0.6998336375806256,-7.224416818790313,-5.54421723256663
1621784654141.06,-0.093,0.368,-0.152,0.639184434708531,-7.194092217354266,-5.465311381891201
1621784654146.026,-0.101,0.374,-0.141,0.5785382134599002,-7.16376910672995,-5.386409410368747
1621784654146.807,-0.101,0.3755726857086672,-0.13879824000786586,0.569,-7.159,-5.374
1621784654150.992,-0.101,0.384,-0.127,0.5637840374872582,-7.189774178825176,-5.368784037487258
1621784654155.957,-0.11,0.405,-0.113,0.5575959013525232,-7.2262841820201125,-5.362595901352523
1621784654160.923,-0.106,0.421,-0.101,0.5514065480990127,-7.262801366215825,-5.356406548099013
1621784654162.854,-0.10561108379228953,0.42683374311565697,-0.0955551730920535,0.549,-7.277,-5.354
1621784654165.888,-0.105,0.436,-0.087,0.5454070698155701,-7.330704851177796,-5.409784968652992
1621784654170.853,-0.106,0.45,-0.077,0.53952717755189,-7.418593767119119,-5.501078032746972
1621784654175.818,-0.098,0.45,-0.072,0.5336472852882099,-7.506482683060442,-5.592371096840952
1621784654178.898,-0.09365684635058037,0.448138648435963,-0.06641594530788904,0.53,-7.561,-5.649
1621784654180.782,-0.091,0.447,-0.063,0.5149690181995252,-7.581667599975653,-5.686929743137136
1621784654185.747,-0.075,0.435,-0.059,0.4753571124231542,-7.636133970418163,-5.786887911619697
1621784654190.711,-0.049,0.414,-0.054,0.4357549455231603,-7.690586949905654,-5.8868215046564005
1621784654194.942,-0.02514004032059793,0.39099218173771944,-0.05144357574863549,0.402,-7.737,-5.972
1621784654195.676,-0.021,0.387,-0.051,0.39481432267884325,-7.736130395738204,-5.9729153729071545
1621784654200.639,0.005,0.368,-0.051,0.3462375190258752,-7.730251674277016,-5.979103500761036
1621784654205.602,0.026,0.344,-0.049,0.2976583257229833,-7.7243726636225265,-5.985291933028919
1621784654210.566,0.068,0.312,-0.056,0.24907196347031965,-7.718492785388128,-5.991481278538813
1621784654210.982,0.07093373997737223,0.3094015445914703,-0.05675439027989572,0.245,-7.718,-5.992
1621784654215.529,0.103,0.281,-0.065,0.21154666950803702,-7.645706785801266,-5.905815148563079
1621784654220.493,0.124,0.246,-0.077,0.17502730759863616,-7.566787825742815,-5.811731368728689
1621784654225.455,0.14,0.215,-0.091,0.13852051875304433,-7.487896036288358,-5.717679980516317
1621784654227.021,0.14031558748277898,0.2055323755166306,-0.09415587482778981,0.127,-7.463,-5.688
1621784654230.417,0.141,0.185,-0.101,0.1644841283132622,-7.411115189622886,-5.609008023385046
1621784654235.38,0.141,0.157,-0.11,0.21926323401793463,-7.335291003760486,-5.493569568990454
1621784654240.343,0.136,0.133,-0.115,0.27404503448380857,-7.259463087861395,-5.378125435805307
1621784654243.057,0.13326530210588466,0.12151426884471561,-0.12156327494587679,0.304,-7.218,-5.315
1621784654245.305,0.131,0.112,-0.127,0.3246086479902558,-7.193185505481121,-5.269717052375152
1621784654250.267,0.113,0.089,-0.136,0.37009852314250913,-7.138411982338612,-5.169763109013399
1621784654255.228,0.096,0.068,-0.136,0.4155772076735688,-7.08365193361754,-5.0698337545676
1621784654259.092,0.08509557086614174,0.05553779527559055,-0.1430099901574803,0.451,-7.041,-4.992
1621784654260.189,0.082,0.052,-0.145,0.47111576590981774,-7.0503736732300855,-4.975168440769337
1621784654265.151,0.059,0.037,-0.138,0.562109050207867,-7.092775305709108,-4.899031202887295
1621784654270.112,0.044,0.021,-0.134,0.6530889031020147,-7.135170679336653,-4.822905203526886
1621784654275.072,0.03,0.0,-0.12,0.7440463703229933,-7.177555621545069,-4.746797935035863
1621784654275.124,0.02975890748031496,-7.337598425196851e-05,-0.11994758858267716,0.745,-7.178,-4.746
1621784654280.033,0.007,-0.007,-0.115,0.7961379163303535,-7.208315291716796,-4.76406668900294
1621784654284.994,-0.007,-0.024,-0.103,0.8478175532643955,-7.238951723192666,-4.782324764326942
1621784654289.954,-0.017,-0.04,-0.091,0.89948956033078,-7.269583631573337,-4.800580144068958
1621784654291.155,-0.020389742075211655,-0.04290549320732428,-0.08809450679267572,0.912,-7.277,-4.805
1621784654294.914,-0.031,-0.052,-0.079,0.9302931866993649,-7.311475621087265,-4.844166181779409
1621784654299.873,-0.04,-0.075,-0.068,0.9544258884099253,-7.356956482003321,-4.895834914928942
1621784654304.833,-0.061,-0.084,-0.052,0.9785633425233431,-7.402446299370916,-4.947513823094851
1621784654307.183,-0.0700024611143926,-0.09395008860011814,-0.04536660759992124,0.99,-7.424,-4.972
1621784654309.793,-0.08,-0.105,-0.038,1.0188249900978033,-7.471878797111605,-5.007176259102404
1621784654314.752,-0.093,-0.131,-0.021,1.0735951677279791,-7.562852990463423,-5.0740144419731275
1621784654319.712,-0.108,-0.133,-0.01,1.1283761311355536,-7.653845099174309,-5.1408657871484715
1621784654323.209,-0.11434804018120938,-0.14146405357494582,0.004106755958243058,1.167,-7.718,-5.188
1621784654324.67,-0.117,-0.145,0.01,1.1750241367750587,-7.74216359369762,-5.212072410325176
1621784654329.628,-0.124,-0.164,0.019,1.2022557827690243,-7.824167982202176,-5.293767348307073
1621784654334.587,-0.136,-0.175,0.031,1.229492792490781,-7.906188522841556,-5.375478377472343
1621784654339.231,-0.14442841669948797,-0.1937298148877511,0.030063509255612443,1.255,-7.983,-5.452
1621784654339.546,-0.145,-0.195,0.03,1.2544299167961963,-7.986086312517143,-5.454712809728445
1621784654344.504,-0.157,-0.206,0.038,1.2454553046234493,-8.034673006004084,-5.49741958489531
1621784654349.461,-0.168,-0.204,0.03,1.2364824601505593,-8.08325012952973,-5.540117948249063
1621784654354.419,-0.18,-0.216,0.033,1.2275078479778123,-8.131836823016672,-5.582824723415928
1621784654355.252,-0.18168045705279748,-0.21700827423167848,0.03249586288416076,1.226,-8.14,-5.59
1621784654359.376,-0.19,-0.222,0.03,1.2435030628104715,-8.144890561667632,-5.594890561667632
1621784654364.334,-0.204,-0.215,0.028,1.2645456983512633,-8.150770121598148,-5.600770121598147
1621784654369.291,-0.218,-0.211,0.026,1.2855841891933075,-8.156648523451071,-5.606648523451071
1621784654371.274,-0.22360137931034482,-0.210199802955665,0.02760039408866995,1.294,-8.159,-5.609
1621784654374.247,-0.232,-0.209,0.03,1.2832345069349185,-8.17904609053498,-5.619951105014479
1621784654379.204,-0.257,-0.201,0.024,1.265285535741503,-8.212468312757201,-5.638209541228472
1621784654384.161,-0.274,-0.192,0.021,1.2473374485596709,-8.245888888888889,-5.6564670781893005
1621784654387.292,-0.2860036945812808,-0.18947290640394088,0.01847290640394089,1.236,-8.267,-5.668
1621784654389.117,-0.293,-0.188,0.017,1.2325813985395673,-8.296058112413677,-5.7049208957726725
1621784654394.073,-0.295,-0.18,0.016,1.2232974373828072,-8.374971782246138,-5.805187676265683
1621784654399.029,-0.309,-0.182,0.007,1.2140134762260468,-8.453885452078602,-5.905454456758693
1621784654403.307,-0.3055473891625616,-0.17595793103448276,0.007,1.206,-8.522,-5.992
1621784654403.985,-0.305,-0.175,0.007,1.1985452383130546,-8.541949958832678,-6.000725459701766
1621784654408.94,-0.297,-0.171,0.007,1.1440836154057268,-8.68769668831763,-6.064470313786479
1621784654413.896,-0.284,-0.178,0.003,1.0896085750007625,-8.833479324855915,-6.128230872442289
1621784654418.85,-0.258,-0.183,0.003,1.0351550025920166,-8.979204510108865,-6.191966303784344
1621784654419.319,-0.2550657304754866,-0.18413584626755358,0.002716038433111604,1.03,-8.993,-6.198
1621784654423.805,-0.227,-0.195,0.0,0.9283035450179157,-9.122151696272013,-6.151214027597774
1621784654428.76,-0.195,-0.206,0.0,0.815969200274453,-9.264813219486163,-6.099534039795685
1621784654433.715,-0.161,-0.22,-0.003,0.7036348555309904,-9.407474742700312,-6.047854051993596
1621784654435.331,-0.1489304617810852,-0.22685027844857325,-0.006588241092109802,0.667,-9.454,-6.031
1621784654438.669,-0.124,-0.241,-0.014,0.6628304996874095,-9.50299162867294,-5.9594930696390715
1621784654443.623,-0.096,-0.258,-0.021,0.6566421219560544,-9.575705067016361,-5.853362391546332
1621784654448.577,-0.066,-0.267,-0.023,0.6504540491910767,-9.648414922004848,-5.747236943626965
1621784654451.342,-0.04646471515868322,-0.2748141139365267,-0.02467445298639858,0.647,-9.689,-5.688
1621784654453.531,-0.031,-0.281,-0.026,0.6939023166435359,-9.689,-5.666531592673366
1621784654458.484,-0.012,-0.302,-0.03,0.8000262624105904,-9.689,-5.617955909042383
1621784654463.438,0.005,-0.321,-0.042,0.9061763638304687,-9.689,-5.569368253290427
1621784654467.35,0.006580042400039442,-0.3360104028003747,-0.060170487600453584,0.99,-9.689,-5.531
1621784654468.39,0.007,-0.34,-0.065,1.0849822746964428,-9.666716196839344,-5.657751311855512
1621784654473.343,-0.031,-0.361,-0.12,1.5374359936542803,-9.56056597412899,-6.2615387302458965
1621784654478.296,-0.105,-0.33,-0.171,1.9898674110683996,-9.454420983586552,-6.8652963878210995
1621784654483.249,-0.202,-0.248,-0.157,2.442321130026237,-9.348270760876197,-7.469083806211484
1621784654483.355,-0.20503900586813947,-0.2461380738695202,-0.15573731446323782,2.452,-9.346,-7.482
1621784654488.2,-0.344,-0.161,-0.098,2.3242450878691723,-9.286663595313644,-7.957296711008055
1621784654493.152,-0.499,-0.052,-0.038,2.1936640529655844,-9.226014583841836,-8.44310767024652
1621784654498.104,-0.586,0.038,-0.003,2.063089455699292,-9.165368562362705,-8.928894679033439
1621784654499.359,-0.5758634324310999,0.05092412365034758,0.005616082433565054,2.03,-9.15,-9.052
1621784654503.056,-0.546,0.089,0.031,2.165846883820276,-9.385421725532078,-9.44152014646426
1621784654508.008,-0.394,0.138,0.063,2.34781334960714,-9.700768372873599,-9.963281135098024
1621784654512.959,-0.185,0.162,0.068,2.529734960714013,-10.01603728735983,-10.484913509802425
1621784654515.361,-0.07340820553281721,0.16636663543567237,0.06460372799447704,2.618,-10.169,-10.738
1621784654517.91,0.045,0.171,0.061,2.4290565830433986,-9.976870353415126,-10.725573704449735
1621784654522.861,0.271,0.164,0.058,2.062028566196667,-9.60365299395715,-10.701435268265886
1621784654527.812,0.489,0.157,0.037,1.69501864737838,-9.230454037722028,-10.677298022340231
1621784654531.36,0.631613886286306,0.1369337245426303,0.012633808373193948,1.432,-8.963,-10.66
1621784654532.763,0.688,0.129,0.003,1.3038628405708617,-8.794430786842707,-10.48713323666336
1621784654537.712,0.862,0.082,-0.051,0.8518147447149508,-8.199744653896055,-9.877286010837214
1621784654542.663,1.0,0.028,-0.094,0.39956594672975654,-7.604794489811494,-9.267168022590246
1621784654547.355,1.079620813810111,-0.04309001233045623,-0.13191467324291,-0.029,-7.041,-8.689
1621784654547.613,1.084,-0.047,-0.134,-0.04515058309927952,-7.003342196849433,-8.653229927341556
1621784654552.562,1.11,-0.133,-0.168,-0.35488423494932236,-6.2811460495787035,-7.96723641470265
1621784654557.512,1.075,-0.206,-0.199,-0.6646790053730616,-5.55880739406521,-7.281107537550373
1621784654562.461,1.018,-0.255,-0.236,-0.9744126572231043,-4.83661124679448,-6.595114024911467
1621784654563.349,1.0009580867850099,-0.2652251479289941,-0.2399465483234714,-1.03,-4.707,-6.472
1621784654567.412,0.923,-0.312,-0.258,-0.9843107133439841,-4.332451102045881,-6.373393742923175
1621784654572.148,0.812,-0.372,-0.29,-0.9310550480060803,-3.8958749980611436,-6.258457787222162
1621784654577.067,0.663,-0.375,-0.316,-0.8757403173519878,-3.4424192117386108,-6.139077973042143
1621784654579.089,0.5964038413817063,-0.3700669512134597,-0.3131223882078515,-0.853,-3.256,-6.09
1621784654581.986,0.501,-0.363,-0.309,-0.8154499439298278,-3.2578228182558333,-6.123904419558505
1621784654586.904,0.323,-0.344,-0.265,-0.7517040877459791,-3.2609172772938844,-6.181461357666252
1621784654591.822,0.145,-0.311,-0.215,-0.6879582315621304,-3.2640117363319354,-6.239018295773999
1621784654594.982,0.03384337768069898,-0.2782312847498014,-0.1809462370929309,-0.647,-3.266,-6.276
1621784654596.74,-0.028,-0.26,-0.162,-0.6763173298509756,-3.461264479950837,-6.286841880473191
1621784654601.657,-0.154,-0.213,-0.093,-0.7583130281149179,-4.007386772161622,-6.317164817944384
1621784654606.573,-0.23,-0.19,-0.021,-0.8402924412352129,-4.553400599170379,-6.347481732985098
1621784654610.873,-0.26236397497020264,-0.17338066150178785,0.04635205601907032,-0.912,-5.031,-6.374
1621784654611.489,-0.267,-0.171,0.056,-0.9203752324455579,-5.077761714487697,-6.388850527901151
1621784654616.405,-0.274,-0.173,0.126,-0.9872177534617098,-5.450965790161213,-6.507372220258494
1621784654621.321,-0.248,-0.19,0.197,-1.054060274477862,-5.82416986583473,-6.6258939126158385
1621784654626.236,-0.223,-0.216,0.255,-1.1208895172816549,-6.197299804822573,-6.744392060735526
1621784654626.759,-0.2217229095245193,-0.21993769563273216,0.25797987777612164,-1.128,-6.237,-6.757
1621784654631.15,-0.211,-0.253,0.283,-1.2012738607711702,-6.2585674005288725,-6.718842291371994
1621784654636.064,-0.201,-0.283,0.305,-1.2832786575241375,-6.282704661459935,-6.676137906647807
1621784654640.978,-0.225,-0.333,0.339,-1.3652834542771046,-6.306841922390997,-6.633433521923621
1621784654642.639,-0.23750800039753528,-0.3502407573047108,0.3393380540647983,-1.393,-6.315,-6.619
1621784654645.891,-0.262,-0.384,0.34,-1.4130753214000122,-6.377274466383712,-6.631086162883681
1621784654650.804,-0.321,-0.424,0.328,-1.4434015501014947,-6.471347665620963,-6.649343790367226
1621784654655.716,-0.37,-0.468,0.356,-1.4737232576736177,-6.5654068401304055,-6.667598695946362
1621784654658.515,-0.3888037178786222,-0.4987697201650182,0.36910562155176696,-1.491,-6.619,-6.678
1621784654660.628,-0.403,-0.522,0.379,-1.4400114901864272,-6.669988509813573,-6.798215729403802
1621784654665.54,-0.419,-0.56,0.396,-1.3214801421276072,-6.788519857872393,-7.077677367255276
1621784654670.451,-0.394,-0.595,0.428,-1.2029782501691997,-6.9070217498308,-7.35706955638959
1621784654674.387,-0.3395012925034798,-0.6062203221316365,0.4544479021674289,-1.108,-7.002,-7.581
1621784654675.362,-0.326,-0.609,0.461,-1.0899312170126334,-6.985713511933156,-7.60447712619447
1621784654680.273,-0.209,-0.632,0.468,-0.9989313247264838,-6.903689799498361,-7.722715081477834
1621784654685.182,-0.075,-0.653,0.487,-0.9079676242940895,-6.821698708972564,-7.840906011971625
1621784654690.092,0.049,-0.665,0.499,-0.8169813039530982,-6.739687229753643,-7.9591263329589
1621784654690.253,0.05208081762570249,-0.664541154821704,0.49877057741085196,-0.814,-6.737,-7.963
1621784654695.001,0.143,-0.651,0.492,-0.6993623085802231,-6.508023932281647,-7.660691727587534
1621784654699.91,0.227,-0.653,0.483,-0.5808400923432089,-6.271288957291266,-7.348139669103501
1621784654704.818,0.295,-0.628,0.48,-0.4623355598307041,-6.0345893035783,-7.0356342439399775
1621784654706.116,0.30505064928603415,-0.6224456938156128,0.477619583063834,-0.431,-5.972,-6.953
1621784654709.725,0.333,-0.607,0.471,-0.29060393738359475,-5.82705301152893,-6.642854403004603
1621784654714.633,0.356,-0.579,0.456,-0.0996831468283898,-5.6299435405667495,-6.221095833269199
1621784654719.54,0.375,-0.534,0.431,0.09119965520956791,-5.432873289516216,-5.79942118306217
1621784654721.977,0.38542947410318923,-0.5081746355540077,0.4230537340166177,0.186,-5.335,-5.59
1621784654724.447,0.396,-0.482,0.415,0.28990230345209866,-5.281568980383703,-5.425033674129277
1621784654729.353,0.403,-0.438,0.41,0.49627937055399873,-5.175441043328304,-5.097367536106919
1621784654734.258,0.391,-0.384,0.4,0.7026153573738183,-5.069334231515413,-4.769766621500939
1621784654737.833,0.3720540930579746,-0.3548524508584225,0.39854262254292117,0.853,-4.992,-4.531
1621784654739.164,0.365,-0.344,0.398,0.8711380648738564,-4.979572066660506,-4.470035948618427
1621784654744.069,0.323,-0.295,0.415,0.9379780981425007,-4.933774266087546,-4.24537917013215
1621784654748.973,0.255,-0.269,0.445,1.0048014970889936,-4.88798786310569,-4.020778301450883
1621784654753.684,0.18488497337116122,-0.24018560549499776,0.4584467174356677,1.069,-4.844,-3.805
1621784654753.878,0.182,-0.239,0.459,1.0584433437581844,-4.841847078217197,-3.8054770678950534
1621784654758.781,0.124,-0.204,0.463,0.7914290776317614,-4.7873922568519,-3.8175437612657723
1621784654763.684,0.068,-0.175,0.457,0.5244148115053382,-4.732937435486605,-3.829610454636491
1621784654768.587,0.003,-0.152,0.457,0.2574138409157435,-4.6784853256097,-3.841676547166032
1621784654769.531,-0.007975402081362347,-0.14795643081212967,0.4564223472588757,0.206,-4.668,-3.844
1621784654773.49,-0.054,-0.131,0.454,-0.0831563843723511,-4.778214317638899,-3.9592126993912307
1621784654778.391,-0.105,-0.12,0.456,-0.4411247129536874,-4.9146568698466515,-4.101843122447407
1621784654783.292,-0.168,-0.108,0.45,-0.7990752099868998,-5.051092625414194,-4.244466440625722
1621784654785.372,-0.1862459285821007,-0.11012161960256985,0.45254594352308386,-0.951,-5.109,-4.305
1621784654788.194,-0.211,-0.113,0.456,-1.125785421419323,-5.201648745298724,-4.434351902090141
1621784654793.095,-0.251,-0.129,0.461,-1.429327470867501,-5.3625476909797145,-4.658991583944756
1621784654797.995,-0.29,-0.152,0.473,-1.7328241568530736,-5.523422590788581,-4.883597694062519
1621784654801.211,-0.31034944682547594,-0.17169301305691217,0.4743128675371275,-1.932,-5.629,-5.031
1621784654802.894,-0.321,-0.182,0.475,-1.9810089748334567,-5.693636565507031,-5.098719559585492
1621784654807.794,-0.347,-0.201,0.49,-2.1236852331606215,-5.8818082901554405,-5.29586658031088
1621784654812.693,-0.361,-0.232,0.503,-2.26634016469282,-6.069951887490747,-5.492984132124352
1621784654817.043,-0.3725429582378152,-0.26751679457789296,0.5118791986444733,-2.393,-6.237,-5.668
1621784654817.592,-0.374,-0.272,0.513,-2.395358460304731,-6.24754370489174,-5.689087409783481
1621784654822.49,-0.379,-0.291,0.51,-2.416396890999938,-6.341597865646783,-5.8771957312935665
1621784654827.387,-0.368,-0.312,0.49,-2.4374311270125224,-6.435633273703042,-6.0652665474060825
1621784654832.285,-0.344,-0.323,0.456,-2.4584695577077293,-6.529687434458085,-6.253374868916168
1621784654832.874,-0.33894735267723597,-0.3236015056336624,0.45130825605743347,-2.461,-6.541,-6.276
1621784654837.182,-0.302,-0.328,0.417,-2.3676344507350784,-6.573119926569274,-6.422989494469555
1621784654842.079,-0.255,-0.325,0.375,-2.261495626552304,-6.609634157629237,-6.590088517964302
1621784654846.975,-0.197,-0.318,0.33,-2.155383259028431,-6.646139286981472,-6.757145889576231
1621784654848.7,-0.17480517602473322,-0.31165862172135234,0.31943103620225394,-2.118,-6.659,-6.816
1621784654851.871,-0.134,-0.3,0.3,-1.9923252164251655,-6.7101117540854585,-6.7845311945434625
1621784654856.765,-0.065,-0.281,0.284,-1.7983802601731402,-6.788988889403268,-6.735967624955634
1621784654861.66,0.0,-0.25,0.278,-1.6043869265311792,-6.867885699736123,-6.687391941731092
1621784654864.521,0.03682279301745636,-0.23538778054862844,0.2797534663341646,-1.491,-6.914,-6.659
1621784654866.555,0.063,-0.225,0.281,-1.5174900750162073,-6.888795850955453,-6.580815700923039
1621784654871.449,0.117,-0.201,0.286,-1.5812303275399007,-6.828149785447473,-6.392689130367672
1621784654876.343,0.155,-0.176,0.3,-1.644970580063594,-6.767503719939493,-6.204562559812305
1621784654880.338,0.1819477492763749,-0.15476843996406825,0.30571618924044314,-1.697,-6.718,-6.051
1621784654881.235,0.188,-0.15,0.307,-1.7364905048633628,-6.697403659101436,-6.012587540528022
1621784654886.128,0.201,-0.136,0.302,-1.9518453913849003,-6.585084946734599,-5.80311159487417
1621784654891.021,0.206,-0.115,0.291,-2.167211023622047,-6.47276062992126,-5.593625196850393
1621784654895.913,0.192,-0.089,0.269,-2.3825336729967574,-6.360458730893932,-5.384180608306314
1621784654896.151,0.19097918850127266,-0.08773613814443279,0.26846528921495233,-2.393,-6.355,-5.374
1621784654900.805,0.171,-0.063,0.258,-2.2746474749034746,-6.455982378378379,-5.194999166023166
1621784654905.695,0.129,-0.033,0.236,-2.150291335907336,-6.562087243243243,-5.006918239382239
1621784654910.586,0.075,-0.01,0.222,-2.0259165714285716,-6.668208000000001,-4.818809142857143
1621784654911.959,0.0612418372441338,-0.0007342985521717419,0.21947299051422867,-1.991,-6.698,-4.766
1621784654915.476,0.026,0.023,0.213,-1.6963869418143063,-6.944549296427303,-4.779128527517338
1621784654920.365,-0.014,0.066,0.222,-1.2868612934616395,-7.287264113930894,-4.7973777822400026
1621784654925.255,-0.03,0.108,0.251,-0.8772538422328973,-7.630047388826246,-4.815630682256994
1621784654927.765,-0.01973234794766803,0.12340147807849795,0.27358883451513033,-0.667,-7.806,-4.825
1621784654930.144,-0.01,0.138,0.295,-0.7364253504149345,-7.869552056128205,-4.9829765565840916
1621784654935.033,0.035,0.168,0.333,-0.8790874994204825,-8.0001451730053,-5.307602574603224
1621784654939.921,0.098,0.173,0.351,-1.0217211516172402,-8.13071220386654,-5.632163748473937
1621784654943.563,0.14717530716212168,0.16256887423833782,0.3524901608230946,-1.128,-8.228,-5.874
1621784654944.809,0.164,0.159,0.353,-1.285052221621204,-8.15992563171316,-5.966054215284753
1621784654949.696,0.216,0.112,0.326,-1.900983710686964,-7.8929498029518586,-6.327074831929526
1621784654954.583,0.246,0.031,0.293,-2.516915199752724,-7.625973974190558,-6.688095448574299
1621784654959.36,0.24404457102883126,-0.04526172987558087,0.2578022785189627,-3.119,-7.365,-7.041
1621784654959.469,0.244,-0.047,0.257,-3.1237303761653705,-7.362021104222391,-7.043234171833207
1621784654964.356,0.229,-0.131,0.225,-3.3360351737039844,-7.228324788571252,-7.143506408571562
1621784654969.241,0.201,-0.19,0.19,-3.54825512144591,-7.094681906028232,-7.243738570478826
1621784654974.127,0.169,-0.229,0.168,-3.7605174940861796,-6.961012306931152,-7.343990769801636
1621784654975.151,0.16648422894276432,-0.23109647588102974,0.1631781054736316,-3.805,-6.933,-7.365
1621784654979.011,0.157,-0.239,0.145,-3.6778468914321065,-7.1154158057531705,-7.156419996906898
1621784654983.896,0.15,-0.241,0.134,-3.516933188988556,-7.346265078874111,-6.8924596350139185
1621784654988.78,0.145,-0.218,0.12,-3.3560516548097743,-7.577068202907516,-6.628552041447572
1621784654990.937,0.14014099295035248,-0.21579136043197839,0.1133740812959352,-3.285,-7.679,-6.512
1621784654993.663,0.134,-0.213,0.105,-3.0732420529954987,-7.797487725648522,-6.325632279920182
1621784654998.547,0.127,-0.195,0.096,-2.6938566213436044,-8.009770275496157,-5.99173596609278
1621784655003.428,0.117,-0.166,0.093,-2.3147177285875604,-8.221914876173681,-5.6580566306247775
1621784655006.72,0.10284250787460628,-0.1444266786660667,0.10108999550022499,-2.059,-8.365,-5.433
1621784655008.311,0.096,-0.134,0.105,-1.933446172415394,-8.425306175819754,-5.359785478854278
1621784655013.193,0.066,-0.094,0.124,-1.5481922380576576,-8.61035184067592,-5.135131377373381
1621784655018.075,0.035,-0.028,0.15,-1.162957569286477,-8.795388251860793,-4.9104885102827165
1621784655022.497,0.0014792177262041711,0.04357139998999651,0.18623868353923873,-0.814,-8.963,-4.707
1621784655022.956,-0.002,0.051,0.19,-0.8214203634337367,-8.969576478964802,-4.773783270903631
1621784655027.836,-0.075,0.145,0.25,-0.9003130359409343,-9.039497043618239,-5.483817323468409
1621784655032.716,-0.195,0.232,0.347,-0.9792096554499581,-9.109421106398786,-6.193886899049624
1621784655037.596,-0.33,0.295,0.433,-1.0581023279571555,-9.179341671052224,-6.903920951614401
1621784655038.27,-0.3500282655460503,0.2959668817849817,0.44405007754264847,-1.069,-9.189,-7.002
1621784655042.476,-0.475,0.302,0.513,-1.2573337152767023,-9.306641881638846,-8.009291938930351
1621784655047.354,-0.63,0.272,0.548,-1.4757518503607816,-9.443075872534143,-9.17748865008826
1621784655052.232,-0.731,0.159,0.597,-1.6941699854448606,-9.57950986342944,-10.345685361246169
1621784655054.037,-0.715460945709282,0.1112729046785089,0.6221584688516387,-1.775,-9.63,-10.778
1621784655057.111,-0.689,0.03,0.665,-2.1669756834198095,-9.756173267250059,-11.189086935646248
1621784655061.989,-0.511,-0.091,0.728,-2.7889814140788354,-9.956391032293038,-11.841419313869743
1621784655066.866,-0.25,-0.131,0.737,-3.410862619066058,-10.156568713699372,-12.493621095020522
1621784655069.8,-0.0785377452943532,-0.131,0.7123335002002402,-3.785,-10.277,-12.886
1621784655071.743,0.035,-0.131,0.696,-3.8890874039176793,-10.015794879742128,-12.796465100421521
1621784655076.619,0.319,-0.145,0.627,-4.150313042400199,-9.360254711133152,-12.571761529878502
1621784655081.495,0.565,-0.171,0.56,-4.411551760476073,-8.7046817195636,-12.347046708405653
1621784655085.554,0.7298182455437613,-0.1726648307630683,0.5192116463048267,-4.629,-8.159,-12.16
1621784655086.371,0.763,-0.173,0.511,-4.599482904525728,-8.051669823310602,-12.037937213267204
1621784655091.246,0.915,-0.152,0.468,-4.4233856943583385,-7.4113444668319906,-11.309717994420335
1621784655096.121,1.019,-0.11,0.405,-4.247288484190948,-6.771019110353379,-10.581498775573467
1621784655100.995,1.077,-0.079,0.333,-4.0712265499070055,-6.130822024178549,-9.853425433973962
1621784655101.306,1.077446375795221,-0.07951014376596705,0.3295565295797225,-4.06,-6.09,-9.807
1621784655105.869,1.084,-0.087,0.279,-3.4919069688139373,-5.595779341558683,-9.105067611135222
1621784655110.742,1.044,-0.131,0.255,-2.885211575423151,-5.067976005952012,-8.355438371876744
1621784655115.616,0.979,-0.161,0.25,-2.2783945997891997,-4.540066898133796,-7.605658906317813
1621784655117.057,0.9553446893787575,-0.15774739478957917,0.2520698396793587,-2.099,-4.384,-7.384
1621784655120.489,0.899,-0.15,0.257,-1.500536834924966,-4.324066507503411,-6.853969986357436
1621784655125.361,0.815,-0.105,0.271,-0.6509898920997146,-4.238988062755798,-6.101567158625822
1621784655130.232,0.719,-0.031,0.295,0.19834419570879325,-4.153930934515689,-5.349352846335111
1621784655132.805,0.6646044798556825,0.017586289837642814,0.3097871316897174,0.647,-4.109,-4.952
1621784655135.104,0.616,0.061,0.323,0.8791127553632091,-4.087527013821025,-4.952
1621784655139.975,0.536,0.161,0.386,1.370895031566538,-4.042031737167854,-4.952
1621784655144.845,0.473,0.258,0.464,1.8625540664215803,-3.996547861696682,-4.952
1621784655148.544,0.43350471225185483,0.31116673350711854,0.48678574293162225,2.236,-3.962,-4.952
1621784655149.715,0.421,0.328,0.494,2.184867527268778,-3.934982405238088,-5.00089961365999
1621784655154.585,0.368,0.354,0.49,1.972247257606554,-3.8226371972506246,-5.204235155389366
1621784655159.454,0.295,0.333,0.464,1.7596589657259003,-3.7103088858202358,-5.407540115746847
1621784655164.279,0.20283939226796371,0.25570400641829216,0.43625272025272027,1.549,-3.599,-5.609
1621784655164.323,0.202,0.255,0.436,1.5439877378698041,-3.602260484897402,-5.606479899419489
1621784655169.192,0.084,0.154,0.375,0.9886569397448235,-3.9635040977245213,-5.327266755657654
1621784655174.059,-0.063,0.087,0.298,0.433521062924906,-4.324620913916742,-5.048151615807282
1621784655178.927,-0.25,0.059,0.22,-0.12169835159718123,-4.6857920715239185,-4.76899447428057
1621784655180.008,-0.29531286681715574,0.05722302483069977,0.20178600451467268,-0.245,-4.766,-4.707
1621784655183.794,-0.454,0.051,0.138,-0.5589292999860276,-5.094133156350426,-4.789574961576079
1621784655188.661,-0.667,0.07,0.07,-0.9625006287550649,-5.51596423082297,-4.895729076428671
1621784655193.528,-0.843,0.127,0.026,-1.3660922018847126,-5.937816465620294,-5.0018885162932945
1621784655195.734,-0.9001290209263813,0.1628189893109851,0.013304662016359714,-1.549,-6.129,-5.05
1621784655198.393,-0.969,0.206,-0.002,-1.685154228392186,-6.348030715239603,-5.429878753998572
1621784655203.259,-1.028,0.302,-0.031,-1.93429946582192,-6.748829575452653,-6.125009441286997
1621784655208.124,-1.021,0.384,-0.061,-2.183394701698811,-7.149547998385043,-6.820000621137303
1621784655211.456,-0.9586741105033372,0.42577889295930144,-0.0719583981532594,-2.354,-7.424,-7.296
1621784655212.989,-0.93,0.445,-0.077,-2.3558530467063266,-7.495683648902627,-7.48442559140119
1621784655217.854,-0.782,0.48,-0.101,-2.3617338655814604,-7.723178484335441,-8.082412015967444
1621784655222.717,-0.592,0.506,-0.131,-2.367612323511595,-7.950581988474861,-8.680158369705348
1621784655227.174,-0.4031985541442844,0.529829308700236,-0.14841372558863397,-2.373,-8.159,-9.228
1621784655227.58,-0.386,0.532,-0.15,-2.3699768334369176,-8.141506976382848,-9.224950994406463
1621784655232.443,-0.169,0.525,-0.162,-2.3337660969546303,-7.931979894344313,-9.188430764449969
1621784655237.306,0.042,0.524,-0.202,-2.2975571783716595,-7.722463331261654,-9.151912367930391
1621784655242.168,0.248,0.52,-0.279,-2.2613537134866375,-7.512978325046613,-9.115399471721565
1621784655242.887,0.2753575194576952,0.5197042430328898,-0.2917175495857394,-2.256,-7.482,-9.11
1621784655247.03,0.433,0.518,-0.365,-2.1344240380431403,-7.215640517187792,-8.649804655933362
1621784655251.891,0.576,0.51,-0.414,-1.9917782526263441,-6.903119382109779,-8.109854774041152
1621784655256.752,0.661,0.471,-0.424,-1.8491396313793746,-6.59061394293529,-7.569932010318891
1621784655258.597,0.676561096881121,0.4599933704987193,-0.42210230525839987,-1.795,-6.472,-7.365
1621784655261.613,0.702,0.442,-0.419,-1.7289358288770054,-6.302614537992787,-6.993965178460391
1621784655266.473,0.707,0.412,-0.41,-1.6224866310160428,-6.029683745802761,-6.3961167765203335
1621784655271.332,0.695,0.387,-0.393,-1.5160534759358288,-5.756794086556399,-5.798358475314016
1621784655274.302,0.6784963822731384,0.37049638227313836,-0.38749879409104615,-1.451,-5.59,-5.433
1621784655276.191,0.668,0.36,-0.384,-1.4534056339779866,-5.508569289845159,-5.295036891362478
1621784655281.05,0.634,0.333,-0.391,-1.4595939929108888,-5.29909333996642,-4.940134506560537
1621784655285.909,0.574,0.309,-0.401,-1.4657820409178535,-5.089627914930664,-4.585249953361109
1621784655290.006,0.5107480777928539,0.2912894617819991,-0.4069035127393336,-1.471,-4.913,-4.286
1621784655290.767,0.499,0.288,-0.408,-1.4515108719320622,-4.903013033875634,-4.259820574237098
1621784655295.625,0.426,0.262,-0.408,-1.327098080691822,-4.839259215478894,-4.092698914362148
1621784655300.481,0.363,0.241,-0.41,-1.202735309671198,-4.7755310293339965,-3.925644445826982
1621784655305.338,0.304,0.23,-0.415,-1.0783475285407658,-4.711790027063178,-3.7585563816219243
1621784655305.703,0.29896531791907516,0.22834682080924856,-0.415150289017341,-1.069,-4.707,-3.746
1621784655310.195,0.237,0.208,-0.417,-0.9147293076360694,-4.690113226624356,-3.642103411265108
1621784655315.051,0.162,0.201,-0.424,-0.7479660429013641,-4.671858991709055,-3.529793457464184
1621784655319.906,0.086,0.188,-0.422,-0.5812363152736946,-4.653608427831443,-3.4175060898782026
1621784655321.398,0.05742094941164638,0.18492698380770392,-0.42046349190385196,-0.53,-4.648,-3.383
1621784655324.761,-0.007,0.178,-0.417,-0.3639070400622326,-4.784732010890703,-3.334779463243874
1621784655329.615,-0.106,0.176,-0.407,-0.12417852975495919,-4.982082707117852,-3.265180863477246
1621784655334.47,-0.204,0.183,-0.382,0.11559821081291322,-5.179473107740178,-3.195568261376896
1621784655337.09,-0.26067739664017703,0.1894774167588774,-0.3690451664822452,0.245,-5.286,-3.158
1621784655339.324,-0.309,0.195,-0.358,0.29954481781817616,-5.3920989276097675,-3.2669472209684196
1621784655344.177,-0.407,0.202,-0.323,0.41804119908481063,-5.622594499525285,-3.503630593472272
1621784655349.03,-0.482,0.199,-0.29,0.5365375803514452,-5.8530900714408,-3.740313965976124
1621784655352.776,-0.5020723558418033,0.2121242326657945,-0.2652955620408574,0.628,-6.031,-3.923
1621784655353.882,-0.508,0.216,-0.258,0.614103823520254,-6.084962309680232,-4.009410234455273
1621784655358.735,-0.517,0.227,-0.234,0.5531397546470717,-6.321700952766448,-4.388501525671763
1621784655363.587,-0.51,0.223,-0.213,0.4921910203319114,-6.558380047949684,-4.767497462403089
1621784655368.437,-0.497,0.211,-0.201,0.43126375439798237,-6.794975776068749,-5.146359902855186
1621784655368.458,-0.49689612481127327,0.21088746854554605,-0.20090910920986413,0.431,-6.796,-5.148
1621784655373.288,-0.473,0.185,-0.18,0.28927418124055876,-6.9380339183654405,-5.444391820970831
1621784655378.139,-0.412,0.159,-0.159,0.14693945151293353,-7.08067807141856,-5.742057060096865
1621784655382.989,-0.333,0.145,-0.148,0.0046262127606559456,-7.22330068677682,-6.039677355052715
1621784655384.135,-0.30842655793818585,0.13743894090405717,-0.14776371690325177,-0.029,-7.257,-6.11
1621784655387.839,-0.229,0.113,-0.147,-0.08477941176470588,-7.275435568295114,-6.158452455134596
1621784655392.688,-0.108,0.086,-0.162,-0.15779779411764705,-7.299568762462612,-6.2218794398055834
1621784655397.537,-0.002,0.061,-0.162,-0.23081985294117646,-7.323703171734795,-6.285309618020937
1621784655399.807,0.047160749357909044,0.04976325728962079,-0.16387279045172987,-0.265,-7.335,-6.315
1621784655402.385,0.103,0.037,-0.166,-0.22617223650385604,-7.293046272493573,-6.169889460154242
1621784655407.233,0.18,0.014,-0.162,-0.153160598270624,-7.214156578639869,-5.897023930824959
1621784655412.081,0.257,0.012,-0.154,-0.08014528316584874,-7.135262911895302,-5.624144659967282
1621784655415.477,0.2871279403616582,-0.008318843499722964,-0.1490954515690324,-0.029,-7.08,-5.433
1621784655416.928,0.3,-0.017,-0.147,-0.01992176759410802,-7.042760720130933,-5.324894926350245
1621784655421.775,0.33,-0.045,-0.133,0.010404691762138572,-6.918360346036942,-4.963762497077391
1621784655426.621,0.34,-0.068,-0.119,0.040726568466994004,-6.793978770166004,-4.602684638765489
1621784655431.14,0.3222791131267322,-0.09411499118165785,-0.10594250440917108,0.069,-6.678,-4.266
1621784655431.466,0.321,-0.096,-0.105,0.05775070167778956,-6.674125241689016,-4.24454300505208
1621784655436.312,0.276,-0.12,-0.091,-0.10938052766169773,-6.616557818249859,-3.925755660200836
1621784655441.157,0.202,-0.145,-0.087,-0.2764780764672862,-6.559001995883491,-3.6070325578494358
1621784655446.002,0.115,-0.169,-0.093,-0.4435756252728747,-6.501446173517121,-3.2883094554980357
1621784655446.797,0.09842034171664735,-0.1744171160727786,-0.09382077516254221,-0.471,-6.492,-3.236
1621784655450.846,0.014,-0.202,-0.098,-0.6610945073453729,-6.575796762421634,-3.2486729671563586
1621784655455.689,-0.101,-0.251,-0.11,-0.8884766070927295,-6.676030504351081,-3.263831773806182
1621784655460.533,-0.215,-0.298,-0.126,-1.1159045569383363,-6.776284457752409,-3.2789936371292225
1621784655462.452,-0.25501915612239756,-0.3162265463527751,-0.13194343902807884,-1.206,-6.816,-3.285
1621784655465.376,-0.316,-0.344,-0.141,-1.206,-6.922105217187865,-3.625732246744132
1621784655470.219,-0.408,-0.382,-0.166,-1.206,-7.097842813694143,-4.190072697496686
1621784655475.061,-0.483,-0.408,-0.169,-1.206,-7.273544973875069,-4.754299352725571
1621784655478.105,-0.5150675777901054,-0.4205755207020021,-0.169,-1.206,-7.384,-5.109
1621784655479.902,-0.534,-0.428,-0.169,-1.073130378482948,-7.422356485381759,-5.429977175574901
1621784655484.743,-0.559,-0.421,-0.152,-0.7152253580454928,-7.525675652906487,-6.294579191238416
1621784655489.584,-0.567,-0.41,-0.126,-0.35730228712284307,-7.629000031202222,-7.159224812006615
1621784655493.754,-0.550634071309698,-0.38932724797014473,-0.08637722527611075,-0.049,-7.718,-7.904
1621784655494.425,-0.548,-0.386,-0.08,0.01706316906463594,-7.747428138946974,-7.964186120907587
1621784655499.265,-0.51,-0.349,-0.03,0.49346777566243255,-7.959644736431447,-8.39820927873662
1621784655504.104,-0.435,-0.293,0.031,0.969800287132112,-8.171829218813395,-8.832166755095034
1621784655508.943,-0.349,-0.227,0.08,1.4461327986017916,-8.384013701195343,-9.26612423145345
1621784655509.399,-0.3410783207707283,-0.21954430190186194,0.08428702640642939,1.491,-8.404,-9.307
1621784655513.834,-0.264,-0.147,0.126,1.7655365451547902,-8.888182634182085,-9.10567320021982
1621784655518.802,-0.19,-0.037,0.169,2.073064022714783,-9.430549276424253,-8.88015305000916
1621784655523.771,-0.131,0.091,0.208,2.3806519509067594,-9.973022531599195,-8.654588569335044
1621784655525.392,-0.11272327353158024,0.12690071270582454,0.21126370115507495,2.481,-10.15,-8.581
1621784655528.738,-0.075,0.201,0.218,2.0110726070098073,-10.33380308674827,-8.348016041967611
1621784655533.706,-0.019,0.272,0.201,1.3133307230289666,-10.60671144225652,-8.002084589067133
1621784655538.674,0.035,0.297,0.164,0.6155888390481259,-10.879619797764768,-7.656153136166654
1621784655541.448,0.06347619047619048,0.2908580765639589,0.136640522875817,0.226,-11.032,-7.463
1621784655543.642,0.086,0.286,0.115,0.044237999939355344,-11.005294338821674,-7.495019542739319
1621784655548.627,0.131,0.232,0.065,-0.3687158798022985,-10.944620455441342,-7.56776629066982
1621784655553.612,0.11,0.145,-0.009,-0.7816899845356138,-10.883943600473028,-7.640516601473665
1621784655557.551,0.03965974331341238,0.0936279024199079,-0.08329195650044087,-1.108,-10.836,-7.698
1621784655558.596,0.021,0.08,-0.103,-1.1537837239958182,-10.766675919332112,-7.936516341156684
1621784655563.581,-0.049,0.082,-0.14,-1.3722084577039046,-10.43594498401491,-9.074428764072183
1621784655568.566,-0.084,0.119,-0.105,-1.5906224942802165,-10.105230245912816,-10.21228545887059
1621784655573.552,-0.131,0.126,-0.056,-1.8090900165154018,-9.774434521735177,-11.350420794254457
1621784655573.664,-0.13126974876340664,0.12485356775552182,-0.055280669964248984,-1.814,-9.767,-11.376
1621784655578.537,-0.143,0.075,-0.024,-1.9948524371581389,-10.108139714238094,-11.24232645949181
1621784655583.522,-0.045,0.045,0.0,-2.1798546947681023,-10.457107183442172,-11.105585660388794
1621784655588.506,0.112,0.037,-0.005,-2.3648297701480323,-10.806023379142108,-10.96886495249928
1621784655589.777,0.16171936526594183,0.031135664609658144,-0.016983641884611617,-2.412,-10.895,-10.934
1621784655593.491,0.307,0.014,-0.052,-2.301363920118791,-10.877021637019304,-10.531791751265189
1621784655598.477,0.539,0.002,-0.145,-2.152828509954847,-10.852884632867662,-9.991803645565017
1621784655603.462,0.794,0.0,-0.262,-2.004329464529228,-10.828753537986,-9.451947740840632
1621784655605.89,0.9089204328453215,-0.004382558879694461,-0.33845130490133674,-1.932,-10.817,-9.189
1621784655608.448,1.03,-0.009,-0.419,-1.6703952611086703,-10.267439559440666,-9.009940445710303
1621784655613.433,1.222,-0.04,-0.585,-1.1605930886118139,-9.196483782023119,-8.660998182011
1621784655618.417,1.351,-0.099,-0.691,-0.6509157513597044,-8.12579024951899,-8.31214136379475
1621784655622.005,1.3963335944768154,-0.14577275620623809,-0.7291377858297018,-0.284,-7.355,-8.061
1621784655623.403,1.414,-0.164,-0.744,-0.27037730103177127,-7.00697041043589,-7.9495021135402935
1621784655628.388,1.403,-0.227,-0.768,-0.22180941775373844,-5.766169265033407,-7.551987909640471
1621784655633.374,1.306,-0.29,-0.806,-0.17322964107692074,-4.525064269805918,-7.15437636168053
1621784655638.119,1.1546548633558624,-0.3061815554902537,-0.8278926927221079,-0.127,-3.344,-6.776
1621784655638.359,1.147,-0.307,-0.829,-0.1495050834103547,-3.324578008757708,-6.746360611524417
1621784655643.344,0.932,-0.326,-0.826,-0.6169835149017409,-2.9211419566963137,-6.13068749526508
1621784655648.329,0.695,-0.337,-0.813,-1.084461946393127,-2.517705904634919,-5.515014379005742
1621784655653.315,0.45,-0.291,-0.789,-1.5520090607433445,-2.1142105789481658,-4.899250806830406
1621784655654.232,0.40548498947059114,-0.2821705764239189,-0.7818260933444341,-1.638,-2.04,-4.786
1621784655658.3,0.208,-0.243,-0.75,-1.8137215715389627,-2.230617509356202,-4.838009545599175
1621784655663.286,-0.016,-0.206,-0.712,-2.0290841073349597,-2.4642363520659405,-4.901751905331899
1621784655668.271,-0.232,-0.176,-0.693,-2.244415006287974,-2.6978208760738798,-4.965484901286383
1621784655670.345,-0.3106304422351731,-0.1622708751652872,-0.676774670649885,-2.334,-2.795,-4.992
1621784655673.256,-0.421,-0.143,-0.654,-2.0877177493900683,-3.1547563910230183,-5.424213604885515
1621784655678.242,-0.6,-0.098,-0.606,-1.6659149884075102,-3.7709040778287948,-6.164457335091149
1621784655683.228,-0.712,-0.047,-0.539,-1.2440915730933007,-4.387081935415435,-6.9047373126638485
1621784655686.456,-0.739197766676462,-0.017859535703790775,-0.47683367616808703,-0.971,-4.786,-7.384
1621784655688.213,-0.754,-0.002,-0.443,-0.8159753510991259,-5.115236596118593,-7.613920523580832
1621784655693.198,-0.721,0.024,-0.326,-0.37608536973351314,-6.049461451058221,-8.266331192146287
1621784655698.184,-0.635,0.033,-0.195,0.0638907843107549,-6.983869316890633,-8.918869665338525
1621784655702.571,-0.5399724806581139,0.01452242679463324,-0.08149490745274704,0.451,-7.806,-9.493
1621784655703.17,-0.527,0.012,-0.066,0.4382508674899614,-7.86870491703917,-9.459101431926662
1621784655708.156,-0.38,-0.028,0.052,0.33210511402378967,-8.390768724903403,-9.17687132358512
1621784655713.141,-0.222,-0.086,0.159,0.22598015001136448,-8.912730282597167,-8.894696492158497
1621784655718.127,-0.065,-0.126,0.25,0.11983959390862942,-9.434768527918783,-8.612480203045685
1621784655718.683,-0.050165059002105473,-0.1299039318415512,0.2597040591489987,0.108,-9.493,-8.581
1621784655723.113,0.068,-0.161,0.337,-0.22113418699803006,-9.255704424912865,-8.047016214577965
1621784655728.098,0.15,-0.211,0.403,-0.5914985755417489,-8.988683148961965,-7.446140991059251
1621784655733.084,0.162,-0.283,0.447,-0.9619536596454009,-8.721596484315807,-6.845118624033945
1621784655734.794,0.14725329285609362,-0.3121504676100475,0.45351598687754,-1.089,-8.63,-6.639
1621784655738.07,0.119,-0.368,0.466,-1.146739739102768,-8.265060451797646,-6.708734966592428
1621784655743.056,0.059,-0.443,0.469,-1.2346122297471327,-7.7096691817038625,-6.814862657757981
1621784655748.042,0.01,-0.525,0.48,-1.322489023226217,-7.154250715876551,-6.920995545657016
1621784655750.908,-0.010696606102159752,-0.5635186835790196,0.47885018854988,-1.373,-6.835,-6.982
1621784655753.027,-0.026,-0.592,0.478,-1.3549832431859157,-6.71637872520946,-7.123898398557642
1621784655758.013,-0.017,-0.618,0.457,-1.3125940487553596,-6.437290744360105,-7.457751980970562
1621784655762.999,0.042,-0.644,0.456,-1.270202778661576,-6.158189097465266,-7.791621911125252
1621784655767.022,0.11058101160456349,-0.6520683543064193,0.4616478480144935,-1.236,-5.933,-8.061
1621784655767.985,0.127,-0.654,0.463,-1.2418571060645083,-5.899590588876937,-8.012947823715667
1621784655772.971,0.215,-0.649,0.447,-1.2721774660263305,-5.726640780523278,-7.764197115457451
1621784655777.958,0.291,-0.634,0.421,-1.302505249443241,-5.553648628175799,-7.515385504567697
1621784655782.943,0.346,-0.602,0.4,-1.3328211553320104,-5.380724226218431,-7.266671337888406
1621784655783.137,0.3465831945940652,-0.6008336108118695,0.39984448144158263,-1.334,-5.374,-7.257
1621784655787.929,0.361,-0.572,0.396,-1.2025737831573526,-5.295203738770811,-6.691153641059823
1621784655792.915,0.351,-0.536,0.384,-1.0658243626062323,-5.2132159640059985,-6.102388601899683
1621784655797.902,0.314,-0.487,0.354,-0.9290481586402266,-5.1312121313114485,-5.513508248625229
1621784655799.253,0.3012661345607678,-0.46938933503084906,0.34885226716286355,-0.892,-5.109,-5.354
1621784655802.888,0.267,-0.422,0.335,-0.6489013994910942,-5.040445292620865,-5.099851463104326
1621784655807.874,0.225,-0.361,0.342,-0.3154469889737065,-4.946409911547316,-4.751240033927057
1621784655812.859,0.182,-0.298,0.344,0.017925784563189162,-4.852397552405185,-4.40271395250212
1621784655815.372,0.15881872032114358,-0.2647399030694669,0.35105517207617365,0.186,-4.805,-4.227
1621784655817.846,0.136,-0.232,0.358,0.29436776490191624,-4.817126137998939,-4.1336747860334775
1621784655822.832,0.094,-0.162,0.391,0.5127823373475725,-4.841566295538892,-3.945578383700674
1621784655827.819,0.038,-0.105,0.442,0.7312396879497083,-4.866011239869727,-3.7574451412557757
1621784655831.489,0.010029380080305551,-0.05347517383214181,0.4765952404269905,0.892,-4.884,-3.619
1621784655832.805,0.0,-0.035,0.489,0.8376190634894184,-4.8535434094317615,-3.6221844692551244
1621784655837.791,-0.031,0.017,0.536,0.6315667691748346,-4.7381417491024225,-3.6342505945978703
1621784655842.777,-0.072,0.073,0.553,0.4255144748602505,-4.622740088773083,-3.646316719940616
1621784655847.605,-0.12428919792380766,0.11076442072274997,0.5665564587209871,0.226,-4.511,-3.658
1621784655847.763,-0.126,0.112,0.567,0.21782613042490342,-4.510519760660456,-3.662420162084375
1621784655852.75,-0.178,0.161,0.585,-0.04023821858668483,-4.495357706581838,-3.80197294554268
1621784655857.735,-0.232,0.209,0.599,-0.2982014996591684,-4.480201590547603,-3.9414710747557375
1621784655862.722,-0.271,0.248,0.599,-0.5562532151783686,-4.4650402787245325,-4.081017026433386
1621784655863.722,-0.26738995250452924,0.253615629437399,0.6000027909709641,-0.608,-4.462,-4.109
1621784655867.708,-0.253,0.276,0.604,-0.8068322932444714,-4.532234292638594,-4.196298258103605
