time,gyro_x,gyro_y,gyro_z,acc_x,acc_y,acc_z
1621786774851.816,,,,2.099,-6.433,-9.071
1621786774870.618,,,,1.952,-5.727,-8.404
1621786774888.303,0.391,1.374,1.709,1.6159617380191693,-4.8558925495207665,-7.514378044728434
1621786774889.722,0.3819651871548374,1.3697203518101861,1.7118530987932092,1.589,-4.786,-7.443
1621786774894.271,0.353,1.356,1.721,1.510721900784866,-4.687097730931777,-7.319020615314952
1621786774900.267,0.3,1.353,1.73,1.4075441990340107,-4.556735485007043,-7.155604434996981
1621786774906.295,0.23,1.344,1.738,1.303820361239686,-4.425683210907627,-6.991323266753874
1621786774909.132,0.204229699217805,1.344,1.7412798564631884,1.255,-4.364,-6.914
1621786774912.35,0.175,1.344,1.745,1.2178917931457314,-4.3946761176661955,-6.9544067141302035
1621786774918.435,0.115,1.342,1.756,1.1477237522053028,-4.452681698176949,-7.030811914265337
1621786774924.549,0.068,1.332,1.772,1.0772206929342727,-4.510964227174335,-7.107581912138237
1621786774928.644,0.04350773916308565,1.3403973465726564,1.7726997788810546,1.03,-4.55,-7.159
1621786774930.401,0.033,1.344,1.773,1.0245440012336795,-4.589024262362496,-7.212450292998869
1621786774936.267,-0.005,1.36,1.773,1.0063259997943867,-4.719329289606251,-7.390924951166855
1621786774942.15,-0.016,1.368,1.784,0.9880564408347897,-4.850003084198622,-7.569904698262568
1621786774947.642,-0.0122753425224554,1.3745181505857031,1.7802753425224553,0.971,-4.972,-7.737
1621786774948.048,-0.012,1.375,1.78,0.9685000445888273,-4.979054958914581,-7.750728568698643
1621786774953.964,0.005,1.381,1.782,0.932072552391872,-5.081854576724632,-7.950771068220906
1621786774959.895,0.04,1.363,1.785,0.8955533600866297,-5.184912975348748,-8.151317141219186
1621786774965.842,0.086,1.33,1.785,0.8589349512707816,-5.288251366329066,-8.35240806420791
1621786774966.806,0.09262633044047813,1.3269292615031931,1.7837070574750287,0.853,-5.305,-8.385
1621786774971.806,0.127,1.311,1.777,0.863086376723746,-5.312758751325958,-8.359654745668536
1621786774977.785,0.183,1.286,1.775,0.8751476738899834,-5.322036672223064,-8.329346870737991
1621786774983.78,0.227,1.267,1.768,0.8872414759812093,-5.331339596908623,-8.298957316765167
1621786774986.139,0.2426946192893401,1.2579755939086295,1.769569461928934,0.892,-5.335,-8.287
1621786774989.792,0.267,1.244,1.772,0.8957469324385235,-5.299966181699805,-8.187706290379126
1621786774995.819,0.297,1.22,1.772,0.901928882656383,-5.242164947162818,-8.02388460960585
1621786775001.864,0.307,1.204,1.768,0.9081291130365102,-5.184192793108629,-7.859578504532479
1621786775005.638,0.307,1.199640019340801,1.7605257474413731,0.912,-5.148,-7.757
1621786775007.923,0.307,1.197,1.756,0.9302422165946671,-5.10361447936839,-7.743289289438403
1621786775013.999,0.311,1.173,1.759,0.978745853815979,-4.9855992601420125,-7.706834326431302
1621786775020.092,0.305,1.175,1.758,1.027385917870798,-4.86725209791946,-7.670276826058891
1621786775025.305,0.29646398017110415,1.1698783881026626,1.756292796034221,1.069,-4.766,-7.639
1621786775026.199,0.295,1.169,1.756,1.0773832662555847,-4.762484436731529,-7.63814364484486
1621786775032.323,0.288,1.168,1.758,1.1348070376250783,-4.738403500350773,-7.632277775726471
1621786775038.463,0.274,1.166,1.756,1.1923796108259792,-4.714260163202009,-7.626396706421002
1621786775044.621,0.258,1.182,1.759,1.2501238784477346,-4.690044825167079,-7.6204980984381345
1621786775045.141,0.2569889240506329,1.1816629746835443,1.7591685126582277,1.255,-4.688,-7.62
1621786775050.793,0.246,1.178,1.761,1.288339435657098,-4.688,-7.672551991798477
1621786775056.981,0.237,1.178,1.765,1.3248414372192931,-4.688,-7.730089045108377
1621786775063.185,0.229,1.194,1.766,1.36143848857645,-4.688,-7.787775922671353
1621786775065.145,0.226164920541495,1.1971500882872277,1.7666300176574457,1.373,-4.688,-7.806
1621786775069.407,0.22,1.204,1.768,1.41441336238199,-4.644473710965868,-7.81846626724764
1621786775075.644,0.215,1.223,1.761,1.4750186879690148,-4.580776276930525,-7.836709707092714
1621786775081.896,0.195,1.248,1.756,1.5357687242798352,-4.516926748971193,-7.8549967078189304
1621786775085.316,0.1780913480258547,1.2572724865664668,1.7570908807725256,1.569,-4.482,-7.865
1621786775088.166,0.164,1.265,1.758,1.6404554554074002,-4.468269343862892,-7.851269343862892
1621786775094.451,0.122,1.286,1.756,1.7980259358385042,-4.437991094682014,-7.820991094682014
1621786775100.752,0.08,1.302,1.768,1.9560003960586168,-4.407635218012266,-7.790635218012266
1621786775105.658,0.047382028985507245,1.322192077294686,1.7757661835748793,2.079,-4.384,-7.767
1621786775107.069,0.038,1.328,1.778,2.1080372733657935,-4.374504398757158,-7.780486506113022
1621786775113.402,0.0,1.356,1.787,2.2383533410316545,-4.331889191795336,-7.841012452232712
1621786775119.752,-0.031,1.388,1.805,2.3690160474280066,-4.289160629040131,-7.901699396435757
1621786775126.118,-0.061,1.412,1.819,2.5000103213056986,-4.246323639004298,-7.962540338805491
1621786775126.166,-0.06119596740253281,1.412158281363584,1.819105520909056,2.501,-4.246,-7.963
1621786775132.499,-0.087,1.433,1.833,2.554903207905829,-4.252125364534754,-7.999139650755044
1621786775138.898,-0.106,1.45,1.854,2.6093674746449107,-4.258314485755104,-8.035655465955111
1621786775145.311,-0.122,1.473,1.871,2.6639522651333576,-4.2645173028560635,-8.072252086850774
1621786775146.844,-0.12581455746668185,1.4784834263583553,1.8764834263583552,2.677,-4.266,-8.081
1621786775151.741,-0.138,1.496,1.894,2.6586751115640044,-4.30288471133912,-8.119999121543273
1621786775158.188,-0.162,1.515,1.915,2.6345498084964336,-4.351444616231538,-8.17134271525118
1621786775164.65,-0.18,1.536,1.939,2.610368776134088,-4.400116694191644,-8.222804912330018
1621786775167.688,-0.18985013192612138,1.543973916321146,1.9465048624199022,2.599,-4.423,-8.247
1621786775171.127,-0.201,1.553,1.955,2.5332028096350263,-4.469483587223016,-8.32900097605187
1621786775177.622,-0.195,1.578,1.967,2.4089327221389483,-4.557276385354574,-8.48387489106564
1621786775184.133,-0.183,1.59,1.974,2.2843590127932516,-4.64528368250427,-8.639127200474082
1621786775188.699,-0.1613104377104377,1.6011946127946128,1.9774983164983166,2.197,-4.707,-8.748
1621786775190.659,-0.152,1.606,1.979,2.1609233445163847,-4.739200651175458,-8.763504017232627
1621786775196.715,-0.115,1.614,1.979,2.0494488158758064,-4.8386985775653955,-8.81141042623519
1621786775202.775,-0.073,1.611,1.977,1.9379068794335021,-4.9382566695965435,-8.859345803879817
1621786775208.42,-0.02926296937256006,1.607277699521069,1.9742082746408016,1.834,-5.031,-8.904
1621786775208.841,-0.026,1.607,1.974,1.8283118187248022,-5.029733574734956,-8.89852646707481
1621786775214.909,0.023,1.62,1.965,1.7463558434124733,-5.011486772684286,-8.819663170076153
1621786775220.981,0.063,1.616,1.963,1.6643438106614903,-4.99322748992086,-8.740745931013887
1621786775227.059,0.099,1.606,1.963,1.5822493405007216,-4.974949853168086,-8.661749365387486
1621786775228.04,0.10238826647391881,1.604547885796892,1.9620319238645947,1.569,-4.972,-8.649
1621786775233.139,0.12,1.597,1.957,1.528287488049268,-4.923767342529707,-8.496522566706812
1621786775239.224,0.133,1.59,1.951,1.479699536870336,-4.866204546865494,-8.314549857832851
1621786775245.313,0.138,1.587,1.955,1.4310823451992203,-4.808607109599076,-8.13246763679708
1621786775247.703,0.13525435749489123,1.5842543574948913,1.9534310614256523,1.412,-4.786,-8.061
1621786775251.406,0.131,1.58,1.951,1.3621942902458366,-4.7600634417129255,-7.996534496431404
1621786775257.502,0.131,1.56,1.951,1.2802059749206978,-4.717367639770023,-7.89041377131245
1621786775263.603,0.117,1.545,1.948,1.1981487039056304,-4.674635928826328,-7.784203794111816
1621786775267.406,0.11388534751659601,1.5369019035431497,1.9423936255298728,1.147,-4.648,-7.718
1621786775269.708,0.112,1.532,1.939,1.1047933004414439,-4.648,-7.713452869384575
1621786775275.817,0.103,1.518,1.934,0.9927882059081747,-4.648,-7.701386022183478
1621786775281.93,0.093,1.499,1.927,0.8807070148755426,-4.648,-7.689310976740735
1621786775287.15,0.07934401820286616,1.4785160273042994,1.9227325056883957,0.785,-4.648,-7.679
1621786775288.046,0.077,1.475,1.922,0.766752331836352,-4.652437398213492,-7.686516409218774
1621786775294.168,0.073,1.443,1.913,0.642071534323644,-4.68275679810492,-7.737873760055273
1621786775300.293,0.079,1.407,1.897,0.517331071410946,-4.713090707200316,-7.789255687706658
1621786775306.422,0.077,1.388,1.885,0.3925060825149287,-4.743445171001333,-7.840672432512461
1621786775306.938,0.07725230854959401,1.3848881945550071,1.8834020458525713,0.382,-4.746,-7.845
1621786775312.556,0.08,1.351,1.866,0.24317471066239843,-4.779431396207831,-7.911862792415661
1621786775318.693,0.077,1.307,1.845,0.09151723713371096,-4.815952991873923,-7.984905983747845
1621786775324.834,0.084,1.262,1.819,-0.06023073134695883,-4.852496380201921,-8.057992760403842
1621786775326.767,0.08494374255065554,1.2475292808899483,1.8101917361938815,-0.108,-4.864,-8.081
1621786775330.979,0.087,1.216,1.791,-0.21821610664045704,-4.903423453529086,-8.116184372504453
1621786775337.129,0.093,1.182,1.765,-0.3791449106210455,-4.9609864487990665,-8.167557798390565
1621786775343.282,0.099,1.14,1.73,-0.5401567663861416,-5.018579151053505,-8.21895773696173
1621786775346.639,0.10009044767833777,1.1083770173282048,1.7109171656290891,-0.628,-5.05,-8.247
1621786775349.439,0.101,1.082,1.695,-0.6762280673793645,-5.069403712240094,-8.258107922224402
1621786775355.601,0.106,1.028,1.66,-0.7823642972734406,-5.112105752255786,-8.282553292958022
1621786775361.766,0.119,0.977,1.623,-0.888550988132601,-5.154828094350726,-8.30701028589643
1621786775366.553,0.12287919436530548,0.9288979898702121,1.590414767331434,-0.971,-5.188,-8.326
1621786775367.936,0.124,0.915,1.581,-0.9818803704247406,-5.196108301526717,-8.328702767175573
1621786775374.11,0.134,0.866,1.545,-1.0304511890780974,-5.232304389312977,-8.340768129770993
1621786775380.287,0.136,0.815,1.508,-1.079045055294578,-5.268517652671756,-8.352839217557252
1621786775386.468,0.143,0.766,1.463,-1.127669651595224,-5.304753816793893,-8.364917938931297
1621786775386.51,0.1430145405359709,0.7656728379406543,1.4627019190125963,-1.128,-5.305,-8.365
1621786775392.244,0.145,0.721,1.422,-1.1160018076787046,-5.350223955672575,-8.334850696218284
1621786775398.015,0.147,0.668,1.388,-1.1039259637678311,-5.395740598105867,-8.30450626792942
1621786775403.781,0.148,0.639,1.349,-1.0918603371713758,-5.441218729123276,-8.274187513917816
1621786775405.148,0.14942365554943424,0.6311698944781117,1.339983514853583,-1.089,-5.452,-8.267
1621786775409.542,0.154,0.606,1.311,-1.0703330620068532,-5.507764523625097,-8.218324187005212
1621786775415.301,0.155,0.578,1.274,-1.045867321351206,-5.580852052672347,-8.154527445548714
1621786775421.055,0.169,0.546,1.234,-1.021423361209941,-5.6538745158791635,-8.090787498851238
1621786775423.744,0.1741449804654323,0.531500509597418,1.219500509597418,-1.01,-5.688,-8.061
1621786775426.804,0.18,0.515,1.203,-1.0132979871069596,-5.718671280094724,-8.007572608867255
1621786775432.55,0.197,0.492,1.169,-1.0194908564662544,-5.776264965136166,-7.907248125246678
1621786775438.293,0.227,0.466,1.136,-1.025680305222997,-5.833826838573872,-7.806979055387449
1621786775442.301,0.24306565119346465,0.44434629621750416,1.1115522699229885,-1.03,-5.874,-7.737
1621786775444.031,0.25,0.435,1.101,-1.0483136991178448,-5.872224692432454,-7.681124530242494
1621786775449.766,0.278,0.412,1.066,-1.109025963579783,-5.866339319857062,-7.495890172343316
1621786775455.497,0.297,0.374,1.03,-1.169694291704577,-5.860458206416394,-7.3107898651054235
1621786775460.816,0.3109338250970025,0.360995096576131,0.9956298980940604,-1.226,-5.855,-7.139
1621786775461.223,0.312,0.36,0.993,-1.2182242791828537,-5.8513214011998205,-7.126686606411375
1621786775466.946,0.312,0.332,0.963,-1.1088790797854067,-5.799591519331907,-6.953530894051111
1621786775472.666,0.304,0.326,0.927,-0.9995945188826343,-5.747890324797167,-6.780471206955786
1621786775478.38,0.29,0.325,0.902,-0.8904265704696213,-5.69624429821084,-6.607596183831497
1621786775479.292,0.2874447056811867,0.3254791176847775,0.8989655879964092,-0.873,-5.688,-6.58
1621786775484.091,0.274,0.328,0.883,-0.7631319965034039,-5.652331951471484,-6.551882122327886
1621786775489.798,0.255,0.326,0.864,-0.6324775502635691,-5.6099156975974145,-6.518444491536648
1621786775495.502,0.234,0.339,0.845,-0.5018957643506132,-5.56752303250245,-6.485025456279304
1621786775497.725,0.22502780276742493,0.339,0.8395386625540847,-0.451,-5.551,-6.472
1621786775501.201,0.211,0.339,0.831,-0.43404660351826796,-5.554660392422193,-6.504172922868742
1621786775506.763,0.182,0.34,0.813,-0.4069178349120433,-5.560517740189446,-6.5556559269282815
1621786775512.321,0.157,0.332,0.787,-0.3798081190798376,-5.566370974289581,-6.607102774018945
1621786775515.767,0.14830887979944582,0.3251712626995646,0.7770672911993667,-0.363,-5.57,-6.639
1621786775517.872,0.143,0.321,0.771,-0.35147483427449056,-5.612690154677143,-6.686276700220968
1621786775523.416,0.131,0.319,0.75,-0.32112068636276836,-5.725124396431787,-6.810790653899665
1621786775528.954,0.129,0.318,0.731,-0.2907986196360859,-5.837439806858171,-6.935173009247893
1621786775533.666,0.1307032166968186,0.31033552486431626,0.7190774831222697,-0.265,-5.933,-7.041
1621786775534.487,0.131,0.309,0.717,-0.27720012868251015,-5.944279364253641,-7.061302855656555
1621786775540.013,0.145,0.293,0.696,-0.35931065874493484,-6.020192873179279,-7.197947171722703
1621786775545.533,0.168,0.283,0.667,-0.4413341227685905,-6.096025887087942,-7.334446596758296
1621786775551.047,0.188,0.264,0.642,-0.5232705207534771,-6.17177840597963,-7.470801130763334
1621786775551.5,0.18964479517644972,0.2623552048235503,0.639615046994148,-0.53,-6.178,-7.482
1621786775556.554,0.208,0.244,0.613,-0.7000859827979445,-6.278401926300459,-7.554528303701465
1621786775562.056,0.23,0.208,0.585,-0.8852489076969581,-6.387703786650546,-7.633485738231981
1621786775567.551,0.248,0.185,0.552,-1.0701817757137753,-6.496869844192245,-7.712345071583633
1621786775569.269,0.2583287372681582,0.1734192945781257,0.5419842547702709,-1.128,-6.531,-7.737
1621786775573.04,0.281,0.148,0.52,-1.2783809694545956,-6.5708317865269255,-7.6995112597393645
1621786775578.523,0.311,0.117,0.48,-1.4970301868578915,-6.6287459560091015,-7.645003806109081
1621786775583.999,0.339,0.096,0.442,-1.7154067985933945,-6.686587919740743,-7.590564310832241
1621786775586.973,0.3493261053852675,0.08676085307633963,0.4197173515370544,-1.834,-6.718,-7.561
1621786775589.471,0.358,0.079,0.401,-1.8172907636524676,-6.685997564283539,-7.492888621329127
1621786775594.935,0.372,0.07,0.374,-1.7807417586979988,-6.615996927675829,-7.343904965540148
1621786775600.393,0.38,0.066,0.339,-1.744233579672839,-6.546074483102217,-7.1950877273104705
1621786775604.614,0.38,0.06367735435045453,0.3180961891540907,-1.716,-6.492,-7.08
1621786775605.845,0.38,0.063,0.312,-1.6822559083113733,-6.463739323210775,-7.033180072782031
1621786775611.291,0.368,0.063,0.283,-1.5329640691011002,-6.338707407872171,-6.8260376458777765
1621786775616.698,0.342,0.068,0.265,-1.3847430459697996,-6.214572300999707,-6.620380976283097
1621786775622.099,0.309,0.066,0.25,-1.2366826452503452,-6.0905717153971635,-6.4149471702848535
1621786775622.124,0.30879682194757574,0.06600923536601928,0.249935352437865,-1.236,-6.09,-6.414
1621786775627.492,0.265,0.068,0.236,-1.1360506776664703,-6.011336181496759,-6.247417796110783
1621786775632.879,0.213,0.056,0.225,-1.0357467800319893,-5.9323932990992505,-6.0802446333866484
1621786775638.259,0.157,0.052,0.222,-0.9355701658388753,-5.8535505934843,-5.913283609731459
1621786775639.525,0.14263124659276757,0.051293339996365615,0.22035112665818646,-0.912,-5.835,-5.874
1621786775643.633,0.096,0.049,0.215,-0.8724165398918188,-5.8165119168357,-5.8787405341446926
1621786775649.0,0.049,0.031,0.218,-0.8207042201938246,-5.792358857336038,-5.884933626324092
1621786775654.36,-0.005,0.005,0.216,-0.7690577670723462,-5.768236561866125,-5.891118830290737
1621786775656.857,-0.028783720930232563,0.005,0.2201971272229822,-0.745,-5.757,-5.894
1621786775659.714,-0.056,0.005,0.225,-0.7352343964358956,-5.812117728590623,-5.934552082596705
1621786775665.061,-0.105,0.0,0.232,-0.7169590410862032,-5.915265073191429,-6.010441270065766
1621786775670.401,-0.155,-0.003,0.244,-0.6987078848737713,-6.018275836220917,-6.086229969591967
1621786775674.119,-0.18288045219460847,0.0004850565243260563,0.25166712435351735,-0.686,-6.09,-6.139
1621786775675.735,-0.195,0.002,0.255,-0.6750009798491885,-6.154489981397066,-6.193431048438632
1621786775681.062,-0.22,0.003,0.264,-0.6387490734034849,-6.367043894403499,-6.372831508541729
1621786775686.381,-0.236,0.007,0.284,-0.6025503344267882,-6.5792860733608824,-6.5519688578366635
1621786775691.311,-0.24063865662041717,0.02277143250941836,0.30069916383350176,-0.569,-6.776,-6.718
1621786775691.695,-0.241,0.024,0.302,-0.5672281994981179,-6.791834065244667,-6.7305371706398995
1621786775697.002,-0.237,0.031,0.318,-0.5427440116345386,-7.010642123873617,-6.903786044256872
1621786775702.302,-0.218,0.035,0.333,-0.5182913624957226,-7.229168330101517,-7.076811751454318
1621786775707.595,-0.194,0.049,0.346,-0.49387137846469714,-7.447402617771187,-7.249606322002966
1621786775708.434,-0.1873354570637119,0.04931735918744229,0.3494909510618652,-0.49,-7.482,-7.277
1621786775712.883,-0.152,0.051,0.368,-0.46705371605185586,-7.597252926194088,-7.3713926680594115
1621786775718.162,-0.108,0.065,0.386,-0.4398261740548894,-7.734009443951579,-7.483396874910569
1621786775723.442,-0.059,0.07,0.403,-0.4125948544772916,-7.8707849354663315,-7.595416621354778
1621786775725.496,-0.036024760494284255,0.07389410839079928,0.4100093951034387,-0.402,-7.924,-7.639
1621786775728.717,0.0,0.08,0.421,-0.42983892684887465,-7.9016531063389985,-7.635401771359669
1621786775733.984,0.056,0.096,0.443,-0.4753607315112541,-7.865111793752871,-7.629518000689022
1621786775739.245,0.11,0.101,0.452,-0.5208340032154342,-7.828609439595774,-7.623640502985761
1621786775742.504,0.14039275092936804,0.1053418215613383,0.46254442379182154,-0.549,-7.806,-7.62
1621786775744.499,0.159,0.108,0.469,-0.5987100354599706,-7.736735779975207,-7.57028996454003
1621786775749.747,0.197,0.12,0.482,-0.7294695707325511,-7.554540029405829,-7.43953042926745
1621786775754.987,0.229,0.11,0.494,-0.8600283679764753,-7.37262398016548,-7.308971632023525
1621786775759.441,0.23495675902602853,0.11595675902602855,0.5025096557514693,-0.971,-7.218,-7.198
1621786775760.221,0.236,0.117,0.504,-0.9923166464050017,-7.186695510593956,-7.169423671413686
1621786775765.449,0.244,0.113,0.51,-1.1351882163945815,-6.9768819468565475,-6.977895189301841
1621786775770.67,0.239,0.113,0.522,-1.2778663019566978,-6.767352524024545,-6.786626085446335
1621786775775.884,0.22,0.11,0.524,-1.4203575749681603,-6.558097444135695,-6.595607415769365
1621786775776.31,0.21697389388826396,0.11040893325834271,0.5242453599550057,-1.432,-6.541,-6.58
1621786775781.093,0.183,0.115,0.527,-1.518533439883763,-6.401521758082093,-6.465570911732655
1621786775786.293,0.143,0.11,0.529,-1.612611115147112,-6.249883399927352,-6.3411655648383585
1621786775791.488,0.094,0.113,0.529,-1.7066004504177261,-6.098387431892482,-6.21687703596077
1621786775793.113,0.08053138823529411,0.11143388235294117,0.5283735529411765,-1.736,-6.051,-6.178
1621786775796.676,0.051,0.108,0.527,-1.7568686491376544,-6.017567572299881,-6.155001896868708
1621786775801.857,0.005,0.101,0.52,-1.7872135582338693,-5.968953789360026,-6.12156056847696
1621786775807.031,-0.03,0.094,0.513,-1.8175184288090582,-5.92040414976508,-6.08816336416961
1621786775809.845,-0.049602040816326534,0.0961780045351474,0.5113664965986394,-1.834,-5.894,-6.07
1621786775812.199,-0.066,0.098,0.51,-1.820154671199156,-5.913355204548119,-6.096419147813855
1621786775817.361,-0.086,0.089,0.504,-1.7897931661001056,-5.955799349431485,-6.154353856523268
1621786775822.516,-0.11,0.099,0.496,-1.7594733032469816,-5.99818528015473,-6.212209105028719
1621786775826.507,-0.11696935101847465,0.1044206063477025,0.49057939365229747,-1.736,-6.031,-6.257
1621786775827.67,-0.119,0.106,0.489,-1.7175398397051511,-6.043956942697516,-6.280893716909937
1621786775832.843,-0.131,0.103,0.485,-1.635416737356305,-6.101598063591423,-6.387188902214292
1621786775838.008,-0.134,0.103,0.473,-1.5534215345014186,-6.159149413519758,-6.493318542135899
1621786775843.167,-0.143,0.096,0.471,-1.4715232252025625,-6.216632755140843,-6.599322768888759
1621786775843.2,-0.14301279196475103,0.0960447718766286,0.47103197991187756,-1.471,-6.217,-6.6
1621786775848.32,-0.145,0.103,0.476,-1.3955500734214392,-6.340799471365639,-6.642190367107195
1621786775853.466,-0.138,0.099,0.478,-1.3197187958883994,-6.465224669603524,-6.684593979441997
1621786775858.606,-0.127,0.093,0.483,-1.2439774596182085,-6.589502290748898,-6.7269472980910425
1621786775859.826,-0.12414850920157877,0.09204950306719292,0.4822871273003947,-1.226,-6.619,-6.737
1621786775863.74,-0.115,0.089,0.48,-1.256018930793501,-6.660837407483855,-6.732508978857665
1621786775868.867,-0.094,0.087,0.469,-1.2953401350514553,-6.715639400819745,-6.72662627900805
1621786775873.988,-0.058,0.091,0.466,-1.3346164007902575,-6.770378763306107,-6.720750302243977
1621786775876.385,-0.043941482506801584,0.0933430862488664,0.4617824447520405,-1.353,-6.796,-6.718
1621786775879.103,-0.028,0.096,0.457,-1.3595915718113056,-6.7523308367501,-6.695259077250995
1621786775884.212,0.002,0.106,0.45,-1.3719813348332568,-6.670248656729673,-6.652514394825264
1621786775889.314,0.023,0.127,0.44,-1.3843545197531046,-6.588276306635681,-6.609826906851789
1621786775892.879,0.03628916989988983,0.14168802988935192,0.4302079800737654,-1.393,-6.531,-6.58
1621786775894.411,0.042,0.148,0.426,-1.3646489559337147,-6.501716355799955,-6.532437393178272
1621786775899.5,0.056,0.183,0.419,-1.2704692724975848,-6.404438656461321,-6.374438582150554
1621786775904.584,0.056,0.216,0.408,-1.1763844690495653,-6.307258958163038,-6.2165989447870995
1621786775909.306,0.0587895673076923,0.24203596153846152,0.4005611538461539,-1.089,-6.217,-6.07
1621786775909.662,0.059,0.244,0.4,-1.0806616130717004,-6.216586346340371,-6.0535627098410805
1621786775914.732,0.056,0.283,0.394,-0.9619810490188764,-6.210698798776393,-5.819610161904052
1621786775919.796,0.045,0.318,0.386,-0.8434376482876967,-6.204818055659181,-5.585928001193763
1621786775924.854,0.033,0.358,0.382,-0.7250314108781616,-6.198944116988734,-5.352516227710215
1621786775925.667,0.028816785041310335,0.3670100014494854,0.3807128569357878,-0.706,-6.198,-5.315
1621786775929.907,0.007,0.414,0.374,-0.6705655884192654,-6.134631891698687,-5.307499285139845
1621786775934.993,-0.017,0.464,0.36,-0.6280614332946117,-6.058620811366277,-5.298502055222947
1621786775940.073,-0.052,0.504,0.354,-0.5856062460906085,-5.982697301402913,-5.289515190778304
1621786775942.06,-0.06648708327319959,0.5212278828113726,0.3500845720883244,-0.569,-5.953,-5.286
1621786775945.148,-0.089,0.548,0.344,-0.6448529038802941,-5.949226223687548,-5.382231295967538
1621786775950.216,-0.12,0.579,0.33,-0.7693493010696544,-5.943032373081111,-5.540174486431651
1621786775955.278,-0.147,0.604,0.318,-0.8936957676299025,-5.936845981709955,-5.697927466396145
1621786775958.425,-0.15633471732728238,0.6096008303963694,0.3011975088108917,-0.971,-5.933,-5.796
1621786775960.335,-0.162,0.613,0.291,-1.0226605471616177,-5.9594745661191055,-5.856797786795646
1621786775965.386,-0.166,0.618,0.258,-1.1592839729863285,-6.029490199308186,-6.0175859001811896
1621786775970.43,-0.157,0.623,0.232,-1.2957158922448002,-6.09940769081026,-6.178148635090819
1621786775974.729,-0.13140552325581395,0.6153216569767441,0.21408386627906975,-1.412,-6.159,-6.315
1621786775975.469,-0.127,0.614,0.211,-1.4102231424835028,-6.169706705548123,-6.3221529905151295
1621786775980.503,-0.108,0.606,0.18,-1.3981357043005096,-6.242541268958468,-6.3708126775594875
1621786775985.53,-0.089,0.592,0.157,-1.3860646805056593,-6.315276925158207,-6.419406286169526
1621786775990.551,-0.079,0.599,0.136,-1.3740083124145084,-6.387924271348475,-6.467940896177492
1621786775990.971,-0.07766050133852519,0.5984976880019469,0.13516281333657826,-1.373,-6.394,-6.472
1621786775995.567,-0.063,0.593,0.126,-1.3340877666797428,-6.388319381997043,-6.519433160324693
1621786776000.576,-0.054,0.59,0.117,-1.2916780832252028,-6.382128187332146,-6.571129635776578
1621786776005.579,-0.052,0.583,0.105,-1.2493180089924258,-6.375944234889405,-6.622765638673466
1621786776007.152,-0.04948258852258852,0.583,0.10153855921855921,-1.236,-6.374,-6.639
1621786776010.578,-0.044,0.583,0.094,-1.2608692569870483,-6.365710247670983,-6.659830659698554
1621786776015.569,-0.037,0.572,0.075,-1.2971026584867076,-6.353632447171098,-6.6901800045444215
1621786776020.555,-0.049,0.553,0.063,-1.333297068847989,-6.341567643717337,-6.720496690146179
1621786776023.269,-0.053904078031565536,0.553,0.05646122929124595,-1.353,-6.335,-6.737
1621786776025.536,-0.058,0.553,0.051,-1.339236746177,-6.359858121700724,-6.7714081345575
1621786776030.51,-0.079,0.524,0.044,-1.3090361502276404,-6.4144040960174245,-6.846909624430899
1621786776035.525,-0.099,0.508,0.044,-1.2785880084098438,-6.469397168484261,-6.923029978975391
1621786776039.41,-0.11528444032941865,0.4901646605915891,0.04244910092100775,-1.255,-6.512,-6.982
1621786776040.535,-0.12,0.485,0.042,-1.229715380545688,-6.534498435492404,-7.022330012848613
1621786776045.539,-0.138,0.475,0.04,-1.1172460131509334,-6.634574484165974,-7.2017233013377675
1621786776050.538,-0.141,0.466,0.049,-1.0048918751417126,-6.734548000906961,-7.38093279419545
1621786776055.531,-0.136,0.445,0.065,-0.8926749149724134,-6.834399455823445,-7.559923482729952
1621786776055.561,-0.13596990457548325,0.44478933202838267,0.06506019084903353,-0.892,-6.835,-7.561
1621786776060.52,-0.131,0.41,0.075,-0.83469196814562,-6.946843094425484,-7.727070049298445
1621786776065.502,-0.113,0.382,0.086,-0.7771187258248009,-7.0592037770193405,-7.893908638604475
1621786776070.479,-0.084,0.354,0.094,-0.7196019112627986,-7.17145433447099,-8.060583708759955
1621786776071.656,-0.07453081266879451,0.347134839184876,0.09731421556592193,-0.706,-7.198,-8.1
1621786776075.451,-0.044,0.325,0.108,-0.63643390367168,-7.242011203799549,-8.130287280034098
1621786776080.417,0.003,0.291,0.12,-0.5453991658040552,-7.299604609389272,-8.169921451622724
1621786776085.378,0.058,0.265,0.131,-0.4544584119831943,-7.357138555684102,-8.209514704986908
1621786776087.694,0.08651335238470634,0.2537816318486401,0.13567432006306662,-0.412,-7.384,-8.228
1621786776090.333,0.119,0.241,0.141,-0.39086351553668,-7.349983470316845,-8.161618228482386
1621786776095.282,0.162,0.22,0.145,-0.3512245409270066,-7.286189495554401,-8.03712707384888
1621786776100.227,0.208,0.201,0.154,-0.3116168535549512,-7.22244587369,-7.9127341806960185
1621786776103.675,0.2380192288680178,0.1933206623826001,0.15958497281265446,-0.284,-7.178,-7.826
1621786776105.166,0.251,0.19,0.162,-0.26751889106967613,-7.142228502208047,-7.76166748957311
1621786776110.099,0.279,0.188,0.168,-0.2129884690873405,-7.023872699950933,-7.548812944676153
1621786776115.028,0.307,0.19,0.171,-0.15850392541707553,-6.905616474484789,-7.336137481599607
1621786776119.597,0.3246372023809524,0.1983544642857143,0.171,-0.108,-6.796,-7.139
1621786776119.95,0.326,0.199,0.171,-0.10496334901972806,-6.789261737970784,-7.124215721139844
1621786776124.867,0.337,0.204,0.176,-0.06266863896255193,-6.695410702515444,-6.918299140058556
1621786776129.778,0.34,0.216,0.182,-0.020424329751521378,-6.601671505434033,-6.712627941199013
1621786776134.737,0.344,0.236,0.183,0.022231586369698172,-6.507018961632203,-6.50495278752855
1621786776135.524,0.34320549228417885,0.2383835231474634,0.183,0.029,-6.492,-6.472
1621786776139.689,0.339,0.251,0.183,0.0649684664038867,-6.430749350689034,-6.357057292144101
1621786776144.636,0.325,0.271,0.192,0.10768998074983958,-6.357998945824549,-6.220534191951599
1621786776149.579,0.302,0.29,0.195,0.15037776148134568,-6.285305985883215,-6.084118892657439
1621786776151.504,0.2926449124888757,0.2993550875111243,0.19655918125185406,0.167,-6.257,-6.031
1621786776154.517,0.278,0.314,0.199,0.15205238467552776,-6.245836591086786,-6.012457388584831
1621786776159.449,0.248,0.328,0.202,0.1275865949194377,-6.227564672155023,-5.982107421545631
1621786776164.377,0.211,0.344,0.215,0.10314018304741757,-6.209307225313895,-5.9517814928942645
1621786776167.429,0.19301830266355835,0.3502005852884281,0.21686017558652845,0.088,-6.198,-5.933
1621786776169.299,0.182,0.354,0.218,0.04181567614125753,-6.2117846068660025,-5.9642215454657315
1621786776174.216,0.138,0.356,0.229,-0.07961412575366064,-6.2480276854928025,-6.046310569705919
1621786776179.129,0.106,0.356,0.234,-0.20094142980189492,-6.2842401716500556,-6.128330303309955
1621786776183.302,0.08984163391213493,0.35344867903875815,0.2322991193591721,-0.304,-6.315,-6.198
1621786776184.036,0.087,0.353,0.232,-0.324452765563527,-6.32413649618144,-6.225734135616756
1621786776188.939,0.073,0.346,0.23,-0.4610971071511224,-6.385177165779527,-6.411025102213994
1621786776193.837,0.072,0.332,0.222,-0.5975985651469566,-6.446154007559978,-6.596122317364808
1621786776198.729,0.075,0.314,0.218,-0.7339367276093497,-6.507057903263133,-6.780998102291137
1621786776199.126,0.07597477144427237,0.31270030474097016,0.21702522855572762,-0.745,-6.512,-6.796
1621786776203.616,0.087,0.298,0.206,-0.8147556274576586,-6.531360745580084,-6.904761835464594
1621786776208.499,0.103,0.281,0.197,-0.8906178592438926,-6.552416385422794,-7.023044988698641
1621786776213.376,0.124,0.262,0.176,-0.9663852679815463,-6.573445707031613,-7.141180295383472
1621786776214.896,0.12992774103026658,0.25326438163960713,0.17225616355983162,-0.99,-6.58,-7.178
1621786776218.248,0.143,0.234,0.164,-0.9816986543470172,-6.571698654347017,-7.186514200669726
1621786776223.116,0.154,0.211,0.148,-0.9696432624333374,-6.559643262433338,-7.198878705196577
1621786776227.978,0.18,0.195,0.131,-0.9576023812476745,-6.547602381247675,-7.211228326925462
1621786776230.644,0.1919433258762118,0.18414243102162564,0.12122818791946309,-0.951,-6.541,-7.218
1621786776232.889,0.202,0.175,0.113,-0.9246447690814109,-6.517336970089224,-7.195753917988073
1621786776237.796,0.222,0.162,0.101,-0.8670358744394618,-6.465612855007474,-7.147127055306427
1621786776242.698,0.234,0.15,0.087,-0.8094843049327354,-6.4139402092675635,-7.098548579970105
1621786776246.487,0.24096380496559977,0.15,0.07384614617608934,-0.765,-6.374,-7.061
1621786776247.595,0.243,0.15,0.07,-0.7457081684392778,-6.362986117981697,-7.042409689586941
1621786776252.487,0.248,0.147,0.049,-0.6605231263912936,-6.3143532030670295,-6.9603222854316105
1621786776257.376,0.248,0.138,0.044,-0.5753933496166213,-6.265751839599307,-6.87828813690329
1621786776262.26,0.239,0.133,0.026,-0.49034859633935196,-6.217199016819193,-6.79633592010883
1621786776262.28,0.23895075075075073,0.13297537537537538,0.025979479479479477,-0.49,-6.217,-6.796
1621786776267.138,0.227,0.127,0.021,-0.4387928190499814,-6.211138937120179,-6.765769254619869
1621786776272.014,0.218,0.129,0.012,-0.38739520029765595,-6.2052560771425025,-6.7354260821034355
1621786776276.883,0.202,0.129,0.002,-0.3360696390921494,-6.199381464715366,-6.705125449584522
1621786776278.028,0.19964640939428915,0.12829392281828675,0.0003524865760024089,-0.324,-6.198,-6.698
1621786776281.748,0.192,0.126,-0.005,-0.3192605794802408,-6.207241870013531,-6.71198129053329
1621786776286.61,0.176,0.117,-0.017,-0.31306608189862983,-6.219321140297672,-6.730255058399042
1621786776291.465,0.171,0.105,-0.023,-0.3068806046750338,-6.231382820883685,-6.74850221620865
1621786776293.726,0.16307784431137726,0.10220394505107432,-0.0253300457907714,-0.304,-6.237,-6.757
1621786776296.317,0.154,0.099,-0.028,-0.310456397616299,-6.253223768369161,-6.773223768369162
1621786776301.164,0.15,0.093,-0.042,-0.3225356775139621,-6.28357683067611,-6.80357683067611
1621786776306.006,0.147,0.073,-0.051,-0.3346021808991919,-6.313897787900533,-6.833897787900534
1621786776309.376,0.14908967501009285,0.06464129995962858,-0.05448279168348809,-0.343,-6.335,-6.855
1621786776310.844,0.15,0.061,-0.056,-0.3448819442270978,-6.336881944227097,-6.866950345842071
1621786776315.678,0.141,0.035,-0.068,-0.3510789333667178,-6.343078933366718,-6.906301226878658
1621786776320.506,0.138,0.026,-0.079,-0.3572684110043504,-6.349268411004351,-6.9456044098776255
1621786776324.977,0.1361463636823726,0.0065368186649121945,-0.08641454527050964,-0.363,-6.355,-6.982
1621786776325.33,0.136,0.005,-0.087,-0.3577028033901462,-6.356750768371054,-6.980473689112415
1621786776330.205,0.138,-0.01,-0.098,-0.2845531340225389,-6.3809273540095,-6.959396665735308
1621786776335.075,0.141,-0.017,-0.101,-0.2114803948961535,-6.405078513551271,-6.938341808698891
1621786776339.94,0.143,-0.031,-0.105,-0.13848092266616996,-6.429205457762876,-6.917308062463134
1621786776340.705,0.14362934886289472,-0.03194402329434209,-0.10625869772578944,-0.127,-6.433,-6.914
1621786776344.803,0.147,-0.037,-0.113,-0.07581188735024116,-6.40740594367512,-6.862811887350241
1621786776349.66,0.138,-0.049,-0.115,-0.015142461490586581,-6.377071230745293,-6.802142461490586
1621786776354.513,0.14,-0.051,-0.113,0.045478170219386965,-6.346760914890306,-6.741521829780613
1621786776356.396,0.13650573844759892,-0.051,-0.11532950770160072,0.069,-6.335,-6.718
1621786776359.363,0.131,-0.051,-0.119,0.10617325759230939,-6.309016651580886,-6.695620181653609
1621786776364.208,0.12,-0.054,-0.12,0.16687459034301944,-6.266587658790849,-6.659075501732263
1621786776369.049,0.108,-0.054,-0.112,0.2275269827397859,-6.224192874309436,-6.6225602859015575
1621786776372.04,0.09872456087219866,-0.05090818695739956,-0.10828982434887946,0.265,-6.198,-6.6
1621786776373.886,0.093,-0.049,-0.106,0.2765964442775091,-6.191018467220684,-6.595385088501807
1621786776378.718,0.066,-0.038,-0.103,0.3069517974239792,-6.172743305632503,-6.583304896943519
1621786776383.546,0.054,-0.031,-0.098,0.33728107735887447,-6.154483841181903,-6.571235081459223
1621786776387.64,0.03448537745395669,-0.02845461445051609,-0.09036384335154826,0.363,-6.139,-6.561
1621786776388.371,0.031,-0.028,-0.089,0.3648329253365973,-6.139939961711076,-6.566498776009792
1621786776393.191,0.01,-0.026,-0.082,0.37691493268053855,-6.146135862913097,-6.602744798041615
1621786776398.007,-0.005,-0.016,-0.075,0.38898776009791924,-6.1523270564604715,-6.6389632802937575
1621786776402.818,-0.023,-0.009,-0.072,0.4010477356181151,-6.1585116592913405,-6.6751432068543455
1621786776403.198,-0.02450124409688722,-0.008841974305590819,-0.07097283298634031,0.402,-6.159,-6.678
1621786776407.626,-0.042,-0.007,-0.059,0.402,-6.192398319089664,-6.739658435242458
1621786776412.429,-0.052,0.002,-0.052,0.402,-6.228625100335238,-6.806538646772746
1621786776417.228,-0.063,0.0,-0.044,0.402,-6.264822418433353,-6.873364464800038
1621786776418.71,-0.06361812627291243,0.0009271894093686355,-0.042763747454175154,0.402,-6.276,-6.894
1621786776422.023,-0.065,0.003,-0.04,0.40412220258667875,-6.301041990522809,-6.933472968112225
1621786776426.869,-0.065,0.007,-0.03,0.4072263734888885,-6.337671207168885,-6.991210546893327
1621786776431.711,-0.058,0.012,-0.024,0.41032804216255103,-6.374270897518102,-7.048901584223449
1621786776434.321,-0.055842054801433116,0.01469743149820861,-0.019684109602866227,0.412,-6.394,-7.08
1621786776436.549,-0.054,0.017,-0.016,0.41057250117315813,-6.402422243078367,-7.091277240732051
1621786776441.383,-0.045,0.021,-0.014,0.4074753636790239,-6.420695354293759,-7.115744626935711
1621786776446.214,-0.037,0.024,-0.01,0.4043801032379165,-6.438957390896293,-7.14019718442046
1621786776449.929,-0.026993018667476096,0.03092791015328578,-0.0023023220519046896,0.402,-6.453,-7.159
1621786776451.04,-0.024,0.033,0.0,0.4027136025088201,-6.454355844766758,-7.153362540180321
1621786776455.863,-0.012,0.044,0.002,0.40581121128969033,-6.460241301450412,-7.128891430811446
1621786776460.682,0.0,0.042,0.009,0.40890615444923556,-6.466121693453548,-7.104441379851039
1621786776465.498,0.0,0.045,0.014,0.41199937279498233,-6.471998808310467,-7.080004954919639
1621786776465.499,1.8268547650461787e-06,0.04500223282249061,0.01400060895158835,0.412,-6.472,-7.08
1621786776470.309,0.009,0.056,0.017,0.4178851698712406,-6.46611483012876,-7.028582200072319
1621786776475.117,0.009,0.056,0.024,0.42376765135912714,-6.460232348640873,-6.9771878881255205
1621786776479.92,0.012,0.066,0.03,0.4296441586617825,-6.454355841338217,-6.925845771691795
1621786776481.028,0.01292345252021769,0.06738517878032653,0.031616041910380956,0.431,-6.453,-6.914
1621786776484.72,0.016,0.072,0.037,0.4264718128949898,-6.443705300152874,-6.8858775748215155
1621786776489.517,0.01,0.07,0.042,0.42058804431766245,-6.431628090967833,-6.849336275236009
1621786776494.309,0.014,0.075,0.045,0.41471056405730405,-6.419563789380782,-6.812834029408521
1621786776496.519,0.011692582207494265,0.07823038490950802,0.048230384909508026,0.412,-6.414,-6.796
1621786776499.098,0.009,0.082,0.052,0.41033093684326954,-6.417171219997788,-6.773133834752793
1621786776503.882,0.007,0.089,0.056,0.4072345663406387,-6.423054323952786,-6.73071355886675
1621786776508.664,0.005,0.093,0.059,0.4041396179310127,-6.428934725931076,-6.6883127656548735
1621786776511.97,0.005,0.1013048144740877,0.06661274660124707,0.402,-6.433,-6.659
1621786776513.441,0.005,0.105,0.07,0.4000910588682593,-6.433,-6.64773724732273
1621786776518.214,-0.003,0.112,0.068,0.39389658450034853,-6.433,-6.611189848552057
1621786776522.984,-0.012,0.119,0.079,0.38770654584627084,-6.433,-6.574668620492998
1621786776527.381,-0.012,0.1254582010039955,0.07992260014342793,0.382,-6.433,-6.541
1621786776527.75,-0.012,0.126,0.08,0.3815440337976272,-6.433935930625923,-6.541
1621786776532.513,-0.023,0.138,0.08,0.37565690961358256,-6.446020027635278,-6.541
1621786776537.271,-0.026,0.147,0.086,0.36977582072010545,-6.458091736416626,-6.541
1621786776542.025,-0.026,0.148,0.093,0.36389986182361067,-6.470152915204168,-6.541
1621786776542.753,-0.027379420230263157,0.14784673108552632,0.093,0.363,-6.472,-6.541
1621786776546.775,-0.035,0.147,0.093,0.3422789772003566,-6.477245828556872,-6.556475194242772
1621786776551.523,-0.042,0.162,0.087,0.3178172525792892,-6.483438670233092,-6.57474407718762
1621786776556.265,-0.044,0.164,0.094,0.2933869729970704,-6.4896235511399825,-6.5929894758629475
1621786776558.087,-0.04592236360826336,0.16592236360826337,0.09553789088661069,0.284,-6.492,-6.6
1621786776561.004,-0.049,0.169,0.098,0.27293703703703703,-6.495814814814815,-6.622507407407407
1621786776565.741,-0.049,0.171,0.099,0.2549712962962963,-6.502009897828863,-6.659058397190294
1621786776570.472,-0.054,0.175,0.099,0.2370287037037037,-6.508196998722861,-6.695562292464879
1621786776573.38,-0.05092476505215326,0.17561504698956934,0.09838495301043065,0.226,-6.512,-6.718
1621786776575.2,-0.049,0.176,0.098,0.22361336897539738,-6.509613368975397,-6.731961791493926
1621786776579.924,-0.045,0.173,0.098,0.21741869287532214,-6.5034186928753215,-6.768200646679365
1621786776584.644,-0.044,0.175,0.098,0.21122945912634258,-6.497229459126342,-6.8044076641108955
1621786776588.632,-0.044,0.17753635940168727,0.09461818746441696,0.206,-6.492,-6.835
1621786776589.361,-0.044,0.178,0.094,0.2050416586430451,-6.491041658643045,-6.834089575710893
1621786776594.074,-0.045,0.178,0.099,0.19884613903331408,-6.484846139033314,-6.828203832081648
1621786776598.782,-0.047,0.173,0.093,0.1926570383208165,-6.478657038320817,-6.822324186404775
1621786776603.487,-0.045,0.175,0.096,0.18647178894665897,-6.47247178894666,-6.816448199499326
1621786776603.846,-0.04515265590113713,0.17469468819772574,0.096,0.186,-6.472,-6.816
1621786776608.189,-0.047,0.171,0.096,0.19744778544653055,-6.477723892723265,-6.827161590810367
1621786776612.886,-0.045,0.164,0.094,0.2098286918609328,-6.483914345930467,-6.83923297456441
1621786776617.58,-0.049,0.169,0.093,0.22220187589491128,-6.490100937947456,-6.851296828997539
1621786776619.021,-0.04746414073071718,0.169,0.09330717185385656,0.226,-6.492,-6.855
1621786776622.271,-0.044,0.169,0.094,0.21332824575273068,-6.492,-6.855
1621786776626.956,-0.042,0.168,0.089,0.19506119617302076,-6.492,-6.855
1621786776631.639,-0.038,0.159,0.094,0.17680271373485423,-6.492,-6.855
1621786776634.153,-0.03907461129082751,0.16168652822706878,0.09238808306375874,0.167,-6.492,-6.855
1621786776636.318,-0.04,0.164,0.091,0.16972565799052042,-6.494869113674232,-6.855
1621786776640.992,-0.037,0.15,0.087,0.17560973518611386,-6.501062879143277,-6.855
1621786776645.663,-0.033,0.145,0.089,0.1814904314347186,-6.507253085720756,-6.855
1621786776649.245,-0.03146495082653275,0.14730257376020087,0.08746495082653274,0.186,-6.512,-6.855
1621786776650.33,-0.031,0.148,0.087,0.18744133625233114,-6.5169005432579254,-6.853558663747669
1621786776654.993,-0.026,0.148,0.091,0.19363577393983622,-6.537961631395443,-6.847364226060164
1621786776659.653,-0.024,0.14,0.086,0.19982664396335034,-6.559010589475391,-6.8411733560366494
1621786776664.3,-0.02100582035551361,0.14998059881495462,0.08699805988149546,0.206,-6.58,-6.835
1621786776664.309,-0.021,0.15,0.087,0.206,-6.579976533914429,-6.834976533914429
1621786776668.961,-0.014,0.145,0.086,0.206,-6.56789213406404,-6.82289213406404
1621786776673.609,-0.01,0.138,0.084,0.206,-6.555817881710114,-6.810817881710114
1621786776678.253,-0.005,0.138,0.089,0.206,-6.54375377685265,-6.79875377685265
1621786776679.313,-0.006598842714360863,0.1370863755917938,0.08831478169384534,0.206,-6.541,-6.796
1621786776682.894,-0.012,0.134,0.086,0.206,-6.529282435032117,-6.763238644885716
1621786776687.531,-0.017,0.141,0.087,0.206,-6.514109834034367,-6.720817291075679
1621786776692.164,-0.016,0.138,0.086,0.206,-6.498950014672797,-6.678431673677003
1621786776694.288,-0.019212025316455696,0.13891772151898735,0.086,0.206,-6.492,-6.659
1621786776696.793,-0.023,0.14,0.086,0.21589554215094894,-6.495354421068118,-6.64256333676622
1621786776701.418,-0.03,0.136,0.087,0.23416660945188236,-6.501548003204028,-6.612214784300263
1621786776706.04,-0.04,0.133,0.089,0.2524261030193059,-6.507737662040443,-6.581885456001831
1621786776709.223,-0.043446935645920365,0.13989387129184072,0.089,0.265,-6.512,-6.561
1621786776710.657,-0.045,0.143,0.089,0.265,-6.514792099655794,-6.566584199311588
1621786776715.271,-0.054,0.14,0.091,0.265,-6.5237753974758235,-6.584550794951647
1621786776719.882,-0.052,0.143,0.098,0.265,-6.5327529913129,-6.602505982625799
1621786776724.118,-0.05843750662567582,0.14483928760733594,0.09616071239266405,0.265,-6.541,-6.619
1621786776724.488,-0.059,0.145,0.096,0.2645016927982119,-6.541971699043487,-6.621466620648851
1621786776729.091,-0.049,0.143,0.098,0.2583044078493245,-6.554056404693817,-6.652143181145844
1621786776733.69,-0.054,0.147,0.094,0.25211271077802977,-6.566130213982842,-6.682792081648753
1621786776738.284,-0.047,0.15,0.098,0.2459275876803734,-6.5781912040232715,-6.7134084409821515
1621786776738.973,-0.04594953469821856,0.15,0.09769986705663387,0.245,-6.58,-6.718
1621786776742.875,-0.04,0.15,0.096,0.23472865687873845,-6.574996012325539,-6.733275330795722
1621786776747.463,-0.042,0.157,0.098,0.22265213307627663,-6.569112577652545,-6.751235289271178
1621786776752.047,-0.031,0.152,0.099,0.21058524890009392,-6.563233839207738,-6.7691809118921675
1621786776753.789,-0.031,0.15390215942415356,0.09785870434550786,0.206,-6.561,-6.776
1621786776756.626,-0.031,0.157,0.096,0.1985126391963784,-6.561,-6.779839672206985
1621786776761.203,-0.024,0.145,0.094,0.1864329874764564,-6.561,-6.786034365396689
1621786776765.775,-0.023,0.147,0.091,0.17436622278029276,-6.561,-6.7922224498562604
1621786776768.566,-0.019334135000801667,0.14761097749986637,0.09222195499973278,0.167,-6.561,-6.796
1621786776770.343,-0.017,0.148,0.093,0.1574729866299972,-6.558588097881012,-6.796
1621786776774.908,-0.016,0.14,0.087,0.13300038105336404,-6.5523925015324975,-6.796
1621786776779.469,-0.007,0.14,0.089,0.10854871684421544,-6.546202206796004,-6.796
1621786776783.302,-0.0112066341567976,0.13831734633728096,0.08731734633728096,0.088,-6.541,-6.796
1621786776784.025,-0.012,0.138,0.087,0.08416342464160534,-6.538589843685111,-6.796
1621786776788.579,-0.009,0.14,0.084,0.05999338859449492,-6.523406103091414,-6.796
1621786776793.128,-0.012,0.134,0.082,0.03585185800428578,-6.508240269771923,-6.796
1621786776797.674,-0.017,0.117,0.077,0.01172458014252728,-6.493083390089536,-6.796
1621786776797.999,-0.017643893786282523,0.1162130187056547,0.077,0.01,-6.492,-6.796
1621786776802.216,-0.026,0.106,0.077,0.007122653295797171,-6.486245306591594,-6.807221652146391
1621786776806.754,-0.037,0.098,0.07,0.004026419683163699,-6.480052839366327,-6.8192969632356615
1621786776811.289,-0.044,0.091,0.068,0.0009320184571304825,-6.473864036914262,-6.831365128017191
1621786776812.655,-0.04279385610347615,0.08949232012934519,0.06709539207760712,0.0,-6.472,-6.835
1621786776815.819,-0.04,0.086,0.065,0.027489269311064716,-6.503818288100209,-6.822229394572025
1621786776820.345,-0.044,0.079,0.056,0.06680995407098121,-6.549331206680584,-6.80396230480167
1621786776824.868,-0.044,0.079,0.058,0.10610518580375781,-6.594814663883089,-6.78570703966597
1621786776827.273,-0.039210210696920586,0.07208141545110751,0.05693560237709346,0.127,-6.619,-6.776
1621786776829.387,-0.035,0.066,0.056,0.14411264822134387,-6.630456772961747,-6.767588698331882
1621786776833.902,-0.033,0.07,0.054,0.18066205533596838,-6.65492629128425,-6.749623735512829
1621786776838.414,-0.023,0.073,0.056,0.21718577075098813,-6.679378609231594,-6.73167140081731
1621786776841.85,-0.013091416192797184,0.07452439750880042,0.056,0.245,-6.698,-6.718
1621786776842.922,-0.01,0.075,0.056,0.2421241372361328,-6.6892986716375304,-6.719401061346499
1621786776847.425,-0.009,0.07,0.054,0.23004433472719027,-6.652749525584833,-6.725286093338036
1621786776851.926,0.0,0.061,0.056,0.2179697717769157,-6.6162162325557965,-6.731168572724067
1621786776856.388,0.002977193744569939,0.0629847958297133,0.047068418766290185,0.206,-6.58,-6.737
1621786776856.422,0.003,0.063,0.047,0.20586091466289486,-6.579792550683639,-6.737091937765205
1621786776860.914,0.007,0.063,0.051,0.18758212096719876,-6.552529265171415,-6.749174530208123
1621786776865.403,0.012,0.056,0.045,0.16931524887182595,-6.525283761029164,-6.761249242271166
1621786776869.888,0.01,0.056,0.04,0.15106526571024448,-6.498063447161043,-6.77331279046272
1621786776870.887,0.010891989100817439,0.056,0.03933100817438692,0.147,-6.492,-6.776
1621786776874.368,0.014,0.056,0.037,0.16120407267324058,-6.492,-6.766610867215993
1621786776878.846,0.019,0.059,0.035,0.17947669863568821,-6.492,-6.754532351749291
1621786776883.32,0.024,0.04,0.03,0.1977333851141429,-6.492,-6.742464372551669
1621786776885.346,0.023546681234635346,0.04,0.02818672493854138,0.206,-6.492,-6.737
1621786776887.789,0.023,0.04,0.026,0.206,-6.500301752306781,-6.72700401252857
1621786776892.255,0.021,0.031,0.024,0.206,-6.515476695166343,-6.708732142554813
1621786776896.717,0.028,0.028,0.026,0.206,-6.530639194108186,-6.6904752560738165
1621786776899.766,0.03278767798466594,0.025264184008762323,0.02463209200438116,0.206,-6.541,-6.678
1621786776901.175,0.035,0.024,0.024,0.20795945945945946,-6.541,-6.670358108108108
1621786776905.63,0.031,0.023,0.016,0.21415496400923537,-6.541,-6.646195640363982
1621786776910.081,0.028,0.019,0.016,0.22034537552628006,-6.541,-6.622053035447507
1621786776914.147,0.02342748888034704,0.01717099555213882,0.016914502223930594,0.226,-6.541,-6.6
1621786776914.527,0.023,0.017,0.017,0.22703374133909876,-6.541,-6.6
1621786776918.971,0.026,0.012,0.016,0.23911862242726545,-6.541,-6.6
1621786776923.41,0.024,0.01,0.009,0.2511902248855144,-6.541,-6.6
1621786776927.845,0.019,0.009,0.009,0.2632512044398291,-6.541,-6.6
1621786776928.488,0.019,0.008129639828174908,0.009145060028637514,0.265,-6.541,-6.6
1621786776932.278,0.019,0.003,0.01,0.2596996261331239,-6.541,-6.610335729040409
1621786776936.705,0.016,-0.002,0.005,0.2535084589514656,-6.541,-6.622408505044642
1621786776941.129,0.012,-0.003,0.003,0.247321730371989,-6.541,-6.634472625774622
1621786776942.789,0.011248992213816335,-0.004502015572367331,0.0026244961069081672,0.245,-6.541,-6.639
1621786776945.55,0.01,-0.007,0.002,0.245,-6.541,-6.642872083269135
1621786776949.966,0.012,-0.009,0.0,0.245,-6.541,-6.6490652252067175
1621786776954.379,0.01,-0.012,-0.002,0.245,-6.541,-6.655253916080325
1621786776957.05,0.008182558139534883,-0.010788372093023257,-0.0007883720930232558,0.245,-6.541,-6.659
1621786776958.788,0.007,-0.01,0.0,0.2497654691817854,-6.541,-6.663765469181786
1621786776963.193,0.005,-0.012,-0.002,0.2618434802011637,-6.541,-6.675843480201164
1621786776967.595,0.01,-0.017,-0.003,0.2739127890012186,-6.541,-6.687912789001219
1621786776971.274,0.01167340366463076,-0.012816490838423098,-0.004673403664630761,0.284,-6.541,-6.698
1621786776971.992,0.012,-0.012,-0.005,0.28698686611354013,-6.541,-6.698
1621786776976.385,0.012,-0.016,-0.017,0.3052614899989672,-6.541,-6.698
1621786776980.776,0.012,-0.019,-0.012,0.3235269735256653,-6.541,-6.698
1621786776985.162,0.012,-0.021,-0.016,0.3417731607394912,-6.541,-6.698
1621786776985.457,0.012269222197459326,-0.020730777802540675,-0.016,0.343,-6.541,-6.698
1621786776989.544,0.016,-0.017,-0.016,0.34877898988504163,-6.546778989885042,-6.692221010114959
1621786776993.923,0.01,-0.017,-0.017,0.3549712086167018,-6.552971208616702,-6.686028791383299
1621786776998.297,0.017,-0.019,-0.017,0.3611561777194739,-6.559156177719474,-6.679843822280526
1621786776999.601,0.016105010333463666,-0.019,-0.017,0.363,-6.561,-6.678
1621786777002.668,0.014,-0.019,-0.017,0.363,-6.554475528470768,-6.682349647686155
1621786777007.036,0.012,-0.03,-0.017,0.363,-6.545183272450269,-6.688544485033154
1621786777011.399,0.012,-0.026,-0.017,0.363,-6.535901404061564,-6.694732397292291
1621786777013.703,0.010942929151498179,-0.024942929151498178,-0.019114141697003643,0.363,-6.531,-6.698
1621786777015.758,0.01,-0.024,-0.021,0.3657766262173845,-6.532461382219676,-6.698
1621786777020.115,0.01,-0.021,-0.021,0.3716630210232106,-6.535559484749058,-6.698
1621786777024.466,0.01,-0.028,-0.024,0.3775414995746749,-6.538653420828776,-6.698
1621786777027.766,0.009241001740692908,-0.028,-0.02020500870346454,0.382,-6.541,-6.698
1621786777028.814,0.009,-0.028,-0.019,0.382,-6.5424943769367365,-6.698
1621786777033.159,0.014,-0.028,-0.024,0.382,-6.548690888200272,-6.698
1621786777037.499,0.016,-0.03,-0.026,0.382,-6.554880435917969,-6.698
1621786777041.79,0.016989416798018464,-0.02604233280792614,-0.026,0.382,-6.561,-6.698
1621786777041.836,0.017,-0.026,-0.026,0.382,-6.561,-6.6979343598338055
1621786777046.169,0.012,-0.028,-0.026,0.382,-6.561,-6.691737648825111
1621786777050.498,0.019,-0.037,-0.017,0.382,-6.561,-6.685546524213541
1621786777054.823,0.016,-0.031,-0.026,0.382,-6.561,-6.679361335148912
1621786777055.775,0.016220245156188216,-0.030779754843811784,-0.025559509687623567,0.382,-6.561,-6.678
1621786777059.145,0.017,-0.03,-0.024,0.382,-6.556166243543728,-6.682833756456272
1621786777063.463,0.021,-0.035,-0.023,0.382,-6.549973124398144,-6.689026875601856
1621786777067.776,0.016,-0.042,-0.024,0.382,-6.543787008666725,-6.695212991333276
1621786777069.719,0.015098538905878357,-0.03704196398233096,-0.024,0.382,-6.541,-6.698
1621786777072.087,0.014,-0.031,-0.024,0.382,-6.5392969570332395,-6.684545960562589
1621786777076.393,0.012,-0.038,-0.023,0.382,-6.536199908693439,-6.660079278678162
1621786777080.696,0.012,-0.037,-0.021,0.382,-6.533105143017682,-6.635630629839687
1621786777083.623,0.012,-0.03563830995513658,-0.019638309955136577,0.382,-6.531,-6.619
1621786777084.995,0.012,-0.035,-0.019,0.382,-6.531,-6.626818889456351
1621786777089.29,0.014,-0.028,-0.023,0.382,-6.531,-6.651293961220788
1621786777093.581,0.012,-0.03,-0.017,0.382,-6.531,-6.675746772801719
1621786777097.486,0.012,-0.03,-0.01608927859705062,0.382,-6.531,-6.698
1621786777097.869,0.012,-0.03,-0.016,0.382,-6.531276899712151,-6.698553799424303
1621786777102.152,0.01,-0.035,-0.017,0.382,-6.534375068430254,-6.7047501368605085
1621786777106.432,0.012,-0.026,-0.014,0.382,-6.537470764829498,-6.710941529658997
1621786777110.708,0.016,-0.028,-0.019,0.382,-6.54056381231568,-6.71712762463136
1621786777111.311,0.016141158989598812,-0.027294205052005943,-0.018717682020802377,0.382,-6.541,-6.718
1621786777114.98,0.017,-0.023,-0.017,0.382,-6.546322377857662,-6.718
1621786777119.248,0.021,-0.024,-0.012,0.382,-6.552513874378,-6.718
1621786777123.513,0.026,-0.019,-0.014,0.382,-6.558700766765242,-6.718
1621786777125.098,0.026,-0.02048788173952902,-0.01325605913023549,0.382,-6.561,-6.718
1621786777127.774,0.026,-0.023,-0.012,0.3783016941326893,-6.551462263815883,-6.714107046455463
1621786777132.031,0.023,-0.012,-0.016,0.3724183477766728,-6.536289423213525,-6.707914050291235
1621786777136.284,0.024,-0.017,-0.012,0.36654073732064213,-6.52113137519534,-6.7017270919164655
1621786777138.846,0.024,-0.013985175821650195,-0.010794070328660078,0.363,-6.512,-6.698
1621786777140.533,0.024,-0.012,-0.01,0.3653381179655221,-6.507077646388374,-6.690739528422853
1621786777144.78,0.023,-0.014,-0.014,0.37122435532127085,-6.494685567744693,-6.672461212423422
1621786777149.021,0.017,-0.016,-0.012,0.3771021334947998,-6.482311297905685,-6.654209164410885
1621786777152.555,0.012830693012270293,-0.008495247422086526,-0.012,0.382,-6.472,-6.639
1621786777153.259,0.012,-0.007,-0.012,0.3810213077568808,-6.473030202361178,-6.640030202361178
1621786777157.494,0.007,-0.005,-0.005,0.37513490149850864,-6.479226419475254,-6.646226419475254
1621786777161.724,0.0,-0.002,-0.005,0.36925494293521943,-6.485415849541875,-6.652415849541875
1621786777165.95,-0.002,-0.003,-0.003,0.36338109271464036,-6.491598849774062,-6.658598849774062
1621786777166.224,-0.0018701884175239857,-0.002610565252571957,-0.002935094208761993,0.363,-6.492,-6.659
1621786777170.174,0.0,0.003,-0.002,0.363,-6.497796847008241,-6.681607703332139
1621786777174.392,-0.007,0.003,-0.003,0.363,-6.503987101397349,-6.70574969544966
1621786777178.607,-0.007,-0.005,-0.003,0.363,-6.510172697957721,-6.729873522035113
1621786777179.852,-0.007,-0.005,-0.003,0.363,-6.512,-6.737
1621786777182.819,-0.007,-0.005,-0.003,0.3501186583788445,-6.512,-6.749881341621156
1621786777187.027,-0.002,0.002,-0.002,0.33184968741017534,-6.512,-6.768150312589825
1621786777191.23,-0.007,-0.007,-0.005,0.31360297499281403,-6.512,-6.786397025007187
1621786777193.442,-0.001734700993781601,-0.0043673504968908,-0.0023673504968908005,0.304,-6.512,-6.796
1621786777195.431,0.003,-0.002,0.0,0.30693580295850525,-6.5191927172483375,-6.790275184230915
1621786777199.627,0.0,0.0,-0.005,0.3131292048791914,-6.534366551954019,-6.778198050485577
1621786777203.819,0.005,-0.002,-0.003,0.3193168411379975,-6.5495262607880935,-6.766132159780905
1621786777206.992,0.0012128453199673622,-0.0004851381279869448,-0.0007277071919804174,0.324,-6.561,-6.757
1621786777208.008,0.0,0.0,0.0,0.324,-6.561,-6.754066736541554
1621786777212.193,0.005,0.0,0.0,0.324,-6.561,-6.7419855250555685
1621786777216.375,0.01,0.0,0.0,0.324,-6.561,-6.729913475613062
1621786777220.502,0.01,-0.00296405400666316,0.00296405400666316,0.324,-6.561,-6.718
1621786777220.552,0.01,-0.003,0.003,0.3238513765791239,-6.560817936309427,-6.7180705961249165
1621786777224.725,0.012,0.003,0.0,0.3114590832472405,-6.5456373769778695,-6.723956935457561
1621786777228.894,0.01,0.012,0.0,0.2990791147844054,-6.530471915610896,-6.729837420477407
1621786777233.061,0.012,0.0,0.002,0.28670494625994597,-6.515313559168433,-6.735715150526525
1621786777233.972,0.012875667429443174,0.0004378337147215866,0.002,0.284,-6.512,-6.737
1621786777237.222,0.016,0.002,0.002,0.284,-6.512,-6.722721152622489
1621786777241.381,0.017,0.003,0.0,0.284,-6.512,-6.704447832015271
1621786777245.535,0.014,0.003,0.005,0.284,-6.512,-6.6861981092627945
1621786777247.401,0.010853437628653767,0.006146562371346233,0.004100982179615362,0.284,-6.512,-6.678
1621786777249.686,0.007,0.01,0.003,0.284,-6.50858680669511,-6.671344273055464
1621786777253.833,0.007,0.007,0.003,0.284,-6.502392736024505,-6.659265835247785
1621786777257.976,-0.002,0.01,0.005,0.284,-6.49620449987237,-6.647198774751121
1621786777260.791,-0.004040346841267033,0.006599421931221613,0.005,0.284,-6.492,-6.639
1621786777262.115,-0.005,0.005,0.005,0.28211553303948644,-6.495868116392633,-6.642868116392633
1621786777266.251,-0.016,0.007,0.012,0.27622861532271337,-6.507951789600746,-6.654951789600746
1621786777270.383,-0.021,0.007,0.007,0.27034725753058875,-6.5200240503319495,-6.66702405033195
1621786777274.14,-0.01462778040700426,0.008820634169427353,0.008820634169427353,0.265,-6.531,-6.678
1621786777274.51,-0.014,0.009,0.009,0.26444385340621446,-6.5334470450126565,-6.679640632451667
1621786777278.635,-0.019,0.009,0.012,0.2582455335852379,-6.560719652224953,-6.697925675923548
1621786777282.755,-0.012,0.009,0.012,0.25205491764187976,-6.587958362375729,-6.7161879929564545
1621786777286.871,-0.01,0.003,0.012,0.24586980446824902,-6.615172860339704,-6.7344340768186655
1621786777287.45,-0.009296272112074084,0.003985219043096284,0.012562982310340734,0.245,-6.619,-6.737
1621786777290.984,-0.005,0.01,0.016,0.2503258030096766,-6.613940487140807,-6.742325803009677
1621786777295.093,-0.003,0.007,0.007,0.2565184517458332,-6.608057470841458,-6.748518451745833
1621786777299.198,0.007,0.012,0.016,0.26270484565289376,-6.602180396629751,-6.754704845652894
1621786777300.721,0.006257469348887037,0.012742530651112962,0.014514938697774074,0.265,-6.6,-6.757
1621786777303.3,0.005,0.014,0.012,0.265,-6.586549876370078,-6.730099752740156
1621786777307.397,0.01,0.014,0.01,0.265,-6.56518424548843,-6.68736849097686
1621786777311.491,0.005,0.01,0.014,0.265,-6.543833893050891,-6.644667786101782
1621786777313.952,0.00202707485400814,0.014162095204388605,0.015783755087595115,0.265,-6.531,-6.619
1621786777315.63,0.0,0.017,0.017,0.265,-6.53206059904634,-6.6107273274385445
1621786777320.623,-0.01,0.019,0.017,0.265,-6.535216625773498,-6.586110318966715
1621786777325.617,-0.014,0.023,0.017,0.265,-6.5383731154421865,-6.561489699550947
1621786777329.773,-0.014,0.02133564724286273,0.021993058271411813,0.265,-6.541,-6.541
1621786777330.611,-0.014,0.021,0.023,0.26089608837103734,-6.543025981690247,-6.547129893319211
1621786777335.604,-0.021,0.024,0.023,0.23644834682605737,-6.555095119921313,-6.583646773095256
1621786777340.598,-0.023,0.031,0.019,0.21199582356056595,-6.5671666187485815,-6.620170795188016
1621786777345.592,-0.024,0.023,0.019,0.18754210486494666,-6.5792387077249,-6.656696602859953
1621786777345.907,-0.0235585431434857,0.02287386946956734,0.019,0.186,-6.58,-6.659
1621786777350.586,-0.017,0.021,0.019,0.186,-6.591311575888736,-6.687423959925542
1621786777355.58,-0.016,0.017,0.016,0.186,-6.603385126443392,-6.717762625421856
1621786777360.573,-0.003,0.016,0.021,0.186,-6.615455725895546,-6.748093875327269
1621786777362.039,-0.002119113979756491,0.01482548530634199,0.019531856632927485,0.186,-6.619,-6.757
1621786777365.566,0.0,0.012,0.016,0.18184533179946719,-6.610471996851538,-6.761154668200533
1621786777370.561,0.0,0.01,0.014,0.17596103778154518,-6.59839370913054,-6.767038962218455
1621786777375.554,0.0,0.014,0.012,0.17007933216275128,-6.586320734439331,-6.772920667837249
1621786777378.168,0.006282221787600234,0.010335370623899862,0.01304703696460004,0.167,-6.58,-6.776
1621786777380.547,0.012,0.007,0.014,0.16980261863316432,-6.572772194051313,-6.764494512979641
1621786777385.541,0.009,0.002,0.009,0.1756853856050859,-6.557600847650042,-6.740344206463331
1621786777390.534,0.009,0.0,0.01,0.18156700219480815,-6.542432468023915,-6.716198622568682
1621786777394.297,0.00598592100117325,-0.0022605592491200628,0.009246480250293312,0.186,-6.531,-6.698
1621786777395.528,0.005,-0.003,0.009,0.186,-6.5295500968640265,-6.691971455382008
1621786777400.521,-0.002,-0.005,0.005,0.186,-6.523669103402349,-6.6675189036202935
1621786777405.514,-0.005,0.003,0.002,0.186,-6.51778810994067,-6.643066351858579
1621786777410.428,-0.008936632114218659,0.003,0.006920790142773323,0.186,-6.512,-6.619
1621786777410.507,-0.009,0.003,0.007,0.18619613481241581,-6.512240265145209,-6.619289298848313
1621786777415.5,-0.014,-0.003,0.007,0.19857623681462536,-6.527405890097916,-6.637549949301572
1621786777420.493,-0.019,-0.002,0.002,0.2109563388168349,-6.542571515050622,-6.655810599754831
1621786777425.486,-0.017,0.005,0.007,0.22333704617340377,-6.55773788156242,-6.674072143105771
1621786777426.56,-0.018290344659007578,0.002419310681984845,0.0059247127841603525,0.226,-6.561,-6.678
1621786777430.48,-0.023,-0.007,0.002,0.22113925890046016,-6.5704784451441025,-6.692339186243642
1621786777435.473,-0.019,-0.009,0.005,0.21494798982804553,-6.582551419835311,-6.710603430007266
1621786777440.466,-0.023,-0.007,0.002,0.20875641801889078,-6.594624984863163,-6.728868566844272
1621786777442.689,-0.01810268446530732,-0.0061095789936922405,0.00110957899369224,0.206,-6.6,-6.737
1621786777445.459,-0.012,-0.005,0.0,0.206,-6.5965647329538575,-6.737
1621786777450.452,-0.005,-0.009,-0.003,0.206,-6.590372714060797,-6.737
1621786777455.446,0.0,-0.017,0.0,0.206,-6.584179181300715,-6.737
1621786777458.816,0.0,-0.017,-0.0013501247126717856,0.206,-6.58,-6.737
1621786777460.438,0.0,-0.017,-0.002,0.20801147424350222,-6.576077625225171,-6.735089099468673
1621786777465.431,-0.002,-0.014,-0.007,0.21420302447737696,-6.564004102269115,-6.729207126746492
1621786777470.424,0.0,-0.009,-0.003,0.2203948774617399,-6.551929988949608,-6.723324866411347
1621786777474.944,0.002715857415285316,-0.018052858050951054,-0.0048105716101902105,0.226,-6.541,-6.718
1621786777475.417,0.003,-0.019,-0.005,0.22655711474417198,-6.540149666969422,-6.716827126854374
1621786777480.409,0.003,-0.017,-0.005,0.2324380260369361,-6.531173539206782,-6.704446260974871
1621786777485.403,-0.002,-0.023,-0.009,0.23832152588555858,-6.522193460490463,-6.692059945504087
1621786777490.395,0.005,-0.023,-0.005,0.24420243717832274,-6.513217332727823,-6.6796790796245835
1621786777491.072,0.0045931432483982985,-0.023135618917200566,-0.004728762165598865,0.245,-6.512,-6.678
1621786777495.387,0.002,-0.024,-0.003,0.2554342415985468,-6.519758795034817,-6.678
1621786777500.381,0.002,-0.024,-0.005,0.26751089918256127,-6.528738873751135,-6.678
1621786777505.373,0.0,-0.023,-0.005,0.2795822434150772,-6.537715001513775,-6.678
1621786777507.2,0.0007317979560901667,-0.021536404087819667,-0.0057317979560901665,0.284,-6.541,-6.678
1621786777510.366,0.002,-0.019,-0.007,0.284,-6.539036936118681,-6.68192612776264
1621786777515.358,0.0,-0.021,-0.002,0.284,-6.535941719648804,-6.688116560702392
1621786777520.351,0.005,-0.024,-0.005,0.284,-6.53284574629125,-6.6943085074174995
1621786777523.328,0.0038075888709598552,-0.019826561048359493,-0.006192411129040145,0.284,-6.531,-6.698
1621786777525.344,0.003,-0.017,-0.007,0.284,-6.5347501702971496,-6.695499886468567
1621786777530.336,0.01,-0.016,-0.005,0.284,-6.544035679145033,-6.689309547236645
1621786777535.328,0.007,-0.024,-0.007,0.284,-6.553321187992916,-6.683119208004723
1621786777539.456,0.007,-0.02317323489145316,-0.007,0.284,-6.561,-6.678
1621786777540.321,0.007,-0.023,-0.007,0.284,-6.561,-6.673816367930241
1621786777545.313,0.003,-0.019,-0.009,0.284,-6.561,-6.649672217512413
1621786777550.305,0.005,-0.014,-0.007,0.284,-6.561,-6.625528067094586
1621786777555.298,0.002,-0.019,-0.003,0.284,-6.561,-6.601378012595373
1621786777555.583,0.0017146280627964982,-0.018714628062796498,-0.0032282975497628015,0.284,-6.561,-6.6
1621786777560.29,-0.003,-0.014,-0.007,0.27845473811686344,-6.552244323342416,-6.611382379654859
1621786777565.282,-0.003,-0.01,-0.007,0.2725738268240993,-6.542958673932788,-6.623453723887375
1621786777570.275,-0.009,-0.017,-0.007,0.2666917650620648,-6.533671207992733,-6.635527429609446
1621786777571.711,-0.011876564945226917,-0.018150625978090768,-0.007,0.265,-6.531,-6.639
1621786777575.267,-0.019,-0.021,-0.007,0.2605895355174711,-6.531,-6.643410464482529
1621786777580.258,-0.023,-0.017,-0.003,0.2543995639798946,-6.531,-6.649600436020106
1621786777585.251,-0.023,-0.024,-0.009,0.24820717010839943,-6.531,-6.655792829891601
1621786777587.837,-0.026626155426223895,-0.022445933388761188,-0.006927911185014917,0.245,-6.531,-6.659
1621786777590.243,-0.03,-0.021,-0.005,0.2508195294046393,-6.53249218702683,-6.661835155350978
1621786777595.235,-0.03,-0.017,-0.01,0.2628943885894252,-6.535588304766519,-6.667717779056386
1621786777600.227,-0.028,-0.021,-0.009,0.27496865725879716,-6.5386842710919995,-6.673600115074798
1621786777603.961,-0.02650403482173424,-0.021,-0.0060080696434684795,0.284,-6.541,-6.678
1621786777605.219,-0.026,-0.021,-0.005,0.28556038032945735,-6.542560380329458,-6.6811207606589145
1621786777610.21,-0.023,-0.023,-0.009,0.291750726744186,-6.548750726744187,-6.693501453488372
1621786777615.203,-0.024,-0.023,-0.007,0.29794349563953487,-6.554943495639535,-6.70588699127907
1621786777620.086,-0.017153022300469487,-0.016153022300469486,-0.005043720657276995,0.304,-6.561,-6.718
1621786777620.195,-0.017,-0.016,-0.005,0.304,-6.560864635697413,-6.718128596087457
1621786777625.186,-0.019,-0.016,-0.01,0.304,-6.554673914360124,-6.724009781357883
1621786777630.179,-0.014,-0.017,-0.009,0.304,-6.548480770395494,-6.729893268124281
1621786777635.17,-0.016,-0.005,-0.01,0.304,-6.542290049058204,-6.735774453394707
1621786777636.21,-0.015583414824955994,-0.005,-0.009791707412477998,0.304,-6.541,-6.737
1621786777640.163,-0.014,-0.005,-0.009,0.3089031007751938,-6.541,-6.737
1621786777645.154,-0.014,-0.01,-0.007,0.3150934471899225,-6.541,-6.737
1621786777650.145,-0.014,-0.002,-0.01,0.32128379360465115,-6.541,-6.737
1621786777652.335,-0.014877390326209224,-0.004193475815523059,-0.007806524184476941,0.324,-6.541,-6.737
1621786777655.137,-0.016,-0.007,-0.005,0.3205244382532857,-6.544475561746714,-6.743777345406093
1621786777660.129,-0.012,-0.002,-0.01,0.31433250560232573,-6.550667494397675,-6.755851614075465
1621786777665.12,-0.005,-0.005,-0.007,0.308141481436618,-6.556858518563382,-6.767924111198595
1621786777668.459,-0.0063377023524233385,-0.0063377023524233385,-0.007,0.304,-6.561,-6.776
1621786777670.112,-0.007,-0.007,-0.007,0.30194967296511627,-6.56294781068314,-6.77405218931686
1621786777675.104,-0.003,-0.003,-0.007,0.2957581153100775,-6.5688297904554265,-6.768170209544573
1621786777680.096,0.002,-0.009,-0.007,0.28956655765503875,-6.574711770227713,-6.762288229772286
1621786777684.584,0.008294624076701071,-0.009899232010957297,-0.00879846402191459,0.284,-6.58,-6.757
1621786777685.087,0.009,-0.01,-0.009,0.284,-6.579407364787111,-6.755783538247229
1621786777690.078,0.01,-0.005,-0.01,0.284,-6.573526179516686,-6.7437116316395125
1621786777695.07,0.014,-0.009,-0.009,0.284,-6.567643555811277,-6.731636772454727
1621786777700.061,0.012,-0.012,-0.01,0.284,-6.561762370540851,-6.719564865847011
1621786777700.708,0.012518514895074108,-0.01070371276231473,-0.009870371276231473,0.284,-6.561,-6.718
1621786777705.052,0.016,-0.002,-0.009,0.28938822603113074,-6.5477988462237295,-6.707223547937739
1621786777710.044,0.016,-0.007,-0.012,0.2955801586820907,-6.532628611228877,-6.694839682635818
1621786777715.035,0.01,-0.009,-0.009,0.301770880019381,-6.517461343952516,-6.682458239961238
1621786777716.832,0.009639925646920707,-0.007559702587682825,-0.008279851293841413,0.304,-6.512,-6.678
1621786777720.026,0.009,-0.005,-0.007,0.304,-6.512,-6.678
1621786777725.018,0.009,-0.01,-0.01,0.304,-6.512,-6.678
1621786777730.008,0.005,-0.007,-0.007,0.304,-6.512,-6.678
1621786777732.954,0.0020486230005380816,-0.008180550799784768,-0.008180550799784768,0.304,-6.512,-6.678
1621786777734.999,0.0,-0.009,-0.009,0.30146331713078633,-6.5144098487257525,-6.683073365738427
1621786777739.991,-0.002,-0.005,-0.005,0.29527091567104286,-6.520292630112509,-6.695458168657915
1621786777744.982,-0.002,0.0,-0.007,0.28907972561668105,-6.526174260664153,-6.7078405487666375
1621786777749.077,-0.002820637017466608,-0.0016412740349332161,-0.003717451930133568,0.284,-6.531,-6.718
1621786777749.972,-0.003,-0.002,-0.003,0.2829453394706559,-6.5326652534673855,-6.719054660529344
1621786777754.964,-0.002,-0.005,-0.003,0.2770627157652474,-6.541953606686452,-6.724937284234753
1621786777759.955,-0.002,-0.005,-0.007,0.27118153049482163,-6.5512396886923865,-6.730818469505178
1621786777764.945,-0.002,-0.003,-0.005,0.26530149597238206,-6.5605239537278175,-6.736698504027618
1621786777765.201,-0.0018974910744852546,-0.0031025089255147455,-0.005,0.265,-6.561,-6.737
1621786777769.937,0.0,-0.005,-0.005,0.265,-6.555125787306202,-6.731419497940892
1621786777774.927,0.003,-0.012,-0.005,0.265,-6.5489366521317836,-6.725539819525194
1621786777779.919,0.0,-0.01,-0.003,0.265,-6.542745094476745,-6.719657839752907
1621786777781.326,0.0005639219139879642,-0.01,-0.004691765741963893,0.265,-6.541,-6.718
1621786777784.909,0.002,-0.01,-0.009,0.26922235009085405,-6.541,-6.709110841913992
1621786777789.9,0.007,-0.003,-0.005,0.27510389158086007,-6.541,-6.696728649303452
1621786777794.89,0.007,-0.005,-0.003,0.2809842822531799,-6.541,-6.68434887946699
1621786777797.449,0.0059747652582159624,-0.003974765258215962,-0.00761355633802817,0.284,-6.541,-6.678
1621786777799.882,0.005,-0.003,-0.012,0.28701835362529526,-6.539490823187353,-6.6751325640559696
1621786777804.872,0.005,0.0,-0.005,0.2932086134835544,-6.536395693258223,-6.669251817190623
1621786777809.863,0.005,-0.007,-0.005,0.29940008480222907,-6.533299957598885,-6.663369919437883
1621786777813.571,0.0012852810252898302,-0.007,-0.005,0.304,-6.531,-6.659
1621786777814.854,0.0,-0.007,-0.005,0.304,-6.529488204833141,-6.659
1621786777819.844,-0.003,-0.002,-0.002,0.304,-6.523608170310702,-6.659
1621786777824.835,0.0,0.0,-0.003,0.304,-6.517726985040276,-6.659
1621786777829.695,-0.004869856646606977,-0.006817799305249768,-7.808601203581353e-05,0.304,-6.512,-6.659
1621786777829.825,-0.005,-0.007,0.0,0.3035246763080185,-6.512153070341485,-6.659153070341485
1621786777834.815,-0.007,-0.003,0.0,0.2852631331869463,-6.518033906261831,-6.665033906261831
1621786777839.806,-0.005,0.0,0.0,0.2669980162035284,-6.523915893086999,-6.670915893086999
1621786777844.796,-0.009,-0.002,0.0,0.24873647308245628,-6.529796729007344,-6.676796729007345
1621786777845.817,-0.010431911563294854,-0.002,0.0,0.245,-6.531,-6.678
1621786777849.787,-0.016,-0.002,0.0,0.23539529319118002,-6.531,-6.687850981342379
1621786777854.778,-0.016,-0.003,-0.002,0.22332119275502785,-6.531,-6.700234674097407
1621786777859.768,-0.016,-0.003,0.0,0.21124945480978918,-6.531,-6.712615943784831
1621786777861.938,-0.016434854934194432,-0.002565145065805568,-0.0008697098683888645,0.206,-6.531,-6.718
1621786777864.758,-0.017,-0.002,-0.002,0.20949860673612794,-6.539571586503513,-6.721323676399321
1621786777869.748,-0.014,0.0,0.0,0.21568924157984007,-6.554738641870608,-6.727204779500848
1621786777874.738,-0.012,-0.005,0.002,0.22187987642355222,-6.569905697237703,-6.733085882602374
1621786777878.059,-0.012,-0.006331082733988943,0.0006689172660110571,0.226,-6.58,-6.737
1621786777879.728,-0.012,-0.007,0.0,0.226,-6.578032865342966,-6.74103780271707
1621786777884.719,-0.003,-0.005,0.0,0.226,-6.572150165841247,-6.753112817483757
1621786777889.709,0.0,-0.009,-0.005,0.226,-6.566268617383797,-6.765185469580626
1621786777894.179,0.006270512255981213,-0.005416850139439307,-0.0032084250697196537,0.226,-6.561,-6.776
1621786777894.699,0.007,-0.005,-0.003,0.226,-6.561,-6.77474189737687
1621786777899.689,0.007,-0.005,-0.005,0.226,-6.561,-6.762669428121403
1621786777904.679,0.012,-0.01,-0.007,0.226,-6.561,-6.750596958865936
1621786777909.669,0.012,-0.007,-0.005,0.226,-6.561,-6.738524489610469
1621786777910.299,0.012505112774597583,-0.007378834580948188,-0.005252556387298791,0.226,-6.561,-6.737
1621786777914.659,0.016,-0.01,-0.007,0.226,-6.552887029605512,-6.721044491557508
1621786777919.65,0.017,-0.012,-0.005,0.226,-6.543599681986825,-6.70277937457409
1621786777924.639,0.021,-0.007,-0.007,0.226,-6.534315968804422,-6.684521405315363
1621786777926.421,0.01850022016732717,-0.007714222809335094,-0.007,0.226,-6.531,-6.678
1621786777929.629,0.014,-0.009,-0.007,0.22202035253498092,-6.523239687443213,-6.6662600399781935
1621786777934.619,0.014,-0.016,-0.01,0.2158300926767218,-6.511168680719607,-6.6479987733963295
1621786777939.609,0.003,-0.016,-0.009,0.20963983281846266,-6.499097673996002,-6.629737506814465
1621786777942.543,-0.0005286518228529487,-0.014823782725715684,-0.010764325911426474,0.206,-6.492,-6.619
1621786777944.598,-0.003,-0.014,-0.012,0.2034504755558248,-6.494549524444175,-6.621549524444175
1621786777949.589,-0.003,-0.016,-0.009,0.19725795117222997,-6.50074204882777,-6.62774204882777
1621786777954.578,-0.012,-0.019,-0.012,0.19106845580662749,-6.506931544193372,-6.633931544193373
1621786777958.663,-0.015275360900415954,-0.017362319549792025,-0.010362319549792023,0.186,-6.512,-6.639
1621786777959.567,-0.016,-0.017,-0.01,0.1838134815465463,-6.513625872696157,-6.642307809968045
1621786777964.558,-0.017,-0.016,-0.012,0.1717386076236919,-6.522604625100332,-6.660574926928262
1621786777969.547,-0.023,-0.014,-0.014,0.1596690493858945,-6.531579424815617,-6.678834002211083
1621786777974.536,-0.021,-0.028,-0.016,0.1476000817797701,-6.540553785343248,-6.697092183974195
1621786777974.784,-0.020751455550662948,-0.027652037770928128,-0.01604970888986741,0.147,-6.541,-6.698
1621786777979.526,-0.016,-0.021,-0.017,0.15288254891271427,-6.558353519292507,-6.720941940759586
1621786777984.515,-0.014,-0.024,-0.017,0.15907159731055787,-6.576611212066146,-6.745079229511176
1621786777989.505,-0.005,-0.03,-0.021,0.16526185716881703,-6.59487247864801,-6.769221242958386
1621786777990.906,-0.0030345890410958904,-0.03028077299412916,-0.021561545988258317,0.167,-6.6,-6.776
1621786777994.495,0.002,-0.031,-0.023,0.167,-6.584637057567359,-6.7804530267920695
1621786777999.484,0.002,-0.037,-0.026,0.167,-6.563282975146531,-6.786642615899556
1621786778004.474,0.009,-0.03,-0.031,0.167,-6.541922622563496,-6.792834022445364
1621786778007.026,0.0079769991191152,-0.0335805030830968,-0.031,0.167,-6.531,-6.796
1621786778009.463,0.007,-0.037,-0.031,0.1728959532319622,-6.525104046768037,-6.775288574544133
1621786778014.452,0.007,-0.042,-0.033,0.18496605985339554,-6.513033940146604,-6.732888456412431
1621786778019.442,0.0,-0.04,-0.037,0.1970385291088629,-6.500961470891137,-6.6904800387714305
1621786778023.146,-0.006682065084413995,-0.041484903352092,-0.032545289943724,0.206,-6.492,-6.659
1621786778024.431,-0.009,-0.042,-0.031,0.20440561050606643,-6.493594389493934,-6.655811221012133
1621786778029.419,-0.017,-0.037,-0.037,0.1982161801905512,-6.499783819809449,-6.6434323603811025
1621786778034.409,-0.026,-0.033,-0.038,0.19202432633029884,-6.505975673669701,-6.631048652660597
1621786778039.264,-0.030865671641791045,-0.028134328358208956,-0.03508059701492538,0.186,-6.512,-6.619
1621786778039.398,-0.031,-0.028,-0.035,0.18502693490478858,-6.512241187074881,-6.619823362772871
1621786778044.387,-0.037,-0.033,-0.037,0.1488072896941419,-6.521218705973246,-6.6504707548741875
1621786778049.377,-0.037,-0.042,-0.035,0.11258055475602552,-6.5301979821544895,-6.68112414597567
1621786778054.365,-0.035,-0.049,-0.037,0.07636799927284847,-6.539173743769978,-6.71176553907682
1621786778055.38,-0.03276231954979203,-0.049,-0.03720342549547345,0.069,-6.541,-6.718
1621786778059.354,-0.024,-0.049,-0.038,0.07368523904744592,-6.541,-6.732302308671151
1621786778064.344,-0.028,-0.051,-0.042,0.07956812397745865,-6.541,-6.750260588983821
1621786778069.332,-0.019,-0.052,-0.045,0.085448706295825,-6.541,-6.768211840271466
1621786778071.496,-0.0176989578746514,-0.054602084250697194,-0.0436989578746514,0.088,-6.541,-6.776
1621786778074.322,-0.016,-0.058,-0.042,0.07765437578585387,-6.535914862674403,-6.776
1621786778079.31,-0.016,-0.058,-0.047,0.05939334353365348,-6.526939101058915,-6.776
1621786778084.299,-0.005,-0.068,-0.044,0.041128736119737615,-6.517961582160549,-6.776
1621786778087.612,-0.00632811353070712,-0.068,-0.04599217029606068,0.029,-6.512,-6.776
1621786778089.288,-0.007,-0.068,-0.047,0.0331609212819153,-6.507839078718084,-6.771943101750132
1621786778094.277,-0.012,-0.075,-0.051,0.04554670808394576,-6.495453291916054,-6.759866959618153
1621786778099.265,-0.012,-0.068,-0.051,0.05792946435336011,-6.4830705356466405,-6.7477937722554735
1621786778103.724,-0.018255443025588337,-0.06621273056411763,-0.051,0.069,-6.472,-6.737
1621786778104.255,-0.019,-0.066,-0.051,0.06705639906658181,-6.47331769554808,-6.73765884777404
1621786778109.243,-0.026,-0.07,-0.049,0.04879066278752614,-6.485701245567779,-6.7438506227838895
1621786778114.231,-0.028,-0.068,-0.049,0.030524926508470468,-6.498084795587477,-6.750042397793739
1621786778119.221,-0.031,-0.072,-0.047,0.012252038064066433,-6.510473194532836,-6.756236597266418
1621786778119.836,-0.031,-0.072,-0.04749317214037492,0.01,-6.512,-6.757
1621786778124.209,-0.031,-0.072,-0.051,0.01,-6.519870543493083,-6.7781690480158785
1621786778129.198,-0.031,-0.072,-0.052,0.01,-6.528849694692344,-6.802319868482856
1621786778134.186,-0.031,-0.073,-0.052,0.01,-6.537827088289217,-6.826465961605479
1621786778135.949,-0.03170686701580931,-0.073,-0.05412060104742793,0.01,-6.541,-6.835
1621786778139.174,-0.033,-0.073,-0.058,0.01780508127925826,-6.541,-6.839002605784235
1621786778144.164,-0.024,-0.072,-0.059,0.029881391367582222,-6.541,-6.845195585316709
1621786778149.152,-0.021,-0.068,-0.061,0.04195297468450316,-6.541,-6.851386140863848
1621786778152.064,-0.016913411649535,-0.06624860499265786,-0.056913411649535,0.049,-6.541,-6.855
1621786778154.14,-0.014,-0.065,-0.054,0.054024271624017094,-6.541,-6.855
1621786778159.129,-0.01,-0.07,-0.056,0.0660989500477251,-6.541,-6.855
1621786778164.117,-0.003,-0.066,-0.058,0.07817126494250261,-6.541,-6.855
1621786778168.178,-0.0005575351182027315,-0.05623014047281093,-0.04904429543341002,0.088,-6.541,-6.855
1621786778169.105,0.0,-0.054,-0.047,0.0913939279167361,-6.541,-6.852756556122836
1621786778174.094,0.0,-0.056,-0.049,0.10965964215916493,-6.541,-6.840682609420213
1621786778179.082,0.002,-0.052,-0.045,0.1279217810232248,-6.541,-6.828611026103292
1621786778184.07,0.003,-0.049,-0.037,0.14618391988728469,-6.541,-6.816539442786371
1621786778184.293,0.003,-0.048776565023738436,-0.03704468699525231,0.147,-6.541,-6.816
1621786778189.058,0.003,-0.044,-0.038,0.15291391822079475,-6.532424818579848,-6.810086081779205
1621786778194.046,0.0,-0.031,-0.028,0.15910417076976685,-6.523448952383838,-6.803895829230234
1621786778199.035,0.0,-0.035,-0.023,0.16529593830957323,-6.514470889451118,-6.797704061690427
1621786778200.408,0.0,-0.03197145934302639,-0.02189871248837323,0.167,-6.512,-6.796
1621786778204.022,0.0,-0.024,-0.019,0.16251444631304637,-6.516261276002606,-6.800485553686954
1621786778209.01,0.005,-0.007,-0.017,0.15632351559777585,-6.522142660182112,-6.8066764844022245
1621786778213.999,0.005,0.0,-0.014,0.15013137281638714,-6.528025195824432,-6.8128686271836125
1621786778216.522,0.011069600117468553,0.0025290000489452302,-0.011976799960843816,0.147,-6.531,-6.816
1621786778218.987,0.017,0.005,-0.01,0.14394044210111662,-6.531,-6.816
1621786778223.974,0.023,0.012,-0.01,0.1377507234519643,-6.531,-6.816
1621786778228.963,0.026,0.021,-0.003,0.13155888368710514,-6.531,-6.816
1621786778232.636,0.031155676310765164,0.02468262593626083,-0.004473050374504333,0.127,-6.531,-6.816
1621786778233.95,0.033,0.026,-0.005,0.12381929354002819,-6.531,-6.811188162022094
1621786778238.938,0.028,0.026,0.0,0.11174478337955175,-6.531,-6.792921595369065
1621786778243.926,0.035,0.04,0.0,0.09967027321907533,-6.531,-6.774655028716037
1621786778248.747,0.035,0.0448326073124174,0.0,0.088,-6.531,-6.757
1621786778248.914,0.035,0.045,0.0,0.08719151386573723,-6.531,-6.7563884527958775
1621786778253.901,0.03,0.058,0.01,0.06304803758145172,-6.531,-6.738126079709047
1621786778258.889,0.035,0.054,0.007,0.03889865131080466,-6.531,-6.719859236247917
1621786778263.877,0.035,0.061,0.009,0.014749265040157597,-6.531,-6.701592392786786
1621786778264.858,0.03421335225882238,0.06178664774117762,0.009983309676472027,0.01,-6.531,-6.698
1621786778268.865,0.031,0.065,0.014,-0.009649734038522739,-6.533487308106142,-6.693025383787716
1621786778273.852,0.028,0.072,0.017,-0.03410505099489293,-6.536582917847455,-6.686834164305091
1621786778278.84,0.024,0.075,0.012,-0.058565156773303824,-6.5396791337687725,-6.680641732462455
1621786778280.968,0.023573372491434166,0.07372011747430249,0.014986392559960843,-0.069,-6.541,-6.678
1621786778283.828,0.023,0.072,0.019,-0.08284675537235171,-6.539224774952263,-6.6572298669414725
1621786778288.815,0.021,0.073,0.017,-0.10699287727699815,-6.536129118297821,-6.621010684084503
1621786778293.803,0.021,0.075,0.017,-0.13114372745733943,-6.533032855454187,-6.584784408813991
1621786778297.078,0.017716600577666813,0.07302996034660009,0.016343320115533362,-0.147,-6.531,-6.561
1621786778298.79,0.016,0.072,0.016,-0.14072994802321528,-6.524729948023215,-6.557811837977906
1621786778303.777,0.009,0.073,0.019,-0.1224669576154324,-6.506466957615433,-6.548525571668864
1621786778308.765,0.003,0.072,0.021,-0.10420128502371534,-6.488201285023716,-6.539237941537482
1621786778313.189,-0.004095492144290539,0.07466080955410895,0.019226126963927365,-0.088,-6.472,-6.531
1621786778313.753,-0.005,0.075,0.019,-0.08870694087403598,-6.47062146529563,-6.530328406169666
1621786778318.69,-0.017,0.066,0.019,-0.09489558085444974,-6.458553617333823,-6.524449198188273
1621786778323.627,-0.021,0.079,0.024,-0.1010842208348635,-6.446485769372016,-6.518569990206879
1621786778328.564,-0.03,0.075,0.024,-0.10727286081527726,-6.434417921410209,-6.512690782225486
1621786778329.144,-0.03176278563656148,0.075,0.02447007616974973,-0.108,-6.433,-6.512
1621786778333.5,-0.045,0.075,0.028,-0.12411694097833575,-6.433,-6.512
1621786778338.438,-0.056,0.075,0.028,-0.14238738421495828,-6.433,-6.512
1621786778343.373,-0.065,0.07,0.03,-0.16064698767511293,-6.433,-6.512
1621786778345.09,-0.06778341743346196,0.06930414564163452,0.030347927179182745,-0.167,-6.433,-6.512
1621786778348.308,-0.073,0.068,0.031,-0.16296256930192668,-6.440872989861243,-6.525727264373449
1621786778353.244,-0.08,0.073,0.038,-0.15676996354948386,-6.452948571078506,-6.546782123931755
1621786778358.179,-0.089,0.07,0.031,-0.1505782767176157,-6.46502236040065,-6.567833859160107
1621786778361.031,-0.09131212271152894,0.07173409203364671,0.03446818406729342,-0.147,-6.472,-6.58
1621786778363.113,-0.093,0.073,0.037,-0.144387334946846,-6.474612665053154,-6.590320026959958
1621786778368.048,-0.098,0.075,0.031,-0.13819450997212096,-6.480805490027879,-6.614781685610122
1621786778372.981,-0.099,0.066,0.033,-0.13200444226586194,-6.486995557734138,-6.639232453049845
1621786778376.969,-0.10061620658949244,0.06923241317898488,0.03704051647373108,-0.127,-6.492,-6.659
1621786778377.916,-0.101,0.07,0.038,-0.1258707596604664,-6.492,-6.667142417185058
1621786778382.849,-0.101,0.075,0.037,-0.1199884625992094,-6.492,-6.7095568749425425
1621786778387.781,-0.099,0.079,0.038,-0.11410762111972543,-6.492,-6.7519608371893485
1621786778392.715,-0.096,0.079,0.037,-0.10822415959304998,-6.492,-6.794383691355376
1621786778392.903,-0.0962668713175224,0.07892375105213646,0.03692375105213645,-0.108,-6.492,-6.796
1621786778397.646,-0.103,0.077,0.035,-0.10204636766215656,-6.497953632337843,-6.813563215396639
1621786778402.578,-0.099,0.084,0.037,-0.09585553393297681,-6.504144466067023,-6.831826174897719
1621786778407.51,-0.098,0.082,0.026,-0.08966439374205114,-6.510335606257948,-6.85009003846095
1621786778408.836,-0.09692439471208596,0.08334450660989257,0.025462197356042975,-0.088,-6.512,-6.855
1621786778412.441,-0.094,0.087,0.024,-0.07464652595760335,-6.523090173357244,-6.868353474042397
1621786778417.373,-0.087,0.091,0.016,-0.05637706350301191,-6.538263116751736,-6.886622936496988
1621786778422.303,-0.087,0.087,0.01,-0.03811574010208304,-6.553429300593185,-6.9048842598979165
1621786778424.764,-0.0845045798881022,0.09049358815665692,0.009500915977620438,-0.029,-6.561,-6.914
1621786778427.234,-0.082,0.094,0.009,-0.024502383762819435,-6.567048518387932,-6.907796391396992
1621786778432.163,-0.073,0.094,0.003,-0.015526711940275629,-6.579119249459629,-6.89541615440038
1621786778437.094,-0.068,0.099,0.0,-0.006547928195851791,-6.591194165529716,-6.883031625097726
1621786778440.69,-0.0643522215067611,0.10045911139729556,-0.006566001287830006,0.0,-6.6,-6.874
1621786778442.023,-0.063,0.101,-0.009,0.0008370510049211241,-6.60159039690935,-6.869145104171457
1621786778446.952,-0.054,0.098,-0.012,0.0039321467445461375,-6.607471078814638,-6.851193548881632
1621786778451.881,-0.049,0.106,-0.016,0.007027395790216009,-6.61335205200141,-6.833241104416747
1621786778456.615,-0.03747262818924944,0.10503938568243745,-0.016960614317562548,0.01,-6.619,-6.816
1621786778456.809,-0.037,0.105,-0.017,0.010719401840490798,-6.618524463190184,-6.816231671779141
1621786778461.738,-0.037,0.119,-0.026,0.028988588957055215,-6.606448220858896,-6.8221149693251535
1621786778466.665,-0.03,0.124,-0.03,0.04725053680981595,-6.594376763803681,-6.827995935582822
1621786778471.593,-0.03,0.119,-0.035,0.06551610429447853,-6.5823029141104294,-6.833878067484663
1621786778472.533,-0.028664585501214014,0.12033541449878599,-0.03557232049947971,0.069,-6.58,-6.835
1621786778476.52,-0.023,0.126,-0.038,0.1033214548689943,-6.5752400902006505,-6.849780772534823
1621786778481.446,-0.021,0.136,-0.04,0.14572571638951953,-6.569359207216052,-6.868042461802786
1621786778486.372,-0.012,0.145,-0.044,0.18812997791004477,-6.563478324231453,-6.88630415107075
1621786778488.448,-0.008207967890590159,0.14710668450522768,-0.04610668450522769,0.206,-6.561,-6.894
1621786778491.299,-0.003,0.15,-0.049,0.23412896594047253,-6.567987450138079,-6.883429242098804
1621786778496.225,-0.005,0.162,-0.049,0.2827295949677815,-6.580060217858239,-6.865165311445229
1621786778501.151,0.0,0.169,-0.044,0.33132781528076094,-6.592132387235348,-6.8469022859772934
1621786778504.361,0.0013036236553809546,0.1774735537599762,-0.04269637634461904,0.363,-6.6,-6.835
1621786778506.076,0.002,0.182,-0.042,0.39361270966652856,-6.579950830993048,-6.839203858017586
1621786778511.0,0.012,0.188,-0.044,0.4815152924205454,-6.522380829611896,-6.8512749873394405
1621786778515.925,0.026,0.201,-0.049,0.5694353083805227,-6.4647994107085305,-6.863348510657889
1621786778520.27,0.03394154395359215,0.2098239377262135,-0.0507647875452427,0.647,-6.414,-6.874
1621786778520.849,0.035,0.211,-0.051,0.6645110428977055,-6.411123965927404,-6.866864523060394
1621786778525.773,0.035,0.225,-0.044,0.813399201903154,-6.386670401350625,-6.8061949198066145
1621786778530.697,0.044,0.239,-0.037,0.9622947433044278,-6.362215624280561,-6.745522308341647
1621786778535.62,0.04,0.255,-0.03,1.1111607551224003,-6.337765697183639,-6.684861729721433
1621786778536.177,0.040565611981749655,0.2568099583415989,-0.02796379686570125,1.128,-6.335,-6.678
1621786778540.543,0.045,0.271,-0.012,1.184562229387379,-6.291891893136803,-6.616220865960387
1621786778545.466,0.031,0.279,0.0,1.2483422078919084,-6.24328288039306,-6.5465582680792265
1621786778550.387,0.017,0.295,0.005,1.3120937202518042,-6.194695562720712,-6.476926761860894
1621786778552.078,0.01013067195636003,0.298091197619638,0.011182395239275972,1.334,-6.178,-6.453
1621786778555.31,-0.003,0.304,0.023,1.3896952296141623,-6.168039904193088,-6.424949117931553
1621786778560.231,-0.021,0.311,0.044,1.4744896285946785,-6.152875942331608,-6.382242449831877
1621786778565.152,-0.045,0.321,0.059,1.5592882344812764,-6.137711228140209,-6.339533662925489
1621786778567.979,-0.057061458333333336,0.3278922619047619,0.07106145833333333,1.608,-6.129,-6.315
1621786778570.074,-0.066,0.333,0.08,1.6326436557422368,-6.135457428509998,-6.325410956169181
1621786778574.994,-0.091,0.34,0.096,1.6905179070553185,-6.150622339281875,-6.349860506189145
1621786778579.915,-0.106,0.351,0.113,1.7484065177995516,-6.165791012685444,-6.374316122492859
1621786778583.876,-0.11888385944014294,0.3566366885050625,0.12185765336509827,1.795,-6.178,-6.394
1621786778584.834,-0.122,0.358,0.124,1.791443795889527,-6.1945755276335595,-6.406416577063685
1621786778589.754,-0.141,0.375,0.138,1.7731806396116863,-6.279700408589598,-6.470182851525299
1621786778594.674,-0.152,0.394,0.141,1.7549165770636845,-6.364829513686216,-6.53395229025222
1621786778599.592,-0.161,0.405,0.155,1.736660670947129,-6.4499206015176185,-6.597693250591379
1621786778599.77,-0.161434187016081,0.40536182251340086,0.15489145324597975,1.736,-6.453,-6.6
1621786778604.511,-0.173,0.415,0.152,1.5721782042810823,-6.561319329409776,-6.658486469874149
1621786778609.43,-0.166,0.408,0.148,1.4022064477465157,-6.673705026353397,-6.719168554174286
1621786778614.347,-0.161,0.396,0.129,1.2323021804938765,-6.786046099236289,-6.779826543940255
1621786778615.658,-0.15860077442414616,0.39546683876092137,0.12526787132644956,1.187,-6.816,-6.796
1621786778619.265,-0.152,0.394,0.115,1.0466650527966064,-6.949522571125559,-6.782602327046925
1621786778624.183,-0.145,0.38,0.094,0.8553121685802554,-7.131586480379951,-6.76433400962174
1621786778629.099,-0.127,0.363,0.073,0.6640447733665329,-7.313569050583299,-6.746073853768002
1621786778631.542,-0.11010804369414101,0.35157308838133067,0.0645540218470705,0.569,-7.404,-6.737
1621786778634.016,-0.093,0.34,0.056,0.4879890697781672,-7.407115805008532,-6.7614590693169765
1621786778638.933,-0.052,0.323,0.035,0.32699043797752464,-7.413308060077788,-6.810068271610632
1621786778643.849,-0.017,0.298,0.012,0.16602378207197654,-7.419499085304924,-6.858667819643653
1621786778647.423,-0.00609436304941644,0.2805509808790663,-0.014173528681400548,0.049,-7.424,-6.894
1621786778648.765,-0.002,0.274,-0.024,0.017474995386602694,-7.420619302454328,-6.874138401919174
1621786778653.68,0.005,0.25,-0.059,-0.09800196838285045,-7.408235713846343,-6.801384818847266
1621786778658.595,0.009,0.22,-0.096,-0.21347893215230362,-7.395852125238359,-6.728631235775358
1621786778663.299,0.013785416252731969,0.19607291873634017,-0.13619749652294855,-0.324,-7.384,-6.659
1621786778663.51,0.014,0.195,-0.138,-0.3224320866141732,-7.386086122047244,-6.656515255905512
1621786778668.424,0.019,0.161,-0.168,-0.28590551181102364,-7.434685039370079,-6.5986299212598425
1621786778673.338,0.038,0.122,-0.201,-0.24938075172244095,-7.483281542199803,-6.540747462475394
1621786778678.252,0.051,0.094,-0.237,-0.21285417691929132,-7.531880459522638,-6.4828621278297245
1621786778679.174,0.052501192368839426,0.09043466812400636,-0.24075298092209857,-0.206,-7.541,-6.472
1621786778683.166,0.059,0.075,-0.257,-0.136834397255849,-7.484409961391149,-6.422703788589623
1621786778688.078,0.065,0.045,-0.281,-0.0517299533925028,-7.4147790527756845,-6.36204753041793
1621786778692.992,0.073,0.035,-0.309,0.03341256095122366,-7.345116995585363,-6.301364138376583
1621786778695.046,0.07592698807157057,0.022455765407554673,-0.31861724652087475,0.069,-7.316,-6.276
1621786778697.904,0.08,0.005,-0.332,0.15545169230769232,-7.250620907692308,-6.2318736153846155
1621786778702.817,0.087,0.002,-0.351,0.30405230769230773,-7.138241692307693,-6.1560253846153845
1621786778707.728,0.084,0.005,-0.372,0.4526012307692308,-7.025901569230769,-6.0802035384615385
1621786778710.915,0.08075515784240617,0.003702063136962466,-0.3771917474521501,0.549,-6.953,-6.031
1621786778712.639,0.079,0.003,-0.38,0.6257228318584072,-6.918876814159292,-5.997963539823009
1621786778717.551,0.07,0.007,-0.389,0.84434106964217,-6.8216443401308196,-5.903827641400539
1621786778722.462,0.054,0.005,-0.393,1.0629049788380147,-6.724436029242017,-5.809715136590997
1621786778726.778,0.043453768144760395,0.0032422946907933983,-0.3877268840723802,1.255,-6.639,-5.727
1621786778727.373,0.042,0.003,-0.387,1.2774348963945934,-6.630558776440162,-5.723323378182826
1621786778732.283,0.021,0.002,-0.38,1.4625757258536285,-6.560898765356076,-5.692982573355091
1621786778737.192,-0.005,0.01,-0.372,1.6476797315188274,-6.491252609378368,-5.662647803195911
1621786778742.103,-0.031,0.016,-0.36,1.8328665907201578,-6.421575279411312,-5.6322994550324825
1621786778742.637,-0.033502163856140875,0.01534726160274586,-0.35825936427398897,1.853,-6.414,-5.629
1621786778747.011,-0.054,0.01,-0.344,1.9316200843777906,-6.386689865426662,-5.669551411942228
1621786778751.92,-0.08,0.012,-0.328,2.0198548486434884,-6.356039894681736,-5.715061974563484
1621786778756.828,-0.099,0.016,-0.312,2.1080720598651186,-6.325396021310012,-5.760563483509377
1621786778758.493,-0.10374835886214442,0.018713347921225382,-0.30860831509846826,2.138,-6.315,-5.776
1621786778761.737,-0.113,0.024,-0.302,2.1660354821819077,-6.359201928111621,-5.796054578495087
1621786778766.645,-0.126,0.023,-0.286,2.2084494871715896,-6.4260736440077615,-5.826394523670188
1621786778771.553,-0.134,0.031,-0.271,2.2508634921612716,-6.492945359903902,-5.856734468845289
1621786778774.346,-0.13343081745360466,0.034415095278372054,-0.2630314443504652,2.275,-6.531,-5.874
1621786778776.46,-0.133,0.037,-0.257,2.2671318188818725,-6.550603773294316,-5.894937363314338
1621786778781.367,-0.129,0.044,-0.239,2.2488684429385493,-6.5961074387802245,-5.943536516248267
1621786778786.274,-0.124,0.047,-0.223,2.2306050669952255,-6.641611104266133,-5.992135669182196
1621786778790.198,-0.12240029858173675,0.050999253545658124,-0.2134017914904205,2.216,-6.678,-6.031
1621786778791.18,-0.122,0.052,-0.211,2.202058173750944,-6.6853117133217275,-6.035895130105224
1621786778796.085,-0.117,0.056,-0.199,2.1324149039424425,-6.7218357392657415,-6.060347655949098
1621786778800.992,-0.11,0.059,-0.185,2.0627439030026653,-6.7583743086474914,-6.0848099185012865
1621786778805.897,-0.101,0.056,-0.176,1.9931006331941643,-6.7948983345915055,-6.109262444345161
1621786778806.045,-0.10093967448111095,0.055879348962221895,-0.17575869792444376,1.991,-6.796,-6.11
1621786778810.802,-0.099,0.052,-0.168,1.8967172576394988,-6.789994729785955,-6.103994729785955
1621786778815.707,-0.099,0.056,-0.161,1.7995022421524665,-6.783802690582959,-6.097802690582959
1621786778820.611,-0.096,0.056,-0.157,1.7023065816035627,-6.777611884178571,-6.091611884178571
1621786778821.888,-0.09678114109329881,0.05547923927113412,-0.1556980981778353,1.677,-6.776,-6.09
1621786778825.515,-0.099,0.054,-0.152,1.6073921949415084,-6.767070051324733,-6.076490590465622
1621786778830.419,-0.103,0.054,-0.152,1.5132745333764892,-6.754995746058168,-6.058224333780306
1621786778835.323,-0.103,0.054,-0.148,1.4191568718114702,-6.742921440791603,-6.039958077094989
1621786778837.728,-0.10741462928845291,0.04713279888462879,-0.14996205746153463,1.373,-6.737,-6.031
1621786778840.226,-0.112,0.04,-0.152,1.346656512086828,-6.727693019240257,-6.027845091267883
1621786778845.128,-0.117,0.03,-0.154,1.294963338677849,-6.709430161568821,-6.021654292057227
1621786778850.031,-0.126,0.026,-0.154,1.2432572921805625,-6.691162755920079,-6.015461951159349
1621786778853.564,-0.12960351611136015,0.014468748443647591,-0.154,1.206,-6.678,-6.011
1621786778854.933,-0.131,0.01,-0.154,1.1924252852297255,-6.669526611162504,-6.017830588960839
1621786778859.835,-0.143,-0.003,-0.161,1.1438245143385752,-6.6391898242368175,-6.042285753931545
1621786778864.736,-0.148,-0.007,-0.168,1.0952310052420597,-6.608857570151095,-6.066737264878199
1621786778869.399,-0.15846572681080004,-0.023174305071236426,-0.17275714855036364,1.049,-6.58,-6.09
1621786778869.637,-0.159,-0.024,-0.173,1.049300721732157,-6.58,-6.092210304731355
1621786778874.538,-0.166,-0.047,-0.182,1.0554925050891368,-6.58,-6.137719912405157
1621786778879.438,-0.173,-0.065,-0.185,1.0616827462833878,-6.58,-6.1832181851829
1621786778884.338,-0.178,-0.075,-0.19,1.0678729874776385,-6.58,-6.228716457960644
1621786778885.23,-0.17927412204234122,-0.07827631382316314,-0.19127412204234123,1.069,-6.58,-6.237
1621786778889.239,-0.185,-0.093,-0.197,1.0391081714823442,-6.60001232587199,-6.261825416904494
1621786778894.138,-0.183,-0.115,-0.202,1.0025811980315629,-6.624466825046666,-6.29216137790599
1621786778899.037,-0.187,-0.145,-0.22,0.966052404239236,-6.648922542924579,-6.322498850716567
1621786778901.056,-0.18906045051330608,-0.15282971195056314,-0.2241209010266122,0.951,-6.659,-6.335
1621786778903.936,-0.192,-0.164,-0.23,0.9402600644992053,-6.698137053096116,-6.338640656101965
1621786778908.834,-0.178,-0.183,-0.239,0.9219957103399324,-6.764693597913805,-6.344831962596634
1621786778913.733,-0.166,-0.206,-0.25,0.9037277145987316,-6.831263412902927,-6.351024503525854
1621786778916.878,-0.1538005283357424,-0.22076778148831183,-0.25513661964810846,0.892,-6.874,-6.355
1621786778918.631,-0.147,-0.229,-0.258,0.9028609923605216,-6.880538760706845,-6.359322231653677
1621786778923.528,-0.131,-0.241,-0.271,0.933197962805772,-6.898802855158577,-6.371395107647196
1621786778928.426,-0.108,-0.262,-0.278,0.9635409831005479,-6.917070591866656,-6.3834703912338915
1621786778932.697,-0.08706372793457665,-0.27595751471028224,-0.2849787573551411,0.99,-6.933,-6.394
1621786778933.322,-0.084,-0.278,-0.286,1.00667623722639,-6.932249174153314,-6.391668488160292
1621786778938.219,-0.068,-0.295,-0.29,1.1373371615572228,-6.926366336327992,-6.37340072859745
1621786778943.115,-0.051,-0.311,-0.293,1.267972029267389,-6.9204846716680555,-6.355136612021858
1621786778948.011,-0.031,-0.323,-0.29,1.3986068969775554,-6.914603007008119,-6.336872495446266
1621786778948.513,-0.03017981450084771,-0.3240252318739404,-0.28928233768824174,1.412,-6.914,-6.335
1621786778952.907,-0.023,-0.333,-0.283,1.496474170140497,-6.927615902423962,-6.2860939014976065
1621786778957.802,-0.019,-0.337,-0.283,1.5905794658020689,-6.942784190211517,-6.231611888219855
1621786778962.697,-0.019,-0.347,-0.272,1.6846847614636404,-6.957952477999074,-6.177129874942103
1621786778964.326,-0.019,-0.347,-0.26967062344139653,1.716,-6.963,-6.159
1621786778967.592,-0.019,-0.347,-0.265,1.7443003304406905,-6.98716889533986,-6.159
1621786778972.486,-0.019,-0.367,-0.264,1.7867064019023502,-7.023384299434854,-6.159
1621786778977.38,-0.014,-0.372,-0.255,1.8291103579259442,-7.059597896914857,-6.159
1621786778980.137,-0.008929811433702483,-0.37087329142971165,-0.2527465828594233,1.853,-7.08,-6.159
1621786778982.274,-0.005,-0.37,-0.251,1.853,-7.0959514131274135,-6.169544154440154
1621786778987.167,0.005,-0.384,-0.246,1.853,-7.132475830115831,-6.193687413127413
1621786778992.061,0.028,-0.391,-0.243,1.853,-7.169007536679537,-6.217835490347491
1621786778995.945,0.040703698158406944,-0.4005277736188052,-0.24379398113490042,1.853,-7.198,-6.237
1621786778996.953,0.044,-0.403,-0.244,1.855550785534426,-7.203037801430492,-6.2301128790570495
1621786779001.845,0.07,-0.414,-0.244,1.8679327236494523,-7.227492129207668,-6.196681646146478
1621786779006.737,0.101,-0.421,-0.241,1.8803146617644788,-7.251946456984846,-6.163250413235907
1621786779011.629,0.126,-0.435,-0.246,1.8926959819566527,-7.2763995643643895,-6.129820848717038
1621786779011.749,0.12646660676849356,-0.43512279125486675,-0.24592632524707997,1.893,-7.277,-6.129
1621786779016.52,0.145,-0.44,-0.243,1.9047772008715405,-7.259183208937926,-6.034178434008623
1621786779021.411,0.171,-0.454,-0.241,1.9168503082842705,-7.240918764390463,-5.936974440993309
1621786779026.302,0.183,-0.478,-0.236,1.9289240183579806,-7.222653408125106,-5.839765595784464
1621786779027.548,0.18580243585903963,-0.48029290206648695,-0.234471398622342,1.932,-7.218,-5.815
1621786779031.193,0.194,-0.487,-0.23,1.983920401854714,-7.186155486862442,-5.731235085007729
1621786779036.083,0.201,-0.49,-0.22,2.053573029366306,-7.143435208655332,-5.618862179289026
1621786779040.972,0.195,-0.501,-0.213,2.123211746522411,-7.100723462132922,-5.50651171561051
1621786779043.344,0.1901492760858712,-0.5034253619570644,-0.20426869695456815,2.157,-7.08,-5.452
1621786779045.862,0.185,-0.506,-0.195,2.19766280148423,-7.067561966604824,-5.50685491651206
1621786779050.751,0.152,-0.497,-0.176,2.276611085343228,-7.043413079777365,-5.613357699443414
1621786779055.64,0.12,-0.49,-0.159,2.355559369202226,-7.019264192949907,-5.719860482374768
1621786779059.135,0.09139946059334732,-0.46640455498951155,-0.14112466287084208,2.412,-7.002,-5.796
1621786779060.528,0.08,-0.457,-0.134,2.3930294117647057,-6.998558823529412,-5.9266764705882355
1621786779065.416,0.033,-0.431,-0.108,2.326466119255273,-6.98648455186491,-6.385189197129956
1621786779070.303,-0.005,-0.403,-0.086,2.2599161254407125,-6.9744126925218035,-6.843610317313045
1621786779074.923,-0.039972678687378256,-0.36897252884471304,-0.06615064182608262,2.197,-6.963,-7.277
1621786779075.191,-0.042,-0.367,-0.065,2.19050204921202,-6.96898897291947,-7.2974609103141095
1621786779080.078,-0.075,-0.326,-0.059,2.071933698325059,-7.078269985616852,-7.670811905535192
1621786779084.965,-0.093,-0.29,-0.054,1.9533594240554293,-7.187556457724369,-8.044181552452095
1621786779089.852,-0.086,-0.251,-0.049,1.8347910731684685,-7.296837470421751,-8.41753254767318
1621786779090.709,-0.07880917403687603,-0.24468610403237895,-0.05022770199370409,1.814,-7.316,-8.483
1621786779094.738,-0.045,-0.215,-0.056,1.8290633054347996,-7.3885081142963225,-8.673206144897044
1621786779099.624,0.038,-0.183,-0.063,1.8473304042451153,-7.476437878061232,-8.90386696885781
1621786779104.509,0.148,-0.175,-0.054,1.865593852008849,-7.564350067296833,-9.134481690620214
1621786779106.49,0.19990624219101405,-0.17540551751711728,-0.05562207006846919,1.873,-7.6,-9.228
1621786779109.394,0.276,-0.176,-0.058,1.854964724994198,-7.452037131585055,-9.14316059410536
1621786779114.28,0.391,-0.164,-0.059,1.8246208865165932,-7.203093803666744,-9.000420700858667
1621786779119.164,0.48,-0.159,-0.051,1.794289177690106,-6.95424998839638,-8.857737866481008
1621786779122.27,0.5143339497226248,-0.16790139437253235,-0.04273441951121995,1.775,-6.796,-8.767
1621786779124.049,0.534,-0.173,-0.038,1.7064408801819786,-6.696431409869551,-8.607780465159463
1621786779128.932,0.55,-0.18,-0.026,1.5182725809696238,-6.4231540937437135,-8.170784349225508
1621786779133.815,0.539,-0.202,-0.012,1.3300948733423086,-6.14986311375207,-7.733766383485756
1621786779138.047,0.4982729317670582,-0.22193026743314173,-0.009400399900024992,1.167,-5.913,-7.355
1621786779138.699,0.492,-0.225,-0.009,1.1390230614455967,-5.905313573750194,-7.325411391425476
1621786779143.582,0.431,-0.241,-0.005,0.929447500386937,-5.847734468348553,-7.103762792137441
1621786779148.465,0.372,-0.257,0.007,0.7198719393282773,-5.790155362946913,-6.8821141928494045
1621786779153.347,0.307,-0.29,0.014,0.5103487695403188,-5.732590651601919,-6.660521002940722
1621786779153.821,0.30146446967045054,-0.29184517677651645,0.014971145671850778,0.49,-5.727,-6.639
1621786779158.229,0.25,-0.309,0.024,0.2898020844625463,-5.71050324439007,-6.7047074164124325
1621786779163.111,0.208,-0.347,0.031,0.06807083455933594,-5.692232093909219,-6.777482337819213
1621786779167.992,0.173,-0.382,0.03,-0.15360497421522923,-5.673965511901259,-6.850239062766171
1621786779169.586,0.1648342588423633,-0.3950651858522187,0.02869348141477813,-0.226,-5.668,-6.874
1621786779172.872,0.148,-0.422,0.026,-0.3608626382135225,-5.639443305355097,-6.929237402050361
1621786779177.754,0.145,-0.457,0.017,-0.561212810109332,-5.597019853191687,-7.011297364264255
1621786779182.634,0.157,-0.496,0.005,-0.7614928454176604,-5.5546112522067705,-7.093328599746028
1621786779185.351,0.16201105663398038,-0.5093628176906144,0.0005457274364618772,-0.873,-5.531,-7.139
1621786779187.514,0.166,-0.52,-0.003,-0.8702554486732654,-5.539096426413867,-7.0812271945722385
1621786779192.394,0.182,-0.543,-0.014,-0.8640627817277754,-5.557364793903062,-6.950871555369673
1621786779197.272,0.182,-0.555,-0.014,-0.8578729030159394,-5.575624936102979,-6.820574608485525
1621786779201.112,0.17334428935914753,-0.555,-0.021868827855320426,-0.853,-5.59,-6.718
1621786779202.152,0.171,-0.555,-0.024,-0.831683170924414,-5.596467644735007,-6.7056586779036085
1621786779207.031,0.154,-0.548,-0.019,-0.7316842243876744,-5.626807882383925,-6.647764550961285
1621786779211.908,0.138,-0.543,-0.023,-0.6317253094548327,-5.657135974221134,-6.589893600210693
1621786779216.787,0.112,-0.536,-0.023,-0.531721358967606,-5.687477730096515,-6.531996576244403
1621786779216.871,0.11163843843843844,-0.5353973973973974,-0.022896696696696698,-0.53,-5.688,-6.531
1621786779221.665,0.091,-0.501,-0.017,-0.40158455244235064,-5.768640032234069,-6.557778576741879
1621786779226.542,0.073,-0.475,-0.024,-0.27094557401438135,-5.850676357550211,-6.585020828167617
1621786779231.419,0.049,-0.447,-0.023,-0.14030659558641212,-5.932712682866353,-6.612263079593355
1621786779232.625,0.04257028434120945,-0.4383446135362435,-0.020279735682819384,-0.108,-5.953,-6.619
1621786779236.296,0.023,-0.412,-0.012,0.06352039677619344,-6.135706509609424,-6.655587910725356
1621786779241.173,0.002,-0.38,0.01,0.29140433973961566,-6.378452448853069,-6.704199023558586
1621786779246.049,-0.014,-0.351,0.042,0.5192312461252325,-6.621137631742096,-6.752797969621822
1621786779248.377,-0.014955028044871796,-0.332376953125,0.0620555889423077,0.628,-6.737,-6.776
1621786779250.924,-0.016,-0.312,0.084,0.708870953739303,-6.854424624829468,-6.7918507069329035
1621786779255.8,-0.003,-0.278,0.127,0.8636830584149819,-7.079211800818554,-6.822193879449336
1621786779260.675,0.009,-0.246,0.176,1.0184641572615651,-7.3039539563437925,-6.852530974823266
1621786779264.125,0.019615234375,-0.22123111979166665,0.21209179687500002,1.128,-7.463,-6.874
1621786779265.55,0.024,-0.211,0.227,1.1102605594492339,-7.468339933635179,-6.89979459467841
1621786779270.424,0.033,-0.19,0.276,1.0495872356261242,-7.4866038423370345,-6.9880185604416045
1621786779275.298,0.044,-0.18,0.325,0.9889139118030144,-7.504867751038889,-7.0762425262048
1621786779279.87,0.04868925280448718,-0.17343504607371793,0.36532757411858974,0.932,-7.522,-7.159
1621786779280.173,0.049,-0.173,0.368,0.9206781648363563,-7.51427270333483,-7.1637094220969315
1621786779285.046,0.052,-0.182,0.41,0.7385891172689395,-7.3899946097489195,-7.2394510462973
1621786779289.918,0.056,-0.182,0.442,0.5565274391660601,-7.265735196171063,-7.315181285915646
1621786779294.797,0.079,-0.19,0.463,0.37420118957265225,-7.141295209182014,-7.391021576493548
1621786779295.632,0.085016713091922,-0.19066852367688022,0.46433704735376047,0.343,-7.12,-7.404
1621786779299.793,0.115,-0.194,0.471,0.2420609031985133,-7.031420792602777,-7.356105428558478
1621786779304.796,0.152,-0.194,0.48,0.12069471346336896,-6.92491576895765,-7.29851840995966
1621786779309.799,0.183,-0.192,0.494,-0.0006773988849773649,-6.818405547917265,-7.240928581141311
1621786779311.791,0.18499077688854187,-0.19478708764395863,0.49479631075541675,-0.049,-6.776,-7.218
1621786779314.802,0.188,-0.199,0.496,-0.09278359392703375,-6.697562157262633,-7.124843417176524
1621786779319.806,0.19,-0.199,0.508,-0.1655467935644686,-6.56720765918876,-6.970028098799003
1621786779324.809,0.199,-0.188,0.508,-0.23829934285066845,-6.436872241105824,-6.815235440743258
1621786779327.952,0.20905114190903767,-0.188,0.49920525082959205,-0.284,-6.355,-6.718
1621786779329.812,0.215,-0.188,0.494,-0.2975806948640483,-6.32219916918429,-6.645723081570997
1621786779334.816,0.234,-0.188,0.483,-0.3341143504531722,-6.233961102719034,-6.451289728096676
1621786779339.819,0.229,-0.175,0.476,-0.3706426586102719,-6.1457359516616314,-6.256884833836858
1621786779344.114,0.21526697892271662,-0.175,0.4717084309133489,-0.402,-6.07,-6.09
1621786779344.823,0.213,-0.175,0.471,-0.4119127597873369,-6.058815248912518,-6.068069115514741
1621786779349.826,0.178,-0.166,0.466,-0.48186188980183664,-5.979890345577574,-5.913314403093282
1621786779354.83,0.134,-0.15,0.466,-0.5518280872402127,-5.900946184751088,-5.758521930884485
1621786779359.834,0.093,-0.15,0.45,-0.6217908711938135,-5.82200587542291,-5.603737010633156
1621786779360.278,0.0893612900078064,-0.15,0.4495562548790008,-0.628,-5.815,-5.59
1621786779364.838,0.052,-0.15,0.445,-0.7024687971968827,-5.809640503232043,-5.578998927686824
1621786779369.842,0.026,-0.141,0.431,-0.7841942850238628,-5.803758744638435,-5.566925844257838
1621786779374.847,0.002,-0.147,0.424,-0.8659317344288044,-5.797876125173685,-5.554850993777563
1621786779376.443,-0.006293311216275552,-0.1473189735083183,0.42081026491681706,-0.892,-5.796,-5.551
1621786779379.851,-0.024,-0.148,0.414,-0.9293184557524129,-5.8042227105895146,-5.542566450677421
1621786779384.854,-0.051,-0.143,0.401,-0.9841024514024197,-5.8162937604785,-5.530185886688719
1621786779389.86,-0.079,-0.133,0.389,-1.0389212016856224,-5.828372468168019,-5.517797468545623
1621786779392.607,-0.08997872755659642,-0.12970638173302107,0.3835106362217018,-1.069,-5.835,-5.511
1621786779394.864,-0.099,-0.127,0.379,-1.077237012987013,-5.848681818181818,-5.505555194805195
1621786779399.869,-0.126,-0.133,0.375,-1.0955018876472364,-5.879020084566596,-5.49348180308064
1621786779404.873,-0.166,-0.122,0.37,-1.113764089398973,-5.9093539112050735,-5.481410178193899
1621786779408.774,-0.19873541463414635,-0.11420585365853658,0.3606470243902439,-1.128,-5.933,-5.472
1621786779409.878,-0.208,-0.112,0.358,-1.1292975413797268,-5.9450876223269296,-5.498155702549234
1621786779414.883,-0.236,-0.094,0.342,-1.1351800924247915,-5.999888229430954,-5.616735547299747
1621786779419.888,-0.274,-0.094,0.333,-1.1410623565301437,-6.054686163465024,-5.73530960794974
1621786779424.893,-0.291,-0.068,0.325,-1.1469449075752085,-6.109486770569047,-5.853889452700254
1621786779424.94,-0.2911311219512195,-0.06784078048780488,0.32483141463414633,-1.147,-6.11,-5.855
1621786779429.898,-0.305,-0.051,0.307,-1.0988971063033706,-6.208963278114722,-5.983989288192873
1621786779434.903,-0.314,-0.044,0.302,-1.0503370598352495,-6.308867067982257,-6.114204444645605
1621786779439.908,-0.312,-0.037,0.295,-1.0017793820343381,-6.408765984731903,-6.244413249449322
1621786779441.122,-0.31030231650816875,-0.03263452816386247,0.2916046330163375,-0.99,-6.433,-6.276
1621786779444.914,-0.305,-0.019,0.281,-0.9625334179740637,-6.499905776729845,-6.331402678274538
1621786779449.919,-0.288,-0.005,0.271,-0.9262814908860071,-6.588211752969983,-6.4045262235119855
1621786779454.925,-0.264,0.003,0.262,-0.8900207218645144,-6.676539267253106,-6.477667603760466
1621786779457.275,-0.2489785407725322,0.013796673819742488,0.2601223175965665,-0.873,-6.718,-6.512
1621786779459.931,-0.232,0.026,0.258,-0.8519742861888296,-6.743625088707364,-6.495902187863322
1621786779464.937,-0.206,0.03,0.248,-0.81234451675248,-6.791923870207915,-6.465560645638617
1621786779469.943,-0.185,0.047,0.248,-0.7727147473161304,-6.840222651708466,-6.435219103413912
1621786779473.444,-0.1682117073170732,0.05679317073170732,0.24450243902439023,-0.745,-6.874,-6.414
1621786779474.948,-0.161,0.061,0.243,-0.7286328502415459,-6.8722330917874395,-6.380242753623188
1621786779479.954,-0.134,0.077,0.248,-0.6741509661835748,-6.866351524758454,-6.267873867753623
1621786779484.961,-0.124,0.105,0.246,-0.6196611111111111,-6.860469097222222,-6.155488541666667
1621786779489.616,-0.11377142160448671,0.12080780297488417,0.25250909534259935,-0.569,-6.855,-6.051
1621786779489.967,-0.113,0.122,0.253,-0.5719738999169748,-6.850311223488566,-6.045030492867387
1621786779494.973,-0.117,0.148,0.258,-0.6143778247414898,-6.783455400407578,-5.9599131255189075
1621786779499.98,-0.112,0.157,0.262,-0.6567920899690542,-6.716583274209374,-5.874775001886935
1621786779504.986,-0.117,0.175,0.264,-0.6991980828741792,-6.649724190504944,-5.789653483281757
1621786779505.789,-0.11812263506924128,0.17804715233079774,0.26367924712307395,-0.706,-6.639,-5.776
1621786779509.993,-0.124,0.194,0.262,-0.7647448523639877,-6.585453807137251,-5.786137386027414
1621786779515.0,-0.129,0.204,0.255,-0.8347139665479137,-6.521676649960751,-5.798211702191897
1621786779520.006,-0.134,0.211,0.25,-0.9046694342129099,-6.45791193164664,-5.810283663426122
1621786779521.962,-0.13634376828554712,0.21256251219036473,0.2476562317144529,-0.932,-6.433,-5.815
1621786779525.013,-0.14,0.215,0.244,-0.909740856465758,-6.468086446587873,-5.7910431251792485
1621786779530.02,-0.15,0.216,0.253,-0.8732110673368655,-6.5256673006385,-5.751727165693067
1621786779535.028,-0.164,0.222,0.253,-0.8366741535721294,-6.583259385047321,-5.712403538166614
1621786779538.136,-0.16710427233710495,0.22510427233710495,0.26417538041357785,-0.814,-6.619,-5.688
1621786779540.034,-0.169,0.227,0.271,-0.7944069060231508,-6.666281538159701,-5.690229154404552
1621786779545.041,-0.18,0.237,0.274,-0.7427173299527625,-6.791017461251717,-5.6961100043766315
1621786779550.049,-0.18,0.244,0.288,-0.69101767253739,-6.915777712379831,-5.701992001328081
1621786779554.313,-0.18,0.2550710454456797,0.2897032377608738,-0.647,-7.022,-5.707
1621786779555.056,-0.18,0.257,0.29,-0.647,-7.031873160793783,-5.7286291103901
1621786779560.063,-0.173,0.264,0.298,-0.647,-7.0984156040141855,-5.874403486003169
1621786779565.072,-0.154,0.272,0.307,-0.647,-7.1649840036218215,-6.020234724213386
1621786779570.079,-0.136,0.278,0.305,-0.647,-7.231526446842224,-6.1660090998264545
1621786779570.491,-0.13410837558502342,0.27865795631825274,0.3047532663806552,-0.647,-7.237,-6.178
1621786779575.087,-0.113,0.286,0.302,-0.7222738671857318,-7.259440133991218,-6.347863292743651
1621786779580.095,-0.077,0.293,0.297,-0.8042973910944126,-7.283892429797957,-6.532957886318711
1621786779585.102,-0.044,0.29,0.288,-0.8863049205558825,-7.308339957448735,-6.71801638676384
1621786779586.671,-0.0324092039194657,0.28874694096426656,0.28267449909813286,-0.912,-7.316,-6.776
1621786779590.11,-0.007,0.286,0.271,-0.9579123034674231,-7.324289721459396,-6.832327594531792
1621786779595.119,0.021,0.29,0.262,-1.0247779823158403,-7.3363626912514714,-6.914361876452304
1621786779600.126,0.049,0.288,0.251,-1.0916208467875788,-7.348431541781091,-6.996368168512539
1621786779602.851,0.0642330262708973,0.28038348686455133,0.24664770677974363,-1.128,-7.355,-7.041
1621786779605.135,0.077,0.274,0.243,-1.1418327021440318,-7.356411500218779,-7.029990298293526
1621786779610.143,0.108,0.272,0.234,-1.1721640991595876,-7.35950654073057,-7.005848982301552
1621786779615.152,0.122,0.272,0.229,-1.2025014107458092,-7.3626021847699805,-6.981702958794152
1621786779619.032,0.1289715344121661,0.2557330863716124,0.229,-1.226,-7.365,-6.963
1621786779620.161,0.131,0.251,0.229,-1.2177680214839623,-7.36772073866208,-6.944512929603814
1621786779625.169,0.148,0.241,0.229,-1.1812492984520684,-7.379790486104825,-6.862500543133883
1621786779630.178,0.155,0.227,0.227,-1.1447234543314928,-7.391862587127727,-6.780472164388522
1621786779635.187,0.161,0.216,0.23,-1.108197610210917,-7.403934688150629,-6.698443785643161
1621786779635.214,0.1610270560132599,0.215994588797348,0.23005952322917175,-1.108,-7.404,-6.698
1621786779640.195,0.166,0.215,0.241,-1.0716739547025185,-7.434169088467399,-6.640740301480241
1621786779645.205,0.171,0.202,0.255,-1.0351360282467974,-7.464514146032321,-6.583146620795799
1621786779650.214,0.182,0.199,0.258,-0.9986052238468155,-7.494853288669594,-6.525564166402607
1621786779651.394,0.18647587248976408,0.19947114447260675,0.2589422889452135,-0.99,-7.502,-6.512
1621786779655.223,0.201,0.201,0.262,-0.980771504443472,-7.488038942619611,-6.5072674381761395
1621786779660.232,0.22,0.202,0.26,-0.9686984926897717,-7.46977464278709,-6.501076150097319
1621786779665.241,0.244,0.211,0.271,-0.9566254809360712,-7.4515103429545695,-6.494884862018498
1621786779667.575,0.24679518541981385,0.21519277812972076,0.27239759270990693,-0.951,-7.443,-6.492
1621786779670.251,0.25,0.22,0.274,-0.9283444223167677,-7.436550601973386,-6.5389648471681605
1621786779675.26,0.26,0.237,0.284,-0.8859372982106756,-7.424478500950484,-6.626874505899037
1621786779680.27,0.257,0.255,0.305,-0.8435219063999275,-7.412404046347424,-6.714801303521318
1621786779683.757,0.24099156961161738,0.2730964865259978,0.32727259880122805,-0.814,-7.404,-6.776
1621786779685.28,0.234,0.281,0.337,-0.762331165794119,-7.418775968980553,-6.826821804136932
1621786779690.29,0.206,0.304,0.377,-0.5923574327484498,-7.467384122146618,-6.994009082542508
1621786779695.3,0.168,0.323,0.426,-0.4223836997027806,-7.5159922753126835,-7.161196360948084
1621786779699.939,0.12355538229131134,0.3322592953559768,0.4584075337459188,-0.265,-7.561,-7.316
1621786779700.31,0.12,0.333,0.461,-0.27061774023231255,-7.56549419218585,-7.3276940715039975
1621786779705.32,0.087,0.325,0.497,-0.346460929250264,-7.6261687434002114,-7.485571730276059
1621786779710.33,0.075,0.318,0.517,-0.42230411826821546,-7.686843294614572,-7.643449389048121
1621786779715.34,0.091,0.309,0.534,-0.49814730728616685,-7.747517845828933,-7.801327047820184
1621786779716.123,0.09803118148599269,0.30759376370280145,0.5347812423873326,-0.51,-7.757,-7.826
1621786779720.351,0.136,0.3,0.539,-0.7663016972165648,-7.7261706419250205,-7.972047552236554
1621786779725.361,0.201,0.291,0.525,-1.0700069246435846,-7.689639330165196,-8.14510690201403
1621786779730.371,0.278,0.278,0.501,-1.3737121520706044,-7.653108018405371,-8.318166251791506
1621786779732.306,0.30540878756880513,0.27298148960007795,0.4867165473232988,-1.491,-7.639,-8.385
1621786779735.383,0.349,0.265,0.464,-1.4368150058828855,-7.532721362415905,-8.31959776148671
1621786779740.393,0.401,0.269,0.443,-1.3485945786949045,-7.359685506984041,-8.213114158144025
1621786779745.403,0.445,0.279,0.438,-1.2603741515069238,-7.186649651552177,-8.10663055480134
1621786779748.491,0.4523932485751863,0.2974831214379658,0.42814233523308487,-1.206,-7.08,-8.041
1621786779750.415,0.457,0.309,0.422,-1.1372917735074963,-6.99607611089324,-7.967655751304715
1621786779755.426,0.445,0.339,0.408,-0.958350478144137,-6.777507677456334,-7.776640562309573
1621786779760.437,0.417,0.358,0.389,-0.7794091827807776,-6.558939244019427,-7.585625373314429
1621786779764.677,0.3933081120584653,0.39353783191230207,0.38307702801461635,-0.628,-6.374,-7.424
1621786779765.448,0.389,0.4,0.382,-0.6060436461255392,-6.350186167164359,-7.417903658794076
1621786779770.459,0.344,0.435,0.382,-0.46334125116882335,-6.195411335324103,-7.3782813018429705
1621786779775.471,0.29,0.466,0.386,-0.32061104575754834,-6.040606340301029,-7.338651223117064
1621786779780.482,0.239,0.49,0.38,-0.1779086508008325,-5.885831508460773,-7.299028866165958
1621786779780.865,0.23609515225334957,0.49214041412911086,0.3788533495736906,-0.167,-5.874,-7.296
1621786779785.493,0.201,0.518,0.365,-0.13327147983956092,-5.781675321933713,-7.34373443107452
1621786779790.505,0.168,0.555,0.354,-0.09674411170421304,-5.681689390512379,-7.395429943605055
1621786779795.516,0.143,0.578,0.342,-0.06022208148617268,-5.581718070508761,-7.447117901625502
1621786779797.056,0.14023552330394973,0.5844504456241172,0.33708537476257733,-0.049,-5.551,-7.463
1621786779800.529,0.134,0.599,0.326,0.12130960601902811,-5.473138051656289,-7.439834461649805
1621786779805.54,0.141,0.63,0.318,0.3670290396996518,-5.360800325678874,-7.406411667144129
1621786779810.552,0.164,0.654,0.311,0.6127963602370219,-5.2484407068437795,-7.37298235906096
1621786779813.248,0.17636979496420396,0.6626050747577071,0.3099243656552866,0.745,-5.188,-7.355
1621786779815.565,0.187,0.67,0.309,0.8433086039989143,-5.136055279109744,-7.211901595343647
1621786779820.576,0.199,0.677,0.311,1.0559307427847644,-5.02370908350674,-6.902407943544739
1621786779825.588,0.201,0.675,0.312,1.2685943182846287,-4.911340993395458,-6.592853976296029
1621786779829.439,0.18179526638745494,0.6696226745884875,0.3166091360670108,1.432,-4.825,-6.355
1621786779830.601,0.176,0.668,0.318,1.4390326091872578,-4.816532164447996,-6.302901282959702
1621786779835.613,0.15,0.654,0.326,1.4693629524656646,-4.780011955194404,-6.078209148060485
1621786779840.625,0.101,0.656,0.325,1.4996932957440714,-4.743491745940812,-5.853517013161267
1621786779845.633,0.042057468465397166,0.6480077923342912,0.32799707787464083,1.53,-4.707,-5.629
1621786779845.638,0.042,0.648,0.328,1.5297397702258542,-4.707109459337213,-5.629145041160329
1621786779850.651,-0.033,0.642,0.33,1.262574872598981,-4.819485887887103,-5.778051548412387
1621786779855.664,-0.119,0.627,0.312,0.9953969634834002,-4.931867789403854,-5.926965307722462
1621786779860.677,-0.202,0.593,0.288,0.7282320658565269,-5.044244217953744,-6.07587181497452
1621786779861.826,-0.2169003848214721,0.5842890057966779,0.27951824248623897,0.667,-5.07,-6.11
1621786779865.689,-0.267,0.555,0.251,0.44466164608681236,-5.318102884194974,-6.3134920771329925
1621786779870.703,-0.316,0.506,0.209,0.15608408340494817,-5.6401207652992,-6.577608666154055
