time,gyro_x,gyro_y,gyro_z,acc_x,acc_y,acc_z
1621784704707.508,,,,-0.951,-5.188,-7.786
1621784704726.196,,,,-0.088,-5.492,-7.08
1621784704741.97,0.744,1.292,1.33,-0.0232230748467204,-6.02101155541845,-6.632374837722851
1621784704745.19,0.7380210591386771,1.278411498042448,1.3240210591386772,-0.01,-6.129,-6.541
1621784704747.894,0.733,1.267,1.319,-0.12810551880288906,-6.182658853738442,-6.551927912771798
1621784704753.847,0.714,1.222,1.307,-0.38810613860885185,-6.300784876734507,-6.575984909622171
1621784704759.828,0.698,1.161,1.295,-0.6493330255385356,-6.419468029396511,-6.600155368911039
1621784704764.491,0.6793855274912695,1.0919713311134573,1.2825903516608461,-0.853,-6.512,-6.619
1621784704765.84,0.674,1.072,1.279,-0.965020022413149,-6.468100261486739,-6.78028681359731
1621784704771.881,0.637,0.963,1.251,-1.4666167351512889,-6.271528576765035,-7.502487485991781
1621784704777.95,0.578,0.871,1.204,-1.9705243929772134,-6.074051251400822,-8.228015465072842
1621784704784.05,0.504,0.778,1.154,-2.477026796164861,-5.875557066367825,-8.957279367451125
1621784704784.098,0.5034144359464627,0.7775003186743149,1.1536876991714466,-2.481,-5.874,-8.963
1621784704790.179,0.429,0.714,1.114,-2.3218019304767497,-5.813569712385052,-9.896745411856779
1621784704795.817,0.38,0.686,1.094,-2.1742043305289247,-5.757542868323224,-10.762450518489532
1621784704801.461,0.379,0.707,1.101,-2.0264469444987934,-5.7014553707689295,-11.629092819409117
1621784704802.815,0.3893027606169266,0.7158651661122392,1.1072295761869788,-1.991,-5.688,-11.837
1621784704807.112,0.422,0.744,1.127,-1.836625874405938,-5.867750694184867,-11.749356851070647
1621784704812.769,0.511,0.81,1.166,-1.6333986223100339,-6.104385165803386,-11.63397821327495
1621784704818.431,0.618,0.876,1.182,-1.4299959550381802,-6.341223887969242,-11.51849998665029
1621784704821.103,0.6656054002842254,0.912293225959261,1.1885987683562291,-1.334,-6.453,-11.464
1621784704824.1,0.719,0.953,1.196,-1.2810932453643353,-6.571387028119929,-10.954690840405439
1621784704829.776,0.806,1.04,1.197,-1.1808996780973158,-6.795585596850143,-9.990173135757802
1621784704835.456,0.864,1.129,1.201,-1.0806285349437337,-7.019957753598127,-9.024908643486127
1621784704839.457,0.8773647523392566,1.190196497553438,1.208034080178556,-1.01,-7.178,-8.345
1621784704841.144,0.883,1.216,1.211,-1.0432493372216332,-7.167283271474019,-8.218414369034996
1621784704846.838,0.876,1.311,1.215,-1.1554694591728527,-7.1311131495227995,-7.791174125132557
1621784704852.537,0.845,1.395,1.208,-1.2677954400848357,-7.094908907741251,-7.363530858960764
1621784704857.875,0.8075792649009457,1.4567442129134398,1.1911606692054255,-1.373,-7.061,-6.963
1621784704858.243,0.805,1.461,1.19,-1.3944759690946311,-7.053376926632768,-6.971001241497722
1621784704863.956,0.768,1.51,1.164,-1.7279591494419864,-6.935004305619758,-7.095246133527042
1621784704869.673,0.754,1.531,1.134,-2.0616703427326155,-6.816550749521231,-7.219575975698342
1621784704875.398,0.757,1.539,1.105,-2.395837561909793,-6.697935323251667,-7.3440757181536025
1621784704876.36,0.7632118514100708,1.538832112124052,1.0984523728380335,-2.452,-6.678,-7.365
1621784704881.129,0.794,1.538,1.066,-2.535050218513058,-6.610119945240101,-7.503588445134794
1621784704886.866,0.85,1.539,1.028,-2.634963037068239,-6.528457455770851,-7.67031602780118
1621784704892.609,0.908,1.539,0.991,-2.7349778985888795,-6.4467115627632685,-7.8372138926916595
1621784704894.907,0.9335831493120434,1.5278073721759808,0.9826055291319857,-2.775,-6.414,-7.904
1621784704898.358,0.972,1.511,0.97,-2.7787080759191487,-6.339282270229147,-7.862284145909574
1621784704904.114,1.026,1.491,0.946,-2.7848930993323626,-6.214654048452892,-7.792702632510919
1621784704909.875,1.082,1.457,0.916,-2.791083369404111,-6.089920106507169,-7.723062094203754
1621784704913.52,1.1098096689526713,1.4386709000084668,0.8938786724240115,-2.795,-6.011,-7.679
1621784704915.642,1.126,1.428,0.881,-2.7704594863080843,-5.938628207306712,-7.563114240899288
1621784704921.417,1.152,1.384,0.845,-2.703676086530292,-5.7416790144435,-7.247748186393046
1621784704927.197,1.162,1.325,0.81,-2.636833396510032,-5.544554970263381,-6.932102150186262
1621784704932.198,1.153355138214813,1.2783177463599915,0.7875233593585145,-2.579,-5.374,-6.659
1621784704932.982,1.152,1.271,0.784,-2.5544052131775374,-5.35965304102023,-6.60073377883726
1621784704938.775,1.122,1.223,0.752,-2.372659619367697,-5.253634777964489,-6.170169812549663
1621784704944.574,1.065,1.183,0.735,-2.190722537027629,-5.147504813266116,-5.739152200815455
1621784704950.378,0.99,1.15,0.735,-2.0086322638633787,-5.041285487253638,-5.307771672723957
1621784704950.94,0.9813924039996639,1.1466149903369465,0.7346131417527939,-1.991,-5.031,-5.266
1621784704956.189,0.901,1.115,0.731,-1.8076233934830586,-5.014532389977931,-4.99777333506426
1621784704962.006,0.792,1.086,0.733,-1.6043994677398417,-4.9962824483967285,-4.70051581202129
1621784704967.829,0.67,1.075,0.747,-1.400970842528885,-4.97801412436713,-4.402958873166298
1621784704969.746,0.6275229388576701,1.0697315273001762,0.7555612681372138,-1.334,-4.972,-4.305
1621784704973.651,0.541,1.059,0.773,-1.1834965263376194,-5.04103258502696,-4.3435587411862295
1621784704979.477,0.417,1.044,0.801,-0.9589363853172959,-5.1440333108668606,-4.401090678141849
1621784704985.308,0.311,1.038,0.838,-0.7341880443799254,-5.247120359809208,-4.458670831605143
1621784704988.582,0.26275451807228917,1.0374390060240963,0.8660496987951807,-0.608,-5.305,-4.491
1621784704991.144,0.225,1.037,0.888,-0.5773578128633815,-5.384859505413576,-4.64000780381922
1621784704996.986,0.159,1.04,0.955,-0.5074858006666839,-5.566959572598775,-4.979783650740329
1621784705002.835,0.122,1.037,1.005,-0.43753202925140183,-5.749272720225329,-5.319957078994289
1621784705007.478,0.09899499457745892,1.043346208392425,1.03276466171686,-0.382,-5.894,-5.59
1621784705008.688,0.093,1.045,1.04,-0.3951475815175398,-5.935293617678875,-5.65943965384021
1621784705014.548,0.098,1.059,1.08,-0.45882421573172616,-6.1352877066913925,-5.9957511976510585
1621784705020.415,0.119,1.059,1.117,-0.5225751300674806,-6.335515092978932,-6.3324550558903825
1621784705026.286,0.152,1.056,1.145,-0.5863684901869881,-6.535875791995055,-6.6693830938031216
1621784705026.436,0.1529197025713455,1.0560766418809455,1.1454853985793212,-0.588,-6.541,-6.678
1621784705032.163,0.188,1.059,1.164,-0.6473240648026907,-6.6295343911268585,-6.834591440088321
1621784705038.047,0.232,1.061,1.182,-0.7082742432411615,-6.7204955711314796,-6.995475159824386
1621784705043.936,0.274,1.056,1.203,-0.769275000641865,-6.811532234460448,-7.156492387481065
1621784705045.454,0.28430237759920474,1.056,1.205060475519841,-0.785,-6.835,-7.198
1621784705049.83,0.314,1.056,1.211,-0.789357220537622,-6.817112463056078,-7.225060632812601
1621784705055.731,0.36,1.049,1.225,-0.7952328074821838,-6.792991632441561,-7.26155112015251
1621784705061.638,0.401,1.044,1.246,-0.8011144717818806,-6.768845852684911,-7.2980793510664155
1621784705064.536,0.4181560125536835,1.0474312025107366,1.2504115460852328,-0.804,-6.757,-7.316
1621784705067.55,0.436,1.051,1.255,-0.824157248909411,-6.6998353019209675,-7.2819846424653685
1621784705073.469,0.469,1.056,1.26,-0.8637402994974362,-6.5875802443939895,-7.215188244598076
1621784705079.393,0.496,1.054,1.285,-0.903357636674405,-6.47522795224368,-7.148333988111942
1621784705083.676,0.5147756967027539,1.0554442843617504,1.290054995266126,-0.932,-6.394,-7.1
1621784705085.324,0.522,1.056,1.292,-0.9488220021106972,-6.366192200592521,-7.068844965478657
1621784705091.259,0.529,1.061,1.286,-1.0094061311938154,-6.266042925985734,-6.9566406855951275
1621784705097.201,0.536,1.063,1.293,-1.0700600404338372,-6.165778300507331,-6.844307170012842
1621784705102.877,0.536,1.0696799244756394,1.3034970241760047,-1.128,-6.07,-6.737
1621784705103.149,0.536,1.07,1.304,-1.1293836580017995,-6.068616341998201,-6.7347833234052805
1621784705109.103,0.527,1.079,1.311,-1.1596750865008048,-6.038324913499196,-6.686255218565037
1621784705115.061,0.51,1.089,1.307,-1.1899863880052217,-6.0080136119947785,-6.637695276358982
1621784705121.026,0.49,1.093,1.319,-1.2203324672691094,-5.977667532730891,-6.589079618762753
1621784705122.14,0.4873885209713024,1.0944922737306844,1.319373068432671,-1.226,-5.972,-6.58
1621784705126.998,0.476,1.101,1.321,-1.3072029639175258,-5.937557875985446,-6.59986078684051
1621784705132.973,0.466,1.091,1.316,-1.4070713058419244,-5.895198857893673,-6.624286789973722
1621784705138.956,0.443,1.091,1.309,-1.5070783934707903,-5.852780991004649,-6.648746727814837
1621784705141.464,0.4388122375769435,1.0863934613346378,1.3039746850923322,-1.549,-5.835,-6.659
1621784705144.945,0.433,1.08,1.297,-1.5561824192431206,-5.835,-6.697605503431774
1621784705150.938,0.426,1.07,1.288,-1.5685478874126313,-5.835,-6.764069894842894
1621784705156.939,0.415,1.054,1.274,-1.580929979220452,-5.835,-6.8306236383099295
1621784705160.85,0.415,1.0573088235294117,1.2693676470588235,-1.589,-5.835,-6.874
1621784705162.849,0.415,1.059,1.267,-1.5741133156792222,-5.83920710643848,-6.880364596919753
1621784705168.583,0.419,1.058,1.267,-1.531413185249595,-5.851274534603375,-6.898620449784593
1621784705174.315,0.421,1.061,1.258,-1.4887275996996165,-5.8633378522588036,-6.916870084186396
1621784705179.381,0.4174653579184942,1.0716039262445172,1.2509307158369884,-1.451,-5.874,-6.933
1621784705180.048,0.417,1.073,1.25,-1.4481921891058582,-5.874,-6.931596094552929
1621784705185.781,0.419,1.075,1.25,-1.4240585817060638,-5.874,-6.919529290853032
1621784705191.514,0.412,1.075,1.244,-1.3999249743062694,-5.874,-6.9074624871531345
1621784705197.245,0.401,1.072,1.237,-1.3757985611510792,-5.874,-6.89539928057554
1621784705197.91,0.4004201941912955,1.072,1.2361882718678137,-1.373,-5.874,-6.894
1621784705202.978,0.396,1.072,1.23,-1.3836668203797151,-5.84719619494328,-6.894
1621784705208.71,0.386,1.073,1.223,-1.395730773791486,-5.816881645344471,-6.894
1621784705214.442,0.377,1.068,1.215,-1.407794727203257,-5.786567095745662,-6.894
1621784705216.44,0.37107335463258784,1.0669541214057507,1.2136054952076678,-1.412,-5.776,-6.894
1621784705220.173,0.36,1.065,1.211,-1.435774135318532,-5.77217196126227,-6.901857553198498
1621784705225.905,0.339,1.072,1.204,-1.4722772514658409,-5.766294340865669,-6.913922142433625
1621784705231.637,0.312,1.068,1.192,-1.5087803676131497,-5.760416720469069,-6.925986731668753
1621784705234.969,0.2980461787509585,1.0639301354690296,1.1879301354690295,-1.53,-5.757,-6.933
1621784705237.368,0.288,1.061,1.185,-1.5376398402804317,-5.7544102236337515,-6.9889391695109575
1621784705243.099,0.269,1.052,1.182,-1.5558919520841294,-5.748223067090126,-7.122581750853287
1621784705248.831,0.255,1.033,1.173,-1.574146396426077,-5.742035119855567,-7.25624141111975
1621784705253.495,0.24197861463747125,1.0313723268296837,1.1673031439038937,-1.589,-5.737,-7.365
1621784705254.562,0.239,1.031,1.166,-1.6183752471332542,-5.733025701858442,-7.3751373401871625
1621784705260.292,0.23,1.021,1.162,-1.776141162514828,-5.7116809015421115,-7.429582048240412
1621784705266.023,0.223,0.995,1.143,-1.9339339659944643,-5.690332463424278,-7.48403603532358
1621784705271.754,0.22,0.977,1.124,-2.091726769474101,-5.668984025306445,-7.538490022406749
1621784705272.018,0.22014224987948638,0.9754352513256497,1.1231939173495773,-2.099,-5.668,-7.541
1621784705277.325,0.223,0.944,1.107,-2.174290134608332,-5.616035044348759,-7.5235799296396415
1621784705282.886,0.23,0.913,1.086,-2.2531859659607996,-5.561581450944703,-7.5053256000326
1621784705288.444,0.248,0.874,1.061,-2.3320402330856687,-5.507156545007539,-7.4870808872468455
1621784705289.992,0.25190102404078585,0.8698203313848724,1.0545911747901375,-2.354,-5.492,-7.482
1621784705293.999,0.262,0.859,1.038,-2.309985938308241,-5.470104679970597,-7.477754988973891
1621784705299.549,0.291,0.829,1.028,-2.249023794614903,-5.439778334376957,-7.471875391358798
1621784705305.097,0.316,0.805,1.023,-2.188085785848466,-5.409463994990608,-7.465998121477771
1621784705307.927,0.3292695812970546,0.7942822612600714,1.0219792629771496,-2.157,-5.394,-7.463
1621784705310.642,0.342,0.784,1.021,-2.1392532393136747,-5.387932731389291,-7.463
1621784705316.184,0.363,0.75,1.019,-2.103028846940724,-5.375548323740419,-7.463
1621784705321.72,0.391,0.73,1.012,-2.0668443492730297,-5.3631775553070185,-7.463
1621784705325.827,0.4140021613515063,0.7092238542631555,1.016452031229324,-2.04,-5.354,-7.463
1621784705327.255,0.422,0.702,1.018,-2.0250537988521455,-5.352481402022411,-7.458284353648538
1621784705332.787,0.447,0.674,1.019,-1.9671497267012845,-5.346598100573927,-7.440015154413774
1621784705338.315,0.476,0.632,1.014,-1.9092916507242417,-5.340719472533479,-7.421760467340803
1621784705343.693,0.4896299995580501,0.5872157157378353,1.0052378574269676,-1.853,-5.335,-7.404
1621784705343.839,0.49,0.586,1.005,-1.852525078391368,-5.333468787227342,-7.4011914118661934
1621784705349.36,0.49,0.546,0.998,-1.8345654174254769,-5.275564363078693,-7.2949816927058375
1621784705354.878,0.487,0.501,0.986,-1.816616080842382,-5.217693226164231,-7.188833029809259
1621784705360.392,0.468,0.466,0.974,-1.7986786570086675,-5.1598604975969105,-7.082754816447809
1621784705361.523,0.46143473446427785,0.4602553926562431,0.9707173672321389,-1.795,-5.148,-7.061
1621784705365.904,0.436,0.438,0.958,-1.74895813896054,-5.119193060205258,-7.024806665386093
1621784705371.412,0.401,0.422,0.956,-1.6910729103781352,-5.082976099006641,-6.979303303880138
1621784705376.917,0.36,0.407,0.955,-1.63322103616706,-5.0467800065858075,-6.93382616212063
1621784705379.317,0.34385520241477274,0.407,0.9580544211647727,-1.608,-5.031,-6.914
1621784705382.417,0.323,0.407,0.962,-1.6270285000693772,-5.051614208408491,-6.889685805466907
1621784705387.853,0.281,0.4,0.96,-1.6603950603579853,-5.087761315387817,-6.84705075620924
1621784705393.285,0.251,0.393,0.967,-1.6937361454141806,-5.123880824198696,-6.804448258637436
1621784705396.912,0.23496221832411282,0.3856493500652184,0.9636587954841901,-1.716,-5.148,-6.776
1621784705398.713,0.227,0.382,0.962,-1.7402641725094437,-5.1691797438006155,-6.778056285805885
1621784705404.135,0.194,0.372,0.958,-1.81332314854825,-5.232951561868387,-6.784247724453241
1621784705409.554,0.171,0.349,0.955,-1.8863393596409306,-5.296686051211998,-6.790435538952622
1621784705414.427,0.1583989898989899,0.3363989898989899,0.949599567099567,-1.952,-5.354,-6.796
1621784705414.968,0.157,0.335,0.949,-1.9525884309532793,-5.358273866923819,-6.802379830335556
1621784705420.378,0.147,0.314,0.942,-1.9584724749486395,-5.401010607521697,-6.8661752547063015
1621784705425.783,0.148,0.295,0.937,-1.9643512081953238,-5.443708775313404,-6.929913099380879
1621784705431.184,0.152,0.278,0.937,-1.9702256928430675,-5.486376084860174,-6.99360488029852
1621784705431.896,0.15318718899846195,0.2762851714466661,0.937,-1.971,-5.492,-7.002
1621784705436.581,0.161,0.265,0.937,-2.026390155389595,-5.549810113634772,-6.962474015328784
1621784705441.972,0.169,0.239,0.925,-2.090124914178425,-5.6163294007202005,-6.916993386484328
1621784705447.36,0.18,0.204,0.913,-2.1538279224873547,-5.682815550168841,-6.871535414535723
1621784705449.32,0.1843685833484491,0.1912582985670234,0.9079033194268094,-2.177,-5.707,-6.855
1621784705452.744,0.192,0.169,0.899,-2.203990447291526,-5.724533940211283,-6.870366824005394
1621784705458.124,0.211,0.15,0.887,-2.2464026326140707,-5.752086381771185,-6.8945139076196895
1621784705463.498,0.22,0.136,0.88,-2.2887667031917287,-5.779607566307035,-6.918633597437626
1621784705466.699,0.21463518981586724,0.1371921800409184,0.8805960900204592,-2.314,-5.796,-6.933
1621784705468.868,0.211,0.138,0.881,-2.3238861280144243,-5.7934971827811585,-6.949018030200586
1621784705474.234,0.199,0.138,0.887,-2.3483443909172865,-5.787305217489295,-6.988646608068515
1621784705479.596,0.195,0.126,0.883,-2.3727848489970698,-5.781117759747577,-7.0282463376155055
1621784705484.031,0.20990509618014405,0.11275102561764974,0.8788596955055156,-2.393,-5.776,-7.061
1621784705484.952,0.213,0.11,0.878,-2.3987539795759827,-5.781221203689317,-7.056791070495346
1621784705490.306,0.229,0.091,0.876,-2.432206994449074,-5.811576717185271,-7.032320809615955
1621784705495.654,0.244,0.084,0.866,-2.465623398635574,-5.84189900987302,-7.00787732877583
1621784705500.999,0.258,0.07,0.862,-2.499019972033503,-5.872203307956327,-6.983448353790308
1621784705501.316,0.2584155689718258,0.0693469630442737,0.8614656970362239,-2.501,-5.874,-6.982
1621784705506.337,0.265,0.059,0.853,-2.5808046196768206,-5.8140009063743605,-6.956369319227883
1621784705511.673,0.271,0.047,0.838,-2.6656188554191274,-5.750235459064451,-6.92912971066831
1621784705517.004,0.262,0.035,0.82,-2.750347722026313,-5.686534194388976,-6.901917519933155
1621784705518.555,0.2605442254812099,0.029759211732355642,0.8138857470210815,-2.775,-5.668,-6.894
1621784705522.331,0.257,0.017,0.799,-2.824636368799966,-5.629345128722151,-6.885434431932749
1621784705527.652,0.236,0.007,0.782,-2.8945804211692203,-5.5748754242222,-6.873364440594693
1621784705532.97,0.215,-0.003,0.763,-2.964482754213822,-5.5204382091078195,-6.861301648609119
1621784705535.748,0.20088472847560415,-0.004045575668473767,0.7483619406413673,-3.001,-5.492,-6.855
1621784705538.284,0.188,-0.005,0.735,-3.0429963554568493,-5.480317915207426,-6.876737550183651
1621784705543.593,0.164,-0.007,0.716,-3.1309190228068675,-5.4558605535149916,-6.922246818142992
1621784705548.897,0.143,-0.016,0.691,-3.2187567836906696,-5.431426810170554,-6.967712138037072
1621784705552.897,0.12866315110763138,-0.01675457099433519,0.6683628701699443,-3.285,-5.413,-7.002
1621784705554.198,0.124,-0.017,0.661,-3.3011907333952233,-5.420345795707092,-7.009345795707092
1621784705559.494,0.108,-0.033,0.63,-3.367096041860073,-5.45024727825133,-7.039247278251329
1621784705564.911,0.099,-0.037,0.6,-3.4345083129378007,-5.480832475314372,-7.069832475314373
1621784705570.254,0.08913122294372294,-0.04686877705627705,0.5713805465367965,-3.501,-5.511,-7.1
1621784705570.325,0.089,-0.047,0.571,-3.5011584546863435,-5.511162517627019,-7.099520573000293
1621784705575.738,0.075,-0.056,0.536,-3.5132315038465296,-5.523545132150287,-7.062991860156654
1621784705581.148,0.068,-0.065,0.506,-3.5252974742750234,-5.535920486435922,-7.026484565014032
1621784705586.555,0.066,-0.068,0.478,-3.537356910489647,-5.5482891389637405,-6.9899970400569655
1621784705587.74,0.06424535719127017,-0.068,0.4727360715738105,-3.54,-5.551,-6.982
1621784705591.958,0.058,-0.068,0.454,-3.5211502545739384,-5.527075323113076,-6.93705060706093
1621784705597.361,0.049,-0.075,0.429,-3.497004643876238,-5.496428971073686,-6.87947261232026
1621784705602.76,0.031,-0.07,0.403,-3.472877580708331,-5.465806160129805,-6.821938846304482
1621784705605.194,0.023332850809734913,-0.06503890346512259,0.39262679815434726,-3.462,-5.452,-6.796
1621784705608.157,0.014,-0.059,0.38,-3.4686315081544583,-5.4237735806758955,-6.792599226587457
1621784705613.55,-0.007,-0.058,0.358,-3.480702208148854,-5.372395729417699,-6.786409124026229
1621784705618.941,-0.024,-0.065,0.337,-3.4927679902482764,-5.321038810738104,-6.780221543462422
1621784705622.619,-0.039696973815348376,-0.05271541179668388,0.3213030261846516,-3.501,-5.286,-6.776
1621784705624.33,-0.047,-0.047,0.314,-3.5068025593893384,-5.264756731727166,-6.794391162810276
1621784705629.715,-0.065,-0.051,0.288,-3.5250629463847223,-5.197905145438983,-6.852267304643102
1621784705635.099,-0.073,-0.045,0.265,-3.5433200218895142,-5.131065682573983,-6.910132950734561
1621784705640.018,-0.08305571687840291,-0.04408584392014519,0.24306025408348458,-3.56,-5.07,-6.963
1621784705640.48,-0.084,-0.044,0.241,-3.5573937562374374,-5.067393756237437,-6.963
1621784705645.858,-0.098,-0.047,0.216,-3.527050026003964,-5.037050026003964,-6.963
1621784705651.234,-0.113,-0.047,0.192,-3.496717315828683,-5.006717315828683,-6.963
1621784705656.606,-0.129,-0.042,0.171,-3.466406645769788,-4.976406645769788,-6.963
1621784705657.387,-0.1320535909090909,-0.04301786363636364,0.16896427272727274,-3.462,-4.972,-6.963
1621784705661.977,-0.15,-0.049,0.157,-3.4929640489294917,-4.997935699103335,-7.004550048563505
1621784705667.345,-0.169,-0.049,0.147,-3.529175236835067,-5.028266437690911,-7.0531411297701325
1621784705672.709,-0.185,-0.049,0.133,-3.5653600737602233,-5.05857510451711,-7.101696851114146
1621784705674.731,-0.19291742158692585,-0.049,0.12960681931988893,-3.579,-5.07,-7.12
1621784705678.072,-0.206,-0.049,0.124,-3.652897880919819,-5.14370493606102,-7.1672714904056285
1621784705683.432,-0.223,-0.04,0.113,-3.7714476856486248,-5.261945211273563,-7.2431062218901126
1621784705688.789,-0.234,-0.037,0.094,-3.889938091276947,-5.380126242474657,-7.318902956560971
1621784705692.047,-0.2382589131029452,-0.0284821737941096,0.0806148445336008,-3.962,-5.452,-7.365
1621784705694.144,-0.241,-0.023,0.072,-3.950115132089858,-5.515062564421163,-7.41848190559564
1621784705699.495,-0.236,-0.017,0.07,-3.919786510032052,-5.675989946768706,-7.554960704855767
1621784705704.845,-0.216,-0.01,0.063,-3.889464806630614,-5.836880617878373,-7.691408370162236
1621784705709.338,-0.1941526870919136,-0.0032777498744349575,0.063,-3.864,-5.972,-7.806
1621784705710.192,-0.19,-0.002,0.063,-3.8547496959583674,-5.9851087196311905,-7.7967991628249
1621784705715.536,-0.159,0.0,0.065,-3.796865217637243,-6.067137525808185,-7.739224227168594
1621784705720.877,-0.127,0.003,0.068,-3.739012472777668,-6.149121362106514,-7.681680855276183
1621784705726.216,-0.101,0.002,0.075,-3.6811808835591258,-6.231075218485731,-7.6241585258930336
1621784705726.602,-0.09890260750228728,0.001710704483074108,0.07615718206770357,-3.677,-6.237,-7.62
1621784705731.553,-0.072,-0.002,0.091,-3.5396084010840108,-6.321152354336044,-7.482322168586269
1621784705736.912,-0.056,0.005,0.117,-3.390888888888889,-6.412243055555555,-7.333292824074074
1621784705742.269,-0.042,0.012,0.14,-3.242230352303523,-6.503296409214092,-7.184324582204155
1621784705743.899,-0.03986942646120179,0.015348044132397192,0.15004413239719158,-3.197,-6.531,-7.139
1621784705747.624,-0.035,0.023,0.173,-3.163184751768044,-6.53746151240101,-7.117892392823365
1621784705752.977,-0.021,0.03,0.204,-3.1145916771361217,-6.5467468132860915,-7.0875604099321015
1621784705758.326,-0.012,0.037,0.234,-3.066036278426335,-6.556024914950382,-7.05725194449542
1621784705761.194,-0.007173377156943303,0.0375362914270063,0.2468709942481512,-3.04,-6.561,-7.041
1621784705763.674,-0.003,0.038,0.258,-3.059672132537955,-6.566600096123944,-7.046600096123944
1621784705769.02,0.005,0.045,0.291,-3.1020781855192108,-6.578671892228097,-7.058671892228097
1621784705774.363,0.03,0.047,0.326,-3.144460999123576,-6.590737072743208,-7.070737072743208
1621784705778.465,0.04152031814234127,0.047,0.3505766787036614,-3.177,-6.6,-7.08
1621784705779.704,0.045,0.047,0.358,-3.208751525188614,-6.589440103613741,-7.0758335102693675
1621784705785.042,0.072,0.054,0.382,-3.3455427265135107,-6.543946197290755,-7.057883533624924
1621784705790.378,0.099,0.063,0.403,-3.482283876173086,-6.498468937109856,-7.039940124846066
1621784705795.712,0.124,0.049,0.414,-3.6189749741673394,-6.453008323071043,-7.022003283932793
1621784705795.713,0.12400439640959883,0.04899871771386701,0.4140018318373328,-3.619,-6.453,-7.022
1621784705801.043,0.148,0.042,0.424,-3.755484817555499,-6.310325394800261,-6.988575146721103
1621784705806.372,0.168,0.037,0.428,-3.891944628731819,-6.167676930055853,-6.9551564174534315
1621784705811.698,0.183,0.035,0.433,-4.02832316917581,-6.025113421791273,-6.92175759122225
1621784705812.935,0.18555545367016643,0.032212232359818446,0.43416156985007565,-4.06,-5.992,-6.914
1621784705817.023,0.194,0.023,0.438,-4.181231704027598,-5.854366359545138,-6.818440892119422
1621784705822.345,0.195,0.012,0.436,-4.339063161032951,-5.675181234827297,-6.694032567185792
1621784705827.664,0.185,0.0,0.44,-4.496807734351709,-5.496094748647766,-6.569692727040418
1621784705830.132,0.17850142345486272,-0.002320920194691891,0.4376790798053081,-4.57,-5.413,-6.512
1621784705832.981,0.171,-0.005,0.435,-4.630216180484476,-5.3527838195155235,-6.476168884339815
1621784705838.297,0.15,-0.012,0.429,-4.742582906857728,-5.240417093142272,-6.4093060388945755
1621784705843.609,0.131,-0.012,0.428,-4.854856746844081,-5.128143253155919,-6.34249846468782
1621784705847.306,0.12264524137931035,-0.008518850574712643,0.428,-4.933,-5.05,-6.296
1621784705848.919,0.119,-0.007,0.428,-4.942216751362969,-5.037115357788501,-6.30521675136297
1621784705854.227,0.105,-0.014,0.422,-4.972546796486882,-4.9947151926662965,-6.335546796486883
1621784705859.533,0.101,-0.017,0.421,-5.0028642866293715,-4.952332578895674,-6.365864286629372
1621784705864.457,0.09171451590626582,-0.01050016113438608,0.41450016113438604,-5.031,-4.913,-6.394
1621784705864.836,0.091,-0.01,0.414,-5.028831784227632,-4.912778753492616,-6.395305354393568
1621784705870.137,0.082,-0.01,0.415,-4.998497719108171,-4.909683440725324,-6.413567699720591
1621784705875.435,0.063,-0.019,0.415,-4.968180418543651,-4.906589838626903,-6.4318199521012716
1621784705880.731,0.051,-0.007,0.415,-4.937875691395336,-4.903497519530136,-6.450064634772196
1621784705881.583,0.050034311012728275,-0.006356207341818853,0.413873362848183,-4.933,-4.903,-6.453
1621784705886.025,0.045,-0.003,0.408,-4.810660765782486,-5.0406641064443365,-6.371440510521658
1621784705891.316,0.051,0.003,0.408,-4.664934928475573,-5.204644347999886,-6.274289952317049
1621784705896.605,0.065,0.023,0.419,-4.519262884390257,-5.3685640579048055,-6.177175256260172
1621784705898.684,0.07325803472478759,0.03243775397118581,0.42096619874399704,-4.462,-5.433,-6.139
1621784705901.892,0.086,0.047,0.424,-4.4135430670446,-5.462834268525482,-6.139
1621784705907.104,0.113,0.075,0.429,-4.334817145832128,-5.51130473766414,-6.139
1621784705912.312,0.145,0.105,0.424,-4.256150228495401,-5.55973887892636,-6.139
1621784705915.566,0.16000619253143178,0.12125670857571777,0.420873709889285,-4.207,-5.59,-6.139
1621784705917.516,0.169,0.131,0.419,-4.195625877224845,-5.567251754449691,-6.166274682164911
1621784705922.718,0.192,0.152,0.408,-4.165286814384308,-5.506573628768616,-6.239026516527424
1621784705927.916,0.209,0.175,0.393,-4.1349705339629494,-5.445941067925899,-6.311723719578641
1621784705932.369,0.22014276986700504,0.19214272287231543,0.38357150242022653,-4.109,-5.394,-6.374
1621784705933.111,0.222,0.195,0.382,-4.092934779443878,-5.402674333964187,-6.363599650604163
1621784705938.302,0.239,0.218,0.368,-3.980573358567477,-5.463343310525549,-6.290858785849468
1621784705943.491,0.258,0.243,0.356,-3.8682542145872763,-5.523989459892269,-6.218145290435289
1621784705948.677,0.274,0.271,0.351,-3.7559984859513755,-5.584601368467026,-6.145472849031883
1621784705949.139,0.27587194346289756,0.27438732626619555,0.35055429917550057,-3.746,-5.59,-6.139
1621784705953.859,0.295,0.309,0.346,-3.7155432280650573,-5.562363299540515,-6.025633126686603
1621784705959.038,0.309,0.344,0.339,-3.6821231711764275,-5.5320376923637955,-5.901236248267814
1621784705964.214,0.314,0.379,0.321,-3.6487235941944425,-5.5017306688060685,-5.7769156006126465
1621784705965.876,0.31239336291540787,0.39281707892749246,0.31810805324773417,-3.638,-5.492,-5.737
1621784705969.386,0.309,0.422,0.312,-3.6461950160771703,-5.4548072347266885,-5.734898713826366
1621784705974.556,0.309,0.457,0.298,-3.658265521777258,-5.40002570885706,-5.731803712364806
1621784705979.721,0.304,0.473,0.278,-3.6703246273019583,-5.345295922244958,-5.728711634025139
1621784705982.58,0.30289247210138076,0.48850539058066955,0.269139776811046,-3.677,-5.315,-5.727
1621784705984.884,0.302,0.501,0.262,-3.7082355301698886,-5.2839026801405975,-5.7554713239601645
1621784705990.044,0.297,0.527,0.244,-3.7781902753368484,-5.214257469244289,-5.819235383714118
1621784705995.201,0.29,0.541,0.225,-3.848105301698887,-5.144651801405975,-5.88296323960164
1621784705999.25,0.28528455669809977,0.5496449793868171,0.20692413400938256,-3.903,-5.09,-5.933
1621784706000.353,0.284,0.552,0.202,-3.9206531214060334,-5.078209047211819,-5.927803986906903
1621784706005.503,0.278,0.559,0.173,-4.003073427501401,-5.023158503140574,-5.903544425112795
1621784706010.613,0.265,0.56,0.15,-4.084856845861225,-4.968533352009673,-5.879472324614432
1621784706015.719,0.246,0.567,0.119,-4.16657384034679,-4.913952567013654,-5.855419775294153
1621784706015.808,0.24551095798641018,0.5670698631447985,0.11872054742080582,-4.168,-4.913,-5.855
1621784706020.821,0.218,0.571,0.103,-4.203906960890378,-4.904175407916772,-5.890602664611646
1621784706025.918,0.183,0.571,0.082,-4.240415489722424,-4.895202972864828,-5.926801799131557
1621784706031.013,0.154,0.578,0.065,-4.276910028602338,-4.88623397602146,-5.962987062258251
1621784706032.282,0.14876636141343433,0.5775015582298508,0.062757012034329,-4.286,-4.884,-5.972
1621784706036.105,0.133,0.576,0.056,-4.23808754418798,-4.997966521106259,-6.131785714285715
1621784706041.192,0.112,0.569,0.049,-4.174334818643614,-5.149611353711791,-6.344397959183674
1621784706046.275,0.103,0.562,0.054,-4.110631048926121,-5.301139737991266,-6.55684693877551
1621784706048.719,0.09963285604458966,0.5610379588698828,0.06073428791082068,-4.08,-5.374,-6.659
1621784706051.356,0.096,0.56,0.068,-3.9994435198142138,-5.571130228957632,-6.8197913776163395
1621784706056.432,0.094,0.555,0.099,-3.84437919433114,-5.950589037425194,-7.129301009319081
1621784706061.506,0.096,0.541,0.152,-3.689367076547474,-6.329920088129335,-7.438706434036979
1621784706065.119,0.10312881780518354,0.5224650737065228,0.18693120724539936,-3.579,-6.6,-7.659
1621784706066.574,0.106,0.515,0.201,-3.6235565918078043,-6.608715660672983,-7.788045139147952
1621784706071.64,0.124,0.454,0.244,-3.7786823099306126,-6.639059613519361,-8.237321420577482
1621784706076.702,0.145,0.391,0.271,-3.9336884130418563,-6.669380168618966,-8.68625127210326
1621784706081.48,0.17333912539820445,0.3135397239115745,0.26911072497345306,-4.08,-6.698,-9.11
1621784706081.76,0.175,0.309,0.269,-4.080154408795154,-6.6796596664423005,-9.118252292274324
1621784706086.814,0.225,0.215,0.257,-4.0829411711913846,-6.348654221823349,-9.26718926033954
1621784706091.865,0.288,0.127,0.232,-4.085726318151223,-6.017840655149204,-9.41603989230424
1621784706096.913,0.363,0.044,0.202,-4.0885098496746695,-5.687218966419864,-9.564804188168424
1621784706097.802,0.37339782187802517,0.03201606969990319,0.19865154888673767,-4.089,-5.629,-9.591
1621784706101.957,0.422,-0.024,0.183,-3.8263760778609246,-5.548860144264655,-9.000415203275198
1621784706106.997,0.463,-0.063,0.18,-3.507813985573535,-5.4516507205734595,-8.284037475818424
1621784706112.028,0.468,-0.07,0.19,-3.189822848402142,-5.354615524196572,-7.568943703792571
1621784706114.082,0.46146372729921337,-0.06223817616781587,0.20021292609497912,-3.06,-5.315,-7.277
1621784706117.056,0.452,-0.051,0.215,-2.9486007039499413,-5.241344544387955,-6.98219495502542
1621784706122.081,0.417,-0.002,0.246,-2.760362323636473,-5.116884299509642,-6.484044372912969
1621784706127.102,0.365,0.047,0.278,-2.5722794139767156,-4.992526849372763,-5.986305225474565
1621784706130.313,0.33363847389167356,0.08156168183366588,0.29336074748162927,-2.452,-4.913,-5.668
1621784706132.119,0.316,0.101,0.302,-2.4126293386809805,-4.903185217574863,-5.67023063236935
1621784706137.132,0.251,0.164,0.323,-2.303336766080637,-4.87593947709659,-5.676422846114411
1621784706142.142,0.202,0.216,0.339,-2.1941133862066886,-4.8487109857965685,-5.682611139591689
1621784706146.505,0.1706246586031994,0.2726499219664456,0.36165996878657825,-2.099,-4.825,-5.688
1621784706147.148,0.166,0.281,0.365,-2.0947001768466875,-4.841004897292885,-5.703208633745976
1621784706152.15,0.133,0.342,0.393,-2.061254931301864,-4.965495533487507,-5.821505705950815
1621784706157.148,0.113,0.398,0.408,-2.0278358046524283,-5.089888949349295,-5.9397103946553
1621784706162.143,0.099,0.445,0.429,-1.9944362671745341,-5.214209449961457,-6.057845795734519
1621784706162.657,0.09869109230543463,0.4491187692608717,0.43105938463043586,-1.991,-5.227,-6.07
1621784706167.134,0.096,0.485,0.449,-2.053501704158146,-5.3170024539877305,-6.181669711429221
1621784706172.122,0.087,0.518,0.452,-2.1231370143149286,-5.417277300613497,-6.306084798909339
1621784706177.104,0.087,0.56,0.457,-2.1926871165644175,-5.517429447852761,-6.430347648261759
1621784706178.774,0.08934728894989705,0.5734130797136975,0.4576706539856849,-2.216,-5.551,-6.472
1621784706182.084,0.094,0.6,0.459,-2.248322127065112,-5.589292456268222,-6.562996051992226
1621784706187.06,0.108,0.62,0.469,-2.29691259718173,-5.646858236151604,-6.6997921525753155
1621784706192.033,0.124,0.651,0.471,-2.345472075437318,-5.704387299562683,-6.836501002186589
1621784706194.852,0.13194583435733595,0.6617836323420988,0.47497291717866796,-2.373,-5.737,-6.914
1621784706197.0,0.138,0.67,0.478,-2.4057904040404043,-5.739676767676768,-6.96780303030303
1621784706201.966,0.145,0.684,0.476,-2.4816019076305222,-5.74586546184739,-7.09219578313253
1621784706206.927,0.159,0.691,0.48,-2.557335143604722,-5.752047766824875,-7.216460113179992
1621784706210.901,0.16619337097962192,0.6941970537687208,0.4744051559047385,-2.618,-5.757,-7.316
1621784706211.899,0.168,0.695,0.473,-2.638151105295988,-5.767946279420043,-7.319047543702171
1621784706216.866,0.182,0.707,0.475,-2.7384383453270247,-5.822423298696161,-7.3342144411142725
1621784706221.83,0.19,0.7,0.466,-2.8386664333855682,-5.876868186036605,-7.349372392703373
1621784706226.791,0.201,0.693,0.466,-2.9388304401405776,-5.931278263780066,-7.364520652984223
1621784706226.948,0.20125334909377463,0.6922716213553979,0.4654933018124508,-2.942,-5.933,-7.365
1621784706231.748,0.209,0.67,0.45,-3.018462276380607,-5.927002958715247,-7.394385502295292
1621784706236.701,0.223,0.66,0.442,-3.0973590873736065,-5.920814973539325,-7.424706629657308
1621784706241.65,0.251,0.653,0.417,-3.176193673839772,-5.914631868718449,-7.455003843279599
1621784706242.956,0.25628160323806704,0.6456057554667062,0.41383103805715976,-3.197,-5.913,-7.463
1621784706246.596,0.271,0.625,0.405,-3.1924410213286447,-5.877439966363428,-7.438381515174681
1621784706251.539,0.298,0.606,0.38,-3.186249751548047,-5.829148062074765,-7.404948658359453
1621784706256.478,0.319,0.592,0.361,-3.1800636801467776,-5.780896705144866,-7.3715438727926
1621784706258.924,0.3289148936170213,0.5855553191489361,0.35257234042553187,-3.177,-5.757,-7.355
1621784706261.412,0.339,0.579,0.344,-3.1524802537814356,-5.737009378879131,-7.3059605075628715
1621784706266.343,0.358,0.569,0.325,-3.103885874978928,-5.697391031829953,-7.208771749957856
1621784706271.271,0.365,0.56,0.314,-3.0553203684121804,-5.657796223928401,-7.111640736824361
1621784706274.855,0.37227849670286084,0.5512658039565671,0.305265803956567,-3.02,-5.629,-7.041
1621784706276.195,0.375,0.548,0.302,-3.0249754340144417,-5.614073697956675,-7.0236281456444924
1621784706281.115,0.365,0.539,0.293,-3.0432419572899065,-5.559274128130281,-6.959850115225073
1621784706286.032,0.349,0.522,0.279,-3.0614976033184824,-5.504507190044554,-6.896110062989707
1621784706290.746,0.3307694792287816,0.5085669846948917,0.26940498906777977,-3.079,-5.452,-6.835
1621784706290.945,0.33,0.508,0.269,-3.079,-5.452,-6.835991484184915
1621784706295.854,0.316,0.487,0.255,-3.079,-5.452,-6.860452554744525
1621784706300.76,0.297,0.468,0.246,-3.079,-5.452,-6.88489902676399
1621784706305.662,0.272,0.447,0.239,-3.079,-5.452,-6.90932603406326
1621784706306.6,0.2674234663490173,0.4447117331745086,0.23842793329362716,-3.079,-5.452,-6.914
1621784706310.581,0.248,0.435,0.236,-3.089015662909616,-5.5158498510488005,-6.923765271336875
1621784706315.502,0.216,0.41,0.232,-3.1013961180553427,-5.5947752526028065,-6.935836215103959
1621784706320.419,0.202,0.386,0.225,-3.113766745493075,-5.67363800251835,-6.947897576855748
1621784706322.499,0.1956506359300477,0.3771108903020668,0.225,-3.119,-5.707,-6.953
1621784706325.333,0.187,0.365,0.225,-3.1697312989551114,-5.75094330824985,-6.9722921841096905
1621784706330.243,0.178,0.34,0.22,-3.2576238862471723,-5.827075619777481,-7.005716125755967
1621784706335.15,0.171,0.311,0.201,-3.3454640290537525,-5.903162504039519,-7.0391201237246666
1621784706338.364,0.17558779310001493,0.2834732413999104,0.1846150246428038,-3.403,-5.953,-7.061
1621784706340.054,0.178,0.269,0.176,-3.403,-5.977023229627802,-7.073492079406456
1621784706344.954,0.183,0.215,0.145,-3.403,-6.046680877975043,-7.1097140565470225
1621784706349.849,0.204,0.175,0.12,-3.403,-6.116265644521911,-7.145898135151394
1621784706354.192,0.2306274138017065,0.14482226435806594,0.1155620976997156,-3.403,-6.178,-7.178
1621784706354.742,0.234,0.141,0.115,-3.39512822336281,-6.1735764795003405,-7.167411415496877
1621784706359.632,0.267,0.124,0.113,-3.3251452291138457,-6.134249752643622,-7.073274998454022
1621784706364.518,0.291,0.091,0.103,-3.2552216313153175,-6.094956403438254,-6.9792184775214885
1621784706369.4,0.302,0.068,0.087,-3.185357429967225,-6.055696431884237,-6.885241852699276
1621784706369.984,0.301760620465349,0.06428961721290968,0.0847258944208156,-3.177,-6.051,-6.874
1621784706374.279,0.3,0.037,0.068,-3.123569750685653,-5.997569750685654,-6.7376983435858495
1621784706379.154,0.284,0.031,0.052,-3.0629265847498335,-5.936926584749834,-6.582996389667942
1621784706384.026,0.264,0.016,0.044,-3.0023229000418366,-5.876322900041837,-6.4283951531679495
1621784706385.74,0.25519910750100283,0.01459185720016045,0.04083167870036101,-2.981,-5.855,-6.374
1621784706388.895,0.239,0.012,0.035,-2.919979015548065,-5.839142573119399,-6.326829173203274
1621784706393.759,0.206,0.009,0.035,-2.8259048011059162,-5.814695655550551,-6.254107329802271
1621784706398.621,0.18,0.016,0.026,-2.7318683617837562,-5.790258554542489,-6.181414687563101
1621784706401.458,0.15839280329681374,0.01891989144637652,0.026,-2.677,-5.776,-6.139
1621784706403.479,0.143,0.021,0.026,-2.6720022910926033,-5.778562927644819,-6.141562927644819
1621784706408.365,0.103,0.026,0.021,-2.6599197653178117,-5.784759094708814,-6.147759094708815
1621784706413.249,0.065,0.026,0.021,-2.6478420694139135,-5.790952784915942,-6.153952784915941
1621784706417.229,0.040527421937550046,0.03334177341873499,0.016921236989591675,-2.638,-5.796,-6.159
1621784706418.128,0.035,0.035,0.016,-2.6324066840277776,-5.803819227430556,-6.178005859375
1621784706423.005,0.009,0.038,0.01,-2.6020611979166666,-5.846240978422619,-6.2811185825892855
1621784706427.878,-0.007,0.037,0.009,-2.571740017361111,-5.88862875124008,-6.384148716517857
1621784706432.749,-0.014,0.042,0.007,-2.5414309895833336,-5.930999534970238,-6.487137555803572
1621784706432.979,-0.014236315287742713,0.042,0.006905473884902915,-2.54,-5.933,-6.492
1621784706437.615,-0.019,0.042,0.005,-2.522594867094409,-5.97931535366403,-6.570175596948841
1621784706442.478,-0.017,0.049,0.005,-2.5043373052245648,-6.027899035249887,-6.652179900262548
1621784706447.339,-0.019,0.044,0.009,-2.4860870760769935,-6.076463204337491,-6.73415126846774
1621784706448.694,-0.017047149894440533,0.04427897858650849,0.007326128480949029,-2.481,-6.09,-6.757
1621784706452.196,-0.012,0.045,0.003,-2.502887302452316,-6.08553320358116,-6.778887302452316
1621784706457.049,-0.007,0.037,0.002,-2.5332188555858313,-6.079343090696769,-6.809218855585831
1621784706461.899,-0.002,0.03,0.0,-2.5635305722070845,-6.073157026080187,-6.839530572207085
1621784706464.374,-0.005574393069406668,0.02438309660521809,-0.0025531379067190493,-2.579,-6.07,-6.855
1621784706466.746,-0.009,0.019,-0.005,-2.59097634576377,-6.055143267280387,-6.846055640505539
1621784706471.59,0.0,0.012,-0.007,-2.6154331877047903,-6.024804400062413,-6.827790404119208
1621784706476.431,-0.009,0.007,-0.007,-2.63987400530504,-5.994485411140584,-6.809537135278515
1621784706480.021,-0.011227018022111162,-0.0019080720884446468,-0.013681054066333485,-2.658,-5.972,-6.796
1621784706481.267,-0.012,-0.005,-0.016,-2.662629333666943,-5.965774344378939,-6.7881780224248205
1621784706486.101,-0.026,-0.019,-0.019,-2.6805879556507732,-5.9416230941248225,-6.757834143900418
1621784706490.932,-0.035,-0.035,-0.035,-2.69853478662017,-5.9174877007521856,-6.727510188124541
1621784706495.633,-0.03792111650485437,-0.04473705501618123,-0.03792111650485437,-2.716,-5.894,-6.698
1621784706495.76,-0.038,-0.045,-0.038,-2.714883508079051,-5.894,-6.698635666933096
1621784706500.583,-0.056,-0.051,-0.038,-2.672467550582225,-5.894,-6.722784898208661
1621784706505.404,-0.063,-0.063,-0.047,-2.6300687698841823,-5.894,-6.746924349992947
1621784706510.221,-0.077,-0.068,-0.049,-2.5877064898835553,-5.894,-6.771043020358268
1621784706511.211,-0.07843954762146263,-0.0684112993204179,-0.049,-2.579,-5.894,-6.776
1621784706515.035,-0.084,-0.07,-0.049,-2.5332456300158626,-5.932620624126396,-6.826674194713615
1621784706519.845,-0.082,-0.08,-0.059,-2.4756926326700484,-5.9812003046817335,-6.890415686397688
1621784706524.653,-0.082,-0.087,-0.056,-2.4181630047272784,-6.02976025945063,-6.954131295839681
1621784706526.756,-0.07981159493928154,-0.08875072404857476,-0.057313043036431074,-2.393,-6.051,-6.982
1621784706529.458,-0.077,-0.091,-0.059,-2.3759255982367757,-6.076611602644837,-7.0060435453400505
1621784706534.259,-0.068,-0.098,-0.054,-2.345586020151133,-6.1221209697733,-7.048766624685139
1621784706539.057,-0.058,-0.098,-0.056,-2.315266498740554,-6.167600251889169,-7.091461460957179
1621784706542.264,-0.05064014669179443,-0.09532368970610706,-0.056,-2.295,-6.198,-7.12
1621784706543.85,-0.047,-0.094,-0.056,-2.2869025810115797,-6.201997460006942,-7.12
1621784706548.642,-0.033,-0.094,-0.059,-2.262439576562648,-6.214074133089326,-7.12
1621784706553.43,-0.019,-0.099,-0.054,-2.2379977597576755,-6.226140346448743,-7.12
1621784706557.739,-0.00639028373137375,-0.10260277607675035,-0.04949652990406206,-2.216,-6.237,-7.12
1621784706558.214,-0.005,-0.103,-0.049,-2.214184644088164,-6.2351846440881635,-7.116369288176328
1621784706562.996,0.009,-0.108,-0.044,-2.195912611074218,-6.2169126110742186,-7.079825222148436
1621784706567.773,0.021,-0.103,-0.047,-2.177660168231983,-6.198660168231983,-7.043320336463966
1621784706572.548,0.03,-0.115,-0.042,-2.159414255446985,-6.180414255446984,-7.006828510893969
1621784706573.18,0.03066216354518473,-0.115,-0.04173513458192611,-2.157,-6.178,-7.002
1621784706577.319,0.035,-0.115,-0.04,-2.125563400370846,-6.1648342445997555,-6.962502733799268
1621784706582.088,0.037,-0.11,-0.042,-2.0893447439737556,-6.149665747476188,-6.916997242428565
1621784706586.853,0.037,-0.11,-0.03,-2.0531539010126942,-6.134508898714718,-6.871526696144155
1621784706588.585,0.034817342700374336,-0.1085448951335829,-0.029272447566791447,-2.04,-6.129,-6.855
1621784706591.614,0.031,-0.106,-0.028,-2.026402747776366,-6.1136291931385,-6.847314596569251
1621784706596.372,0.03,-0.091,-0.024,-2.005044091486658,-6.089484625158831,-6.835242312579416
1621784706601.127,0.031,-0.086,-0.016,-1.9836996823379924,-6.0653561626429475,-6.8231780813214735
1621784706603.956,0.029213933415536374,-0.07945108919030004,-0.011832511302918208,-1.971,-6.051,-6.816
1621784706605.879,0.028,-0.075,-0.009,-1.9796497103202395,-6.045985675176673,-6.828285095817152
1621784706610.627,0.028,-0.068,0.0,-2.0010082128987077,-6.033603934551474,-6.858620360348889
1621784706615.372,0.033,-0.056,0.005,-2.0223535366397147,-6.02122983383205,-6.8889369071114785
1621784706619.295,0.027209133501518816,-0.04690006693095814,0.008309066570560675,-2.04,-6.011,-6.914
1621784706620.114,0.026,-0.045,0.009,-2.0473318711118202,-6.008912825011964,-6.916087174988036
1621784706624.852,0.026,-0.026,0.012,-2.0897430850215346,-5.996839559738396,-6.928160440261605
1621784706629.588,0.024,-0.019,0.017,-2.1321346307226032,-5.984771893443931,-6.94022810655607
1621784706634.319,0.026,-0.012,0.017,-2.1744846546498646,-5.972716047216462,-6.952283952783539
1621784706634.6,0.026,-0.011584047496128033,0.016821734641197728,-2.177,-5.972,-6.953
1621784706639.048,0.026,-0.005,0.014,-2.2000151910069237,-5.954811439627741,-6.961448614420264
1621784706643.773,0.031,-0.002,0.017,-2.224462909957305,-5.936553016614165,-6.970423093528631
1621784706648.495,0.031,-0.003,0.019,-2.2488967331339844,-5.918304971456898,-6.979392471656779
1621784706649.868,0.0307090899684412,-0.002127269905323607,0.018418179936882405,-2.256,-5.913,-6.982
1621784706653.214,0.03,0.0,0.017,-2.2687405721612306,-5.891472826348266,-6.986393300745252
1621784706657.929,0.026,0.003,0.017,-2.2866922670085743,-5.861140652295857,-6.992583540347784
1621784706662.641,0.03,0.007,0.019,-2.3046337366776184,-5.830825755268852,-6.9987702540267644
1621784706665.101,0.025298423890501867,0.009611986727498963,0.017955205309000414,-2.314,-5.815,-7.002
1621784706667.35,0.021,0.012,0.017,-2.344478325811477,-5.796209964184187,-6.988980132663058
1621784706672.056,0.014,0.009,0.016,-2.408250550085926,-5.756894078345085,-6.961737629089507
1621784706676.758,0.005,0.007,0.012,-2.471973146170278,-5.717608788526091,-6.934516325907842
1621784706680.302,-0.004050345508390919,0.0017206317867719647,0.00973741362290227,-2.52,-5.688,-6.914
1621784706681.457,-0.007,0.0,0.009,-2.526016564713458,-5.688,-6.912476819059884
1621784706686.153,-0.021,0.005,0.007,-2.5504783322601416,-5.688,-6.90628396651642
1621784706690.845,-0.033,0.0,-0.002,-2.5749184803605925,-5.688,-6.900096587250483
1621784706695.468,-0.03990015616866215,-0.004928682977615825,-2.8526808953670182e-05,-2.599,-5.688,-6.894
1621784706695.535,-0.04,-0.005,0.0,-2.5987391949665244,-5.688,-6.894388997338066
1621784706700.221,-0.054,-0.002,-0.007,-2.580469516818585,-5.688,-6.92163868677906
1621784706704.903,-0.056,-0.003,-0.009,-2.562215068161652,-5.688,-6.948865661047027
1621784706709.582,-0.059,-0.003,-0.009,-2.543972993466161,-5.688,-6.976074179236912
1621784706710.601,-0.06052550514279747,-0.004525505142797473,-0.009217929306113924,-2.54,-5.688,-6.982
1621784706714.258,-0.066,-0.01,-0.01,-2.549446499894892,-5.688,-6.965529179670445
1621784706718.93,-0.073,-0.01,-0.012,-2.56151461004835,-5.688,-6.944487346582364
1621784706723.6,-0.079,-0.017,-0.01,-2.5735783056548245,-5.688,-6.923453210653126
1621784706725.699,-0.08529750941816659,-0.016550177898702386,-0.012698932607785684,-2.579,-5.688,-6.914
1621784706728.266,-0.093,-0.016,-0.016,-2.592463726538948,-5.694646649810366,-6.890481085286395
1621784706732.929,-0.106,-0.021,-0.021,-2.6169186683522967,-5.706719342604298,-6.847762326169406
1621784706737.589,-0.119,-0.026,-0.017,-2.641359525430322,-5.718785082174463,-6.805068170767286
1621784706740.762,-0.12717744218971214,-0.021229825389334593,-0.02177017461066541,-2.658,-5.727,-6.776
1621784706742.245,-0.131,-0.019,-0.024,-2.659874908630184,-5.735683787339799,-6.783795672725501
1621784706746.898,-0.138,-0.026,-0.017,-2.665756720757598,-5.762925864561506,-6.808251628413171
1621784706751.548,-0.14,-0.023,-0.017,-2.671635137988727,-5.790152218053052,-6.8326934684794445
1621784706755.792,-0.14,-0.01751928533893852,-0.012432737782448765,-2.677,-5.815,-6.855
1621784706756.194,-0.14,-0.017,-0.012,-2.678045663215472,-5.815536237546397,-6.858405108419614
1621784706760.837,-0.133,-0.019,-0.014,-2.6901193592498536,-5.821727876538387,-6.897722016018754
1621784706765.477,-0.127,-0.019,-0.012,-2.7021860714983394,-5.827915934101712,-6.937016181545875
1621784706770.113,-0.113,-0.012,-0.016,-2.7142419906231687,-5.83409845672983,-6.976275200234421
1621784706770.789,-0.11154117275169907,-0.013021179073810653,-0.015708234550339813,-2.716,-5.835,-6.982
1621784706774.747,-0.103,-0.019,-0.014,-2.695365968278833,-5.824682984139416,-6.982
1621784706779.377,-0.098,-0.016,-0.014,-2.6712292931270807,-5.81261464656354,-6.982
1621784706784.004,-0.091,-0.012,-0.012,-2.6471078911298216,-5.8005539455649116,-6.982
1621784706785.751,-0.08911007817451932,-0.0108660469047116,-0.011244031269807733,-2.638,-5.796,-6.982
1621784706788.626,-0.086,-0.009,-0.01,-2.638,-5.784635621636652,-6.957537694031438
1621784706793.247,-0.084,-0.002,-0.005,-2.638,-5.766369236305347,-6.9182185256064255
1621784706797.864,-0.084,0.003,-0.003,-2.638,-5.748119256751231,-6.8789346713119714
1621784706800.677,-0.08582937284996031,0.008488118549880921,-0.004219581899973538,-2.638,-5.737,-6.855
1621784706802.477,-0.087,0.012,-0.005,-2.645131963799718,-5.735791192576319,-6.857296734104994
1621784706807.087,-0.091,0.014,0.003,-2.663396678361806,-5.732695478243762,-6.863178591336853
1621784706811.694,-0.099,0.014,0.0,-2.681650752533036,-5.729601567367283,-6.869057022002164
1621784706815.568,-0.099,0.0224144660091208,0.0,-2.697,-5.727,-6.874
1621784706816.298,-0.099,0.024,0.0,-2.7037309145880575,-5.725083900226758,-6.880288737717309
1621784706820.898,-0.106,0.023,0.005,-2.74614468106083,-5.71300990831115,-6.919916198363403
1621784706825.495,-0.106,0.028,0.005,-2.7885336849715734,-5.700942965592033,-6.95952052318512
1621784706830.088,-0.108,0.019,0.0,-2.830882168326268,-5.688887557921719,-6.999086989385126
1621784706830.426,-0.10851555437383674,0.018631746875830895,0.0002209518745014624,-2.834,-5.688,-7.002
1621784706834.679,-0.115,0.014,0.003,-2.893100446318286,-5.682262092590458,-7.058231492613515
1621784706839.267,-0.122,0.01,0.0,-2.9568590391804874,-5.676071937943642,-7.118895008152308
1621784706843.851,-0.122,0.007,-0.007,-3.0205599565210233,-5.669887382862036,-7.179503647952042
1621784706845.25,-0.11986182632336478,0.003945466176235406,-0.010054533823764594,-3.04,-5.668,-7.198
1621784706848.431,-0.115,-0.003,-0.017,-3.035698012282903,-5.6996196097206635,-7.223381727530873
1621784706853.008,-0.108,-0.014,-0.019,-3.029507693323648,-5.745118454071188,-7.259904609390477
1621784706857.582,-0.094,-0.021,-0.03,-3.0233216667767286,-5.790585749191045,-7.296402166017302
1621784706860.038,-0.08486578005661485,-0.02368653527746622,-0.03,-3.02,-5.815,-7.316
1621784706862.153,-0.077,-0.026,-0.03,-3.003226798834977,-5.820734427748726,-7.293492371086251
1621784706866.721,-0.063,-0.028,-0.037,-2.967000711590653,-5.8331194148408025,-7.244881296749851
1621784706871.285,-0.051,-0.037,-0.037,-2.9308056033626797,-5.845493810816178,-7.196311792546501
1621784706874.791,-0.04561789270799871,-0.035462255059428203,-0.042382107292001286,-2.903,-5.855,-7.159
1621784706875.845,-0.044,-0.035,-0.044,-2.89669875101594,-5.850775298976597,-7.14145674998756
1621784706880.403,-0.024,-0.038,-0.04,-2.869447345286868,-5.832504470135515,-7.065586359037304
1621784706884.958,-0.026,-0.042,-0.045,-2.842214914826917,-5.8142463633498656,-6.989768796961303
1621784706889.509,-0.023,-0.045,-0.045,-2.815005838544345,-5.796003914478595,-6.9140162550382325
1621784706889.51,-0.02299957053897359,-0.04499935580846038,-0.044999785269486794,-2.815,-5.796,-6.914
1621784706894.057,-0.021,-0.042,-0.044,-2.802616609594734,-5.768446956348283,-6.877468998304465
1621784706898.6,-0.03,-0.042,-0.04,-2.7902431929252964,-5.740916104258785,-6.840967419129625
1621784706903.142,-0.037,-0.038,-0.042,-2.7778731008344693,-5.7133926493566936,-6.804475647461684
1621784706904.197,-0.039789691720019366,-0.03892989724000646,-0.04316237155000807,-2.775,-5.707,-6.796
1621784706907.68,-0.049,-0.042,-0.047,-2.7609741043159475,-5.707,-6.7867286452257956
1621784706912.215,-0.052,-0.045,-0.045,-2.742710748208632,-5.707,-6.774656257290451
1621784706916.746,-0.068,-0.038,-0.04,-2.7244641059823365,-5.707,-6.762594917513748
1621784706918.848,-0.06985718908424118,-0.03892859454212059,-0.04185718908424118,-2.716,-5.707,-6.757
1621784706921.273,-0.072,-0.04,-0.044,-2.716,-5.715295750651433,-6.763470685508118
1621784706925.798,-0.075,-0.045,-0.044,-2.716,-5.730775639740763,-6.775544998997795
1621784706930.32,-0.084,-0.044,-0.044,-2.716,-5.746244671610877,-6.787610843856484
1621784706933.464,-0.09026328019454202,-0.04608776006484734,-0.044,-2.716,-5.757,-6.796
1621784706934.838,-0.093,-0.047,-0.044,-2.714209972039446,-5.758790027960553,-6.805232775796541
1621784706939.353,-0.093,-0.047,-0.038,-2.7083267701374587,-5.764673229862541,-6.835577711922581
1621784706943.864,-0.101,-0.049,-0.04,-2.7024489761749293,-5.77055102382507,-6.865894754466154
1621784706948.046,-0.09450647170322231,-0.05363823449769835,-0.03814470620092066,-2.697,-5.776,-6.894
1621784706948.372,-0.094,-0.054,-0.038,-2.6961254930263006,-5.777322972088418,-6.8959732465047585
1621784706952.877,-0.098,-0.054,-0.037,-2.684047347308706,-5.795595038686829,-6.923226498380356
1621784706957.379,-0.099,-0.052,-0.04,-2.6719770564441685,-5.813855222302411,-6.950462026484954
1621784706961.878,-0.101,-0.054,-0.038,-2.659914620432688,-5.832103522935164,-6.97767983081855
1621784706962.592,-0.10020550847457628,-0.05288771186440678,-0.038,-2.658,-5.835,-6.982
1621784706966.372,-0.096,-0.047,-0.038,-2.6374237194044916,-5.840209184960888,-6.987209184960888
1621784706970.865,-0.091,-0.047,-0.037,-2.6129668769450753,-5.8464007906468165,-6.993400790646817
1621784706975.353,-0.094,-0.049,-0.033,-2.588536613676508,-5.85258566742367,-6.999585667423669
1621784706977.105,-0.0920473469387755,-0.049,-0.033781061224489796,-2.579,-5.855,-7.002
1621784706979.839,-0.089,-0.049,-0.035,-2.579,-5.8512230616168095,-7.005776938383191
1621784706984.321,-0.082,-0.045,-0.028,-2.579,-5.845031702134835,-7.011968297865165
1621784706988.799,-0.075,-0.051,-0.028,-2.579,-5.838845738760919,-7.018154261239081
1621784706991.583,-0.0731336133995308,-0.04415658246494626,-0.025511484532707733,-2.579,-5.835,-7.022
1621784706993.274,-0.072,-0.04,-0.024,-2.5720930818247894,-5.832658671805013,-7.015093081824789
1621784706997.746,-0.07,-0.037,-0.024,-2.553825549752379,-5.8264662880516545,-6.996825549752379
1621784707002.215,-0.07,-0.033,-0.023,-2.535570981863665,-5.820278298936836,-6.9785709818636645
1621784707006.027,-0.06829280559807567,-0.025317625191340475,-0.023,-2.52,-5.815,-6.963
1621784707006.681,-0.068,-0.024,-0.023,-2.52,-5.814137987700544,-6.9625463093160755
1621784707011.143,-0.065,-0.026,-0.019,-2.52,-5.808254866417064,-6.959449929693191
1621784707015.602,-0.065,-0.031,-0.016,-2.52,-5.802375929659309,-6.956355752452268
1621784707020.058,-0.068,-0.016,-0.014,-2.52,-5.796500855540685,-6.953263608179308
1621784707020.438,-0.06782933918289005,-0.016,-0.013402687140115164,-2.52,-5.796,-6.953
1621784707024.51,-0.066,-0.016,-0.007,-2.5256650363426396,-5.801381784525508,-6.966879339039467
1621784707028.959,-0.066,-0.012,-0.002,-2.531854493580599,-5.8072617689015695,-6.982043509272468
1621784707033.404,-0.063,-0.002,-0.005,-2.5380385164051353,-5.813136590584879,-6.997194365192581
1621784707034.814,-0.06173062973953181,-0.0013653148697659085,-0.003413287174414771,-2.54,-5.815,-7.002
1621784707037.847,-0.059,0.0,0.0,-2.5524777753187724,-5.819229754345347,-6.997770245654653
1621784707042.286,-0.052,0.005,-0.002,-2.570739943140226,-5.8254203197085515,-6.991579680291449
1621784707046.722,-0.049,0.0,0.0,-2.588990058051446,-5.831606799339474,-6.985393200660527
1621784707049.155,-0.049,0.0,0.0,-2.599,-5.835,-6.982
1621784707051.154,-0.049,0.0,0.0,-2.601655129452324,-5.8322051268922905,-6.979344870547677
1621784707055.584,-0.044,0.007,0.002,-2.6075390234328335,-5.826011554281228,-6.973460976567167
1621784707060.01,-0.04,0.0,0.0,-2.6134177290802656,-5.819823443073405,-6.967582270919735
1621784707063.46,-0.03766004305348568,0.003899928244190539,0.003899928244190539,-2.618,-5.815,-6.963
1621784707064.433,-0.037,0.005,0.005,-2.6193637141195385,-5.815,-6.95965890040713
1621784707068.853,-0.04,0.01,0.005,-2.625557562694584,-5.815,-6.9444839713982685
1621784707073.268,-0.04,0.007,0.009,-2.631744568750214,-5.815,-6.929325806561976
1621784707077.681,-0.038,0.009,0.005,-2.6379284956721065,-5.815,-6.914175185603339
1621784707077.732,-0.038,0.009034709920283436,0.0050231399468556245,-2.638,-5.815,-6.914
1621784707082.091,-0.038,0.012,0.007,-2.638,-5.815,-6.90175356230388
1621784707086.498,-0.04,0.017,0.012,-2.638,-5.815,-6.889372691575644
1621784707090.901,-0.04,0.031,0.009,-2.638,-5.815,-6.877003480855295
1621784707091.97,-0.03927093623397525,0.030756978744658416,0.009243021255341584,-2.638,-5.815,-6.874
1621784707095.3,-0.037,0.03,0.01,-2.6333111034719834,-5.805856651770368,-6.894865589549673
1621784707099.696,-0.038,0.031,0.009,-2.6271213475421105,-5.7937866277071155,-6.922410003437608
1621784707104.09,-0.037,0.024,0.012,-2.620934341698178,-5.781721966311447,-6.9499421794431075
1621784707106.174,-0.03605055336188199,0.024949446638118013,0.012,-2.618,-5.776,-6.963
1621784707108.48,-0.035,0.026,0.012,-2.611652991246812,-5.772907867530498,-6.975694017506376
1621784707112.866,-0.03,0.031,0.014,-2.5995805706802675,-5.767026431869874,-6.999838858639466
1621784707117.25,-0.028,0.031,0.017,-2.5875135260872564,-5.761147615273279,-7.023972947825488
1621784707120.343,-0.023055586529884032,0.031,0.019825379125780553,-2.579,-5.757,-7.041
1621784707121.629,-0.021,0.031,0.021,-2.579,-5.757,-7.039271533930947
1621784707126.006,-0.021,0.04,0.017,-2.579,-5.757,-7.033387792113581
1621784707130.38,-0.016,0.04,0.016,-2.579,-5.757,-7.027508644662072
1621784707134.478,-0.018813296089385475,0.04,0.022564357541899442,-2.579,-5.757,-7.022
1621784707134.75,-0.019,0.04,0.023,-2.579385747428928,-5.756614252571072,-7.021228505142145
1621784707139.116,-0.016,0.042,0.019,-2.5855781363620625,-5.750421863637937,-7.008843727275876
1621784707143.48,-0.021,0.038,0.026,-2.5917677551161744,-5.7442322448838254,-6.996464489767652
1621784707147.84,-0.03,0.035,0.019,-2.597951833512241,-5.73804816648776,-6.984096332975518
1621784707148.579,-0.031356638655462184,0.03466084033613446,0.019339159663865547,-2.599,-5.737,-6.982
1621784707152.198,-0.038,0.033,0.021,-2.609032574363958,-5.714362396306966,-6.964507306237201
1621784707156.552,-0.049,0.031,0.021,-2.621103068272535,-5.687126410051716,-6.943461316858144
1621784707160.901,-0.065,0.038,0.016,-2.6331593488598104,-5.659922494880428,-6.9224401096803305
1621784707162.647,-0.07062327305402674,0.040409974166011456,0.015196675277996181,-2.638,-5.649,-6.914
1621784707165.248,-0.079,0.044,0.014,-2.6561660200086994,-5.638063314484558,-6.8958339799913
1621784707169.592,-0.098,0.04,0.017,-2.6865046715963463,-5.619798207916485,-6.865495328403654
1621784707173.933,-0.115,0.035,0.019,-2.716822862113963,-5.601545419747716,-6.8351771378860375
1621784707176.679,-0.12259590274651058,0.030569056731202162,0.017734016208914904,-2.736,-5.59,-6.816
1621784707178.271,-0.127,0.028,0.017,-2.742709783746076,-5.601145064527381,-6.827145064527381
1621784707182.605,-0.134,0.023,0.019,-2.7609757063132196,-5.631485071503313,-6.857485071503313
1621784707186.935,-0.148,0.021,0.014,-2.7792251656784095,-5.661797732821765,-6.887797732821765
1621784707190.678,-0.15751537550076172,0.02705523895503019,0.01659510240929865,-2.795,-5.688,-6.914
1621784707191.262,-0.159,0.028,0.017,-2.8027780458383593,-5.6839018898271005,-6.9217780458383595
1621784707195.586,-0.168,0.019,0.012,-2.8603687522945402,-5.653558399328682,-6.97936875229454
1621784707199.907,-0.178,0.019,0.012,-2.9179204384538733,-5.6232354679114,-7.036920438453873
1621784707204.225,-0.178,0.01,0.007,-2.975433104316358,-5.592933095575252,-7.094433104316358
1621784707204.643,-0.178,0.008837351443123939,0.006612450481041313,-2.981,-5.59,-7.1
1621784707208.539,-0.178,-0.002,0.003,-3.047001086556492,-5.562592769141795,-7.121813918438162
1621784707212.85,-0.171,-0.024,0.005,-3.1200332451236394,-5.532265855838489,-7.145951665761203
1621784707217.157,-0.168,-0.042,0.01,-3.1929950929706807,-5.501968139359633,-7.170066174795394
1621784707218.574,-0.1673416888788068,-0.04726648896954574,0.008354222197016956,-3.217,-5.492,-7.178
1621784707221.462,-0.166,-0.058,0.005,-3.2352899110939313,-5.487843202024107,-7.178
1621784707225.763,-0.168,-0.072,0.002,-3.262529184383456,-5.481652458094669,-7.178
1621784707230.06,-0.162,-0.082,0.002,-3.2897437185929648,-5.475467336683417,-7.178
1621784707232.469,-0.16143912005457026,-0.09265671896316507,0.0036826398362892225,-3.305,-5.472,-7.178
1621784707234.355,-0.161,-0.101,0.005,-3.310306472919419,-5.461387054161163,-7.188749009247028
1621784707238.646,-0.154,-0.11,0.007,-3.322379815059445,-5.43724036988111,-7.213205266402466
1621784707242.935,-0.152,-0.131,0.016,-3.3344476618229852,-5.413104676354029,-7.2376503918978425
1621784707246.33,-0.1480374992876275,-0.13813250128227048,0.012829999430102011,-3.344,-5.394,-7.257
1621784707247.219,-0.147,-0.14,0.012,-3.3553791295135516,-5.38326375915953,-7.253206956828816
1621784707251.5,-0.147,-0.157,0.017,-3.4101808422353668,-5.331558188399399,-7.234939719254878
1621784707255.778,-0.14,-0.159,0.012,-3.464945051646508,-5.279888002118831,-7.216684982784497
1621784707260.053,-0.133,-0.169,0.003,-3.519668632471087,-5.228256149024455,-7.198443789176305
1621784707260.157,-0.1328295805234884,-0.16887827180249174,0.002805234883986741,-3.521,-5.227,-7.198
1621784707264.325,-0.126,-0.164,-0.005,-3.521,-5.24482992282093,-7.112174608794166
1621784707268.593,-0.124,-0.161,-0.012,-3.521,-5.2630880478651845,-7.024288040784536
1621784707272.857,-0.127,-0.154,-0.017,-3.521,-5.281328418183105,-6.936486936203356
1621784707273.949,-0.127,-0.15169393366557826,-0.01751245918542705,-3.521,-5.286,-6.914
1621784707277.119,-0.127,-0.145,-0.019,-3.5117838092027043,-5.3108837151526975,-6.877826451120614
1621784707281.378,-0.131,-0.126,-0.023,-3.4994011498944153,-5.344316895285078,-6.829224513335581
1621784707285.633,-0.133,-0.112,-0.024,-3.487029847568009,-5.3777194115663765,-6.780667151704434
1621784707287.707,-0.13446330960036748,-0.10419568213137345,-0.020585610932475885,-3.481,-5.394,-6.757
1621784707289.885,-0.136,-0.096,-0.017,-3.5029037096343743,-5.384635370518637,-6.722715932746197
1621784707294.133,-0.148,-0.075,-0.019,-3.545625887376568,-5.366370091628859,-6.6558464371497195
1621784707298.378,-0.157,-0.061,-0.019,-3.588316146250334,-5.348118459211814,-6.589026901521217
1621784707301.429,-0.17498026012891343,-0.05236947513812155,-0.026911314456721916,-3.619,-5.335,-6.541
1621784707302.62,-0.182,-0.049,-0.03,-3.610471801091571,-5.360584596725288,-6.528207701637356
1621784707306.859,-0.201,-0.045,-0.042,-3.5801240680626405,-5.451627795812079,-6.482686102093961
1621784707311.094,-0.211,-0.049,-0.051,-3.5498025541326292,-5.542592337602112,-6.437203831198945
1621784707315.117,-0.20910999598554797,-0.04521999197109594,-0.0576150140505821,-3.521,-5.629,-6.394
1621784707315.351,-0.209,-0.045,-0.058,-3.521566973895643,-5.630424703635206,-6.399277218567141
1621784707320.338,-0.201,-0.044,-0.068,-3.5336431040232847,-5.660769851135433,-6.5116781220628805
1621784707325.324,-0.188,-0.035,-0.07,-3.5457174605099597,-5.691110541794258,-6.62406251705424
1621784707330.311,-0.176,-0.03,-0.077,-3.5577941818512566,-5.721457174908286,-6.736468923384773
1621784707331.222,-0.17326024379497723,-0.027625544622313605,-0.07791325206834092,-3.56,-5.727,-6.757
1621784707335.298,-0.161,-0.017,-0.082,-3.45829231258808,-5.687278340985892,-6.883502098771044
1621784707340.283,-0.133,-0.007,-0.084,-3.33391116970496,-5.638701625979301,-7.038205012804776
1621784707345.269,-0.096,-0.002,-0.079,-3.2094995681229257,-5.590113015411193,-7.192945810792381
1621784707347.333,-0.08068328273430614,0.002967583978062873,-0.0736184506904319,-3.158,-5.57,-7.257
1621784707350.255,-0.059,0.01,-0.066,-3.0566146968342247,-5.548598451210087,-7.294362025853577
1621784707355.241,-0.024,0.024,-0.044,-2.883603997757134,-5.5120774091866584,-7.358119099216513
1621784707360.227,0.005,0.042,-0.031,-2.710593298680043,-5.475556367163229,-7.421876172579448
1621784707363.443,0.02564531295915369,0.04845166029973553,-0.01680634734058184,-2.599,-5.452,-7.463
1621784707365.212,0.037,0.052,-0.009,-2.481599590723056,-5.4499133697135065,-7.475959072305594
1621784707370.197,0.079,0.072,0.016,-2.1507232681521904,-5.44403249962104,-7.5124823707745945
1621784707375.181,0.113,0.094,0.047,-1.8199279672578446,-5.438153069577081,-7.5489967257844475
1621784707379.549,0.15944086390126844,0.10626739801165581,0.07591600959890299,-1.53,-5.433,-7.581
1621784707380.166,0.166,0.108,0.08,-1.4916970321641858,-5.439013565950223,-7.56334233182769
1621784707385.151,0.213,0.124,0.126,-1.1822114772486132,-5.4876027980719675,-7.420669491011611
1621784707390.135,0.253,0.141,0.168,-0.8727713947918878,-5.536184891017673,-7.278017612999061
1621784707395.119,0.288,0.164,0.209,-0.5633464698214449,-5.584764604238033,-7.135372722587686
1621784707395.656,0.2904785696791575,0.16658633357825128,0.21352608376193974,-0.53,-5.59,-7.12
1621784707400.103,0.311,0.188,0.251,-0.39717481277098937,-5.7062565568054335,-6.965635593220339
1621784707405.086,0.314,0.209,0.29,-0.24834351596373672,-5.8365226190837145,-6.792669491525424
1621784707410.07,0.288,0.225,0.321,-0.09947575877020104,-5.966820593675147,-6.619661016949152
1621784707411.76,0.27680813326800585,0.2368701616854483,0.33185271925526705,-0.049,-6.011,-6.561
1621784707415.053,0.255,0.26,0.353,-0.22547812244155374,-6.0731661057036295,-6.5969909033021015
1621784707420.037,0.201,0.29,0.382,-0.4925896934412808,-6.167258710088238,-6.651465568998454
1621784707425.019,0.14,0.323,0.394,-0.7595835076867098,-6.2613098335304285,-6.705916219412353
1621784707427.863,0.1011890249877511,0.34069323860852524,0.3922877511024008,-0.912,-6.315,-6.737
1621784707430.002,0.072,0.354,0.391,-1.1569960419162584,-6.355389803005718,-6.80090623436102
1621784707434.985,0.01,0.384,0.377,-1.7277772554253044,-6.449488224321742,-6.949792223351178
1621784707439.967,-0.056,0.401,0.349,-2.2984186469722934,-6.543563594728621,-7.09864174034364
1621784707443.962,-0.09368798392629618,0.415433695971773,0.3225382240517495,-2.756,-6.619,-7.218
1621784707444.949,-0.103,0.419,0.316,-2.8377232129317926,-6.670743729718254,-7.220391001728687
1621784707449.931,-0.117,0.428,0.272,-3.2502000576229038,-6.931906863191095,-7.232458966427076
1621784707454.913,-0.094,0.433,0.232,-3.6626971158220365,-7.193082795014102,-7.244527522518424
1621784707459.894,-0.063,0.436,0.188,-4.075093106481061,-7.454194735086283,-7.256593121644982
1621784707460.062,-0.06158394589826521,0.43573027540919335,0.18601078114280115,-4.089,-7.463,-7.257
1621784707464.876,-0.021,0.428,0.129,-4.417668223802952,-7.553914595119288,-7.034199429724113
1621784707469.857,0.016,0.396,0.056,-4.75773765792547,-7.647982937224152,-6.803670104500022
1621784707474.837,0.054,0.361,-0.01,-5.097740418303429,-7.742032836364189,-6.573185976673289
1621784707476.159,0.06249286869578003,0.3498531098367887,-0.032293780326422585,-5.188,-7.767,-6.512
1621784707479.818,0.086,0.319,-0.094,-5.2748355628355625,-7.659933114933115,-6.393794521794521
1621784707484.799,0.103,0.276,-0.169,-5.393038068371402,-7.514191282191282,-6.232890587557254
1621784707489.78,0.103,0.241,-0.241,-5.511240573907241,-7.36844944944945,-6.071986653319986
1621784707492.256,0.09852514952446317,0.22807265418178252,-0.2703351308951858,-5.57,-7.296,-5.992
1621784707494.76,0.094,0.215,-0.3,-5.519744557549646,-7.167794165389808,-5.973640426597084
1621784707499.74,0.075,0.19,-0.349,-5.4197922842362365,-6.912807561023712,-5.937125354612618
1621784707504.719,0.049,0.169,-0.396,-5.319859611329399,-6.657870958933204,-5.900617443148201
1621784707508.349,0.03223428767526228,0.1617105598588097,-0.42661564859299933,-5.247,-6.472,-5.874
1621784707509.699,0.026,0.159,-0.438,-5.16799152015291,-6.449018764885242,-5.869051485869449
1621784707514.679,0.0,0.14,-0.489,-4.87650753174254,-6.364234674838064,-5.850795057720605
1621784707519.658,-0.019,0.124,-0.531,-4.585080702659243,-6.279467210752265,-5.832542209614539
1621784707524.443,-0.030532803765813476,0.1288053349024223,-0.554065607531627,-4.305,-6.198,-5.815
1621784707524.637,-0.031,0.129,-0.555,-4.2888178038120675,-6.197289091902392,-5.8152409857958
1621784707529.616,-0.026,0.124,-0.569,-3.8731758528590503,-6.179029318926794,-5.82143073934685
1621784707534.595,-0.024,0.119,-0.572,-3.4575339019060336,-6.160769545951196,-5.8276204928979
1621784707539.573,-0.016,0.12,-0.581,-3.0419734733519483,-6.142513354376594,-5.833809032414714
1621784707540.531,-0.014845542806707855,0.122693733451015,-0.5819620476610767,-2.962,-6.139,-5.835
1621784707544.552,-0.01,0.134,-0.586,-2.689836755132699,-6.121755496881686,-5.810507807165293
1621784707549.529,-0.009,0.143,-0.579,-2.3529624436654983,-6.100410843538034,-5.780192212561266
1621784707554.507,-0.007,0.152,-0.569,-2.0160220330495746,-6.079062002094051,-5.749870669640825
1621784707556.62,-0.00827341834232467,0.155820255026974,-0.5681510544384502,-1.873,-6.07,-5.737
1621784707559.485,-0.01,0.161,-0.567,-1.7262412578921806,-6.11363579103934,-5.675909892544925
1621784707564.463,-0.003,0.175,-0.559,-1.4712549781447304,-6.189450886352598,-5.5697687591063625
1621784707569.441,-0.016,0.194,-0.539,-1.216256192326372,-6.265269700097135,-5.463622419864012
1621784707572.706,-0.02977680761306779,0.21105699990189347,-0.5206309231825763,-1.049,-6.315,-5.394
1621784707574.418,-0.037,0.22,-0.511,-1.0261162720097146,-6.33596788099575,-5.382504918032787
1621784707579.394,-0.056,0.227,-0.487,-0.9595994231936854,-6.396915877352763,-5.3490918032786885
1621784707584.371,-0.084,0.237,-0.463,-0.8930695203400121,-6.457875834851245,-5.315672131147541
1621784707588.79,-0.09731861662987491,0.24055163110129996,-0.4390264900662252,-0.834,-6.512,-5.286
1621784707589.348,-0.099,0.241,-0.436,-0.8380587994170158,-6.517758638489099,-5.291758638489099
1621784707594.324,-0.113,0.244,-0.417,-0.8742629349608307,-6.569125189773486,-5.343125189773486
1621784707599.301,-0.124,0.244,-0.391,-0.9104741756239751,-6.620501821825469,-5.394501821825469
1621784707604.276,-0.131,0.236,-0.37,-0.9466694297686281,-6.671855772150361,-5.445855772150361
1621784707604.871,-0.13159807673437346,0.23516269257187714,-0.3666507702875086,-0.951,-6.678,-5.452
1621784707609.252,-0.136,0.229,-0.342,-1.0098515464856739,-6.726225572814649,-5.516300763752866
1621784707614.228,-0.127,0.222,-0.323,-1.076699084407598,-6.781003416389559,-5.589337888519412
1621784707619.204,-0.119,0.216,-0.305,-1.1435466223295223,-6.83578125996447,-5.662375013285959
1621784707620.95,-0.11022662806104921,0.21670186975511607,-0.2983322373263974,-1.167,-6.855,-5.688
1621784707624.179,-0.094,0.218,-0.286,-1.2123942624569077,-6.855,-5.7253598797211716
1621784707629.154,-0.075,0.208,-0.272,-1.282335611341443,-6.855,-5.782922228803134
1621784707634.128,-0.056,0.211,-0.257,-1.352259799231552,-6.855,-5.840470454234817
1621784707637.026,-0.04143772696044754,0.211,-0.24942761801943272,-1.393,-6.855,-5.874
1621784707639.103,-0.031,0.211,-0.244,-1.4246556311505285,-6.8473768071923224,-5.852422488154537
1621784707644.078,-0.017,0.218,-0.227,-1.5004721327906694,-6.829118955776941,-5.800743484995747
1621784707649.052,-0.01,0.227,-0.218,-1.576277472360588,-6.8108637923703075,-5.749072090268497
1621784707653.102,-0.014884385121209147,0.2286281283737364,-0.21392967906565905,-1.638,-6.796,-5.707
1621784707654.027,-0.016,0.229,-0.213,-1.650373889268626,-6.791510868079289,-5.703661927546138
1621784707659.0,-0.009,0.229,-0.201,-1.7168937495253285,-6.767378081567555,-5.685717035011772
1621784707663.974,-0.017,0.232,-0.19,-1.78342993848257,-6.743239371155161,-5.667767737525632
1621784707668.948,-0.033,0.229,-0.183,-1.8499628616997037,-6.719101845522898,-5.649819321029847
1621784707669.175,-0.03373052187147135,0.2286803966812313,-0.18295434238303304,-1.853,-6.718,-5.649
1621784707673.921,-0.049,0.222,-0.182,-1.9138363945733254,-6.677245522081947,-5.738777980341219
1621784707678.895,-0.047,0.215,-0.183,-1.977598969964906,-6.634530787110888,-5.832874208103551
1621784707683.867,-0.051,0.202,-0.182,-2.0413333789101076,-6.591834920924297,-5.926928869847925
1621784707685.245,-0.05238561610211095,0.19728890525282278,-0.18033726067746686,-2.059,-6.58,-5.953
1621784707688.84,-0.056,0.185,-0.176,-2.0722012612065037,-6.575748746391126,-5.988128779820697
1621784707693.812,-0.07,0.18,-0.176,-2.090458896824191,-6.569869168819328,-6.036712657650813
1621784707698.785,-0.075,0.171,-0.178,-2.1087201185230207,-6.563988436407841,-6.085306078103632
1621784707701.312,-0.0770329961700874,0.16591750957478152,-0.1800329961700874,-2.118,-6.561,-6.11
1621784707703.757,-0.079,0.161,-0.182,-2.1015655027805633,-6.584890889476403,-6.126282325948886
1621784707708.729,-0.077,0.145,-0.176,-2.0681467772814295,-6.633471814507551,-6.159391618804509
1621784707713.7,-0.063,0.134,-0.178,-2.0347346157352537,-6.6820431974959735,-6.192494408484516
1621784707717.38,-0.048937984876755374,0.11327703034469214,-0.18318074241382695,-2.01,-6.718,-6.217
1621784707718.672,-0.044,0.106,-0.185,-1.9958422164470582,-6.706899010623261,-6.210725527743582
1621784707723.644,-0.026,0.099,-0.195,-1.9413696560738005,-6.664187571239684,-6.186584279396343
1621784707728.615,-0.017,0.082,-0.208,-1.8869077949512911,-6.621484521041353,-6.162447772762504
1621784707733.444,-0.007287257549717652,0.0596606923643506,-0.20897127424502823,-1.834,-6.58,-6.139
1621784707733.587,-0.007,0.059,-0.209,-1.829376196990424,-6.5788707250342,-6.13664363885089
1621784707738.558,-0.009,0.045,-0.215,-1.668436236510108,-6.5395642346861225,-6.054626158990728
1621784707743.528,-0.017,0.03,-0.216,-1.5075357957136344,-6.50026739626083,-5.972628818969448
1621784707748.498,-0.037,0.023,-0.215,-1.3466353549171608,-6.460970557835537,-5.890631478948168
1621784707749.506,-0.040041844703108884,0.021783262118756447,-0.2141888414125043,-1.314,-6.453,-5.874
1621784707753.469,-0.052,0.017,-0.211,-1.2340454870243398,-6.474716040561291,-5.828100186995454
1621784707758.439,-0.079,0.016,-0.199,-1.1337723216321816,-6.501950727457927,-5.770535962418474
1621784707763.409,-0.094,0.019,-0.195,-1.033499156240023,-6.529185414354562,-5.712971737841494
1621784707765.565,-0.1052789703787395,0.02073522621211377,-0.19196335412880092,-0.99,-6.541,-5.688
1621784707768.379,-0.12,0.023,-0.188,-0.9935043020887173,-6.565004469307714,-5.72059000942507
1621784707773.348,-0.143,0.012,-0.187,-0.9996923170472166,-6.607392371773433,-5.778138548539114
1621784707778.317,-0.157,0.017,-0.18,-1.005880332005716,-6.649780274239154,-5.835687087653157
1621784707781.625,-0.166320493293372,0.015002751437134575,-0.17667125239522427,-1.01,-6.678,-5.874
1621784707783.286,-0.171,0.014,-0.175,-1.01,-6.7043766364092505,-5.901411014307652
1621784707788.256,-0.176,0.007,-0.166,-1.01,-6.783308808101081,-5.983438565281515
1621784707793.225,-0.171,0.002,-0.159,-1.01,-6.862221593759978,-6.06544596998586
1621784707797.682,-0.1566429414077861,0.00020536767597325993,-0.14284830908375934,-1.01,-6.933,-6.139
1621784707798.192,-0.155,0.0,-0.141,-1.013748623741598,-6.945167143161288,-6.140238951914596
1621784707803.161,-0.145,-0.007,-0.131,-1.0502712369597615,-7.06371087928465,-6.1523099850968705
1621784707808.129,-0.136,-0.028,-0.112,-1.0867866723440494,-7.182231317862465,-6.16437864594422
1621784707813.097,-0.14,-0.035,-0.096,-1.1233021077283372,-7.300751756440281,-6.176447306791569
1621784707813.736,-0.13974269005847956,-0.03718713450292398,-0.09535672514619883,-1.128,-7.316,-6.178
1621784707818.065,-0.138,-0.052,-0.091,-1.1385161275605638,-7.442732819319616,-6.214941268610186
1621784707823.032,-0.141,-0.066,-0.079,-1.1505825995711483,-7.588149276883069,-6.2573286190063415
1621784707828.0,-0.145,-0.08,-0.073,-1.1626514439527351,-7.733594324558601,-6.299724303116019
1621784707829.79,-0.14572076677316292,-0.0846849840255591,-0.06867539936102236,-1.167,-7.786,-6.315
1621784707832.967,-0.147,-0.093,-0.061,-1.1319661419119325,-7.848150460111035,-6.38308840215986
1621784707837.934,-0.134,-0.113,-0.044,-1.0771929272188,-7.9453187618830325,-6.489540299642559
1621784707842.901,-0.134,-0.117,-0.026,-1.022422404745608,-8.042482287626434,-6.595986964788197
1621784707845.841,-0.13104030474318015,-0.12291939051363972,-0.016528975178176454,-0.99,-8.1,-6.659
1621784707847.868,-0.129,-0.127,-0.01,-0.9950517220396738,-8.12601636850432,-6.683753437994402
1621784707852.835,-0.124,-0.124,0.014,-1.0074315443592552,-8.189772453450164,-6.744414567360351
1621784707857.8,-0.122,-0.122,0.026,-1.0198064987221613,-8.25350346841913,-6.805051843738591
1621784707861.89,-0.11952981076431556,-0.12529358564757925,0.041644531826001474,-1.03,-8.306,-6.855
1621784707862.767,-0.119,-0.126,0.045,-1.0466188208444276,-8.31671476607075,-6.8528679802206165
1621784707867.733,-0.112,-0.115,0.054,-1.1406980905287183,-8.377371137314569,-6.840798600228224
1621784707872.698,-0.129,-0.119,0.077,-1.2347634842145303,-8.438018562190948,-6.8287310003803725
1621784707877.664,-0.141,-0.124,0.089,-1.328847379231647,-8.498677915557247,-6.816661027006466
1621784707877.936,-0.13979484657749802,-0.12476691581431944,0.089,-1.334,-8.502,-6.816
1621784707882.629,-0.119,-0.138,0.089,-1.4802416311625077,-8.519256512477176,-6.775637309799148
1621784707887.594,-0.089,-0.15,0.075,-1.6349662203286672,-8.537514013998782,-6.732933323189288
1621784707892.559,-0.063,-0.169,0.065,-1.7896908094948265,-8.555771515520389,-6.690229336579428
1621784707893.981,-0.06042250196695515,-0.17300944138473642,0.06328166797797011,-1.834,-8.561,-6.678
1621784707897.524,-0.054,-0.183,0.059,-1.9400237442922375,-8.60650185692542,-6.470149284627093
1621784707902.489,-0.059,-0.197,0.063,-2.0886045662100456,-8.670267792998478,-6.17886896499239
1621784707907.453,-0.075,-0.218,0.054,-2.2371488584474886,-8.73401805175038,-5.887660258751903
1621784707910.021,-0.091037426843063,-0.2262773815964196,0.054,-2.314,-8.767,-5.737
1621784707912.417,-0.106,-0.234,0.054,-2.2818841704718418,-8.767,-5.808700456621005
1621784707917.381,-0.154,-0.246,0.045,-2.2153454337899543,-8.767,-5.9572520547945205
1621784707922.345,-0.23,-0.274,0.023,-2.1488099695586,-8.767,-6.105796347031963
1621784707926.061,-0.3168359809177199,-0.2972061673142183,-0.013680716077312742,-2.099,-8.767,-6.217
1621784707927.309,-0.346,-0.305,-0.026,-2.017306343601607,-8.750972482649457,-6.539028613174236
1621784707932.272,-0.466,-0.276,-0.07,-1.692449409472787,-8.687238646048947,-7.819583708754413
1621784707937.235,-0.567,-0.166,-0.063,-1.3675764945817606,-8.623501674175088,-9.100201798977231
1621784707942.102,-0.6513373671782763,-0.026745277449822913,0.001724025974025975,-1.049,-8.561,-10.356
1621784707942.198,-0.653,-0.024,0.003,-1.054049276156551,-8.566342421336255,-10.359344248070512
1621784707947.161,-0.707,0.11,0.094,-1.3152240489564782,-8.84268018450016,-10.532326117733023
1621784707952.124,-0.695,0.208,0.161,-1.5764116697873378,-9.119031541611484,-10.705316496932609
1621784707957.086,-0.593,0.267,0.187,-1.8375350504635337,-9.395314928985707,-10.878264328446818
1621784707958.14,-0.562420630626199,0.2710347779034876,0.17956751438831225,-1.893,-9.454,-10.915
1621784707962.049,-0.449,0.286,0.152,-1.981484289367921,-9.520789794178542,-10.984227377907684
1621784707967.01,-0.264,0.272,0.103,-2.0937751187431495,-9.605549263183534,-11.072080258190232
1621784707971.972,-0.068,0.234,0.068,-2.206088052612349,-9.69032541712337,-11.159950432346852
1621784707974.177,0.015098843788437885,0.2162248462484625,0.059556801968019685,-2.256,-9.728,-11.199
1621784707976.934,0.119,0.194,0.049,-2.3283921279025503,-9.532489668823754,-10.883638568709555
1621784707981.896,0.284,0.138,0.012,-2.458676162923487,-9.1806299352874,-10.316082938713361
1621784707986.857,0.431,0.059,-0.047,-2.5889345565283595,-8.828839451846212,-9.748639010277884
1621784707990.211,0.5229427193543624,-0.007928891294719756,-0.09567555730525072,-2.677,-8.591,-9.365
1621784707991.818,0.567,-0.04,-0.119,-2.6957464175308754,-8.366844975406215,-9.201795894437085
1621784707996.778,0.681,-0.159,-0.188,-2.753600316749661,-7.6750732179024475,-8.69812665417942
1621784708001.739,0.752,-0.304,-0.255,-2.8114656067735697,-6.983165258044376,-8.194358246912453
1621784708006.243,0.779236220472441,-0.4301944881889764,-0.3040251968503937,-2.864,-6.355,-7.737
1621784708006.7,0.782,-0.443,-0.309,-2.830153386848639,-6.281176174011059,-7.700929262311313
1621784708011.66,0.766,-0.553,-0.374,-2.462830847968805,-5.479998370169533,-7.309469269318061
1621784708016.621,0.721,-0.618,-0.403,-2.0954179068102543,-4.678623387305601,-6.917912933542521
1621784708021.581,0.654,-0.618,-0.394,-1.72809536793042,-3.8774455834640755,-6.526452940549269
1621784708022.271,0.6405044308782986,-0.6150782788499409,-0.38940872390705006,-1.677,-3.766,-6.472
1621784708026.54,0.557,-0.597,-0.361,-1.3558041124057574,-3.293261442388242,-6.273582971593939
1621784708031.5,0.443,-0.52,-0.304,-0.9826246744345443,-2.7440130987738938,-6.043053385119184
1621784708036.459,0.302,-0.476,-0.225,-0.6095187114461962,-2.1948728961998327,-5.812569187419085
1621784708038.3,0.2340730950974601,-0.47340170309115964,-0.2075542921835007,-0.471,-1.991,-5.727
1621784708041.419,0.119,-0.469,-0.178,-0.6179442243822175,-1.9374772692647553,-5.707926445047076
1621784708046.378,-0.08,-0.428,-0.164,-0.8515826655291142,-1.8523771748072764,-5.67759986593132
1621784708051.337,-0.271,-0.363,-0.141,-1.085221106676011,-1.7672770803497975,-5.6472732868155635
1621784708054.325,-0.37285104392357693,-0.3262371971636793,-0.10544253496159148,-1.226,-1.716,-5.629
1621784708056.295,-0.44,-0.302,-0.082,-1.2343592376483492,-1.9028535474336903,-5.838718521001233
1621784708061.253,-0.571,-0.227,-0.017,-1.2553977056323222,-2.3731251847224972,-6.3665365560109075
1621784708066.212,-0.663,-0.145,0.049,-1.2764403174941727,-2.8434894498697423,-6.894458553603803
1621784708070.35,-0.7097402009060468,-0.08073222375418555,0.11326777624581447,-1.294,-3.236,-7.335
1621784708071.17,-0.719,-0.068,0.126,-1.3637856598714082,-3.34937611603742,-7.401255446872048
1621784708076.128,-0.716,-0.017,0.206,-1.7858247249900967,-4.035034890453119,-7.801945028491331
1621784708081.085,-0.668,0.033,0.284,-2.207780662461529,-4.720558612914038,-8.202555687600938
1621784708086.042,-0.585,0.075,0.358,-2.6297365999329614,-5.406082335374958,-8.603166346710548
1621784708086.374,-0.5786379751821942,0.0740624384479023,0.35974118573961,-2.658,-5.452,-8.63
1621784708091.0,-0.49,0.061,0.384,-3.255412636006217,-5.661628600164579,-8.703629880223096
1621784708095.957,-0.38,0.009,0.374,-3.8955786778824177,-5.886259120416933,-8.78252902989851
1621784708100.914,-0.274,-0.073,0.358,-4.535744719758618,-6.110889640669288,-8.861428179573924
1621784708102.395,-0.25009929078014187,-0.10138209219858156,0.36098758865248226,-4.727,-6.178,-8.885
1621784708105.871,-0.194,-0.168,0.368,-4.756728503063371,-6.2504767884902614,-8.876537141463713
1621784708110.827,-0.138,-0.265,0.38,-4.7991121864236295,-6.353806352302862,-8.864471713353858
1621784708115.783,-0.094,-0.34,0.391,-4.841497957752918,-6.457141006492517,-8.852405690858658
1621784708118.414,-0.07276871552403467,-0.3697237982663515,0.3920615642237983,-4.864,-6.512,-8.846
1621784708120.74,-0.054,-0.396,0.393,-4.760011524917298,-6.539013765873439,-8.862992530146196
1621784708125.696,-0.021,-0.447,0.398,-4.53843431864262,-6.596574325045353,-8.89919997865756
1621784708130.652,0.044,-0.508,0.407,-4.316857112367943,-6.6541348842172665,-8.935407427168926
1621784708134.429,0.12327469820152746,-0.5651692535107169,0.40547548657304755,-4.148,-6.698,-8.963
1621784708135.607,0.148,-0.583,0.405,-4.156679380468916,-6.616502088478308,-8.907466675813286
1621784708140.563,0.264,-0.667,0.384,-4.1931957376749285,-6.273619683526937,-8.673823881825665
1621784708145.517,0.34,-0.744,0.342,-4.229697704198299,-5.930872404646483,-8.44027316381597
1621784708150.444,0.3767921655580192,-0.8056517368810052,0.3002359201773836,-4.266,-5.59,-8.208
1621784708150.472,0.377,-0.806,0.3,-4.263834464043419,-5.5882950314820174,-8.206074306709558
1621784708155.427,0.38,-0.857,0.251,-3.878293080054274,-5.284750811824432,-7.863233332825149
1621784708160.382,0.386,-0.873,0.209,-3.492751696065129,-4.981206592166847,-7.52039235894074
1621784708165.337,0.387,-0.878,0.183,-3.1072293080054276,-4.677677328373455,-7.17756827710274
1621784708166.458,0.3858685196136409,-0.8759633353045535,0.17983185491819437,-3.02,-4.609,-7.1
1621784708170.291,0.382,-0.869,0.169,-2.649148939414734,-4.489293395550269,-6.97095628040319
1621784708175.244,0.382,-0.833,0.157,-2.1699479543132503,-4.33461263857755,-6.804210424386599
1621784708180.198,0.394,-0.782,0.145,-1.690628863778459,-4.179893758482395,-6.637423471644022
1621784708182.468,0.3999567317169328,-0.7554238123398384,0.13995968854721072,-1.471,-4.109,-6.561
1621784708185.152,0.407,-0.724,0.134,-1.3164076164040934,-4.044949793347466,-6.442624487181442
1621784708190.106,0.412,-0.658,0.141,-1.0310852537022068,-3.9267359727920206,-6.224145541338133
1621784708195.059,0.408,-0.599,0.168,-0.7458050755692477,-3.808539630008083,-6.005698897344782
1621784708198.476,0.3866088842873342,-0.554147660602475,0.1893911157126658,-0.549,-3.727,-5.855
1621784708200.011,0.377,-0.534,0.199,-0.5621378737034778,-3.674256711409396,-5.7703230475899945
1621784708204.965,0.321,-0.469,0.23,-0.6045418395363027,-3.504021812080537,-5.497018654667481
1621784708209.917,0.244,-0.419,0.258,-0.6469269981696156,-3.3338624161073827,-5.22383547895058
1621784708214.482,0.16566157334384857,-0.37844834384858045,0.2699811711356467,-0.686,-3.177,-4.972
1621784708214.87,0.159,-0.375,0.271,-0.7007480510762941,-3.1717848174647973,-4.968434270545699
1621784708219.823,0.065,-0.326,0.278,-0.8889201971044562,-3.1052436803002337,-4.922938702344811
1621784708224.774,-0.024,-0.288,0.29,-1.0770181391020457,-3.0387287830477963,-4.877461074921052
1621784708229.726,-0.108,-0.243,0.3,-1.265162458618743,-2.97219748585028,-4.8319722345115865
1621784708230.485,-0.1194960804614702,-0.23886141103387074,0.30383202682049004,-1.294,-2.962,-4.825
1621784708234.678,-0.183,-0.216,0.325,-1.5201391821788222,-3.0673394568202625,-4.92509868782423
1621784708239.63,-0.264,-0.183,0.349,-1.787216219102838,-3.1917484589563627,-5.043318187366494
1621784708244.581,-0.333,-0.162,0.372,-2.054253753433018,-3.3161390601159595,-5.1615202014037225
1621784708246.486,-0.35878041323536664,-0.15391957197100448,0.38046521031609054,-2.157,-3.364,-5.207
1621784708249.532,-0.4,-0.141,0.394,-2.4353019835215135,-3.4517545926151967,-5.345199206591395
1621784708254.483,-0.447,-0.147,0.408,-2.887665395178517,-3.5943944919133353,-5.569833841928593
1621784708259.434,-0.482,-0.161,0.417,-3.3400511138236193,-3.7370414250839183,-5.794479554470552
1621784708262.487,-0.504203699136868,-0.17888631319358816,0.41144907521578294,-3.619,-3.825,-5.933
1621784708264.384,-0.518,-0.19,0.408,-3.71658148690716,-3.900527833730086,-6.049315235304889
1621784708269.335,-0.545,-0.227,0.387,-3.9712603766099006,-4.0976486754562655,-6.352887520600622
1621784708274.285,-0.555,-0.258,0.377,-4.2258890313129465,-4.294730635414759,-6.656399926753341
1621784708278.486,-0.5388749260209115,-0.29194752416650227,0.34729591635431056,-4.442,-4.462,-6.914
1621784708279.235,-0.536,-0.298,0.342,-4.437411321215452,-4.498756253529295,-6.953940234726737
1621784708284.185,-0.48,-0.333,0.319,-4.407086854997482,-4.741661416601803,-7.217886864154572
1621784708289.134,-0.401,-0.347,0.295,-4.376768371411566,-4.984518657570624,-7.48178142026464
1621784708294.084,-0.298,-0.353,0.281,-4.346443905193596,-5.227423820643133,-7.745728049692475
1621784708294.483,-0.2890525381086281,-0.35243574564649005,0.2790654136451088,-4.344,-5.247,-7.767
1621784708299.033,-0.187,-0.346,0.257,-4.268995152291229,-5.408374066282509,-7.5718169303942195
1621784708303.982,-0.063,-0.346,0.248,-4.187414250434465,-5.583896612701607,-7.35952117442605
1621784708308.933,0.047,-0.33,0.232,-4.105797127961218,-5.759497088325864,-7.147131162535443
1621784708310.498,0.08179054620812157,-0.32873488922879557,0.22440933537277347,-4.08,-5.815,-7.08
1621784708313.881,0.157,-0.326,0.208,-4.081914332202557,-5.721197722074693,-6.79221205888222
1621784708318.801,0.243,-0.319,0.176,-4.084698313045881,-5.584782660751838,-6.373686938769245
1621784708323.721,0.311,-0.311,0.148,-4.087482293889205,-5.448367599428983,-5.95516181865627
1621784708326.403,0.332805190294249,-0.3022779238823004,0.13382662630873815,-4.089,-5.374,-5.727
1621784708328.641,0.351,-0.295,0.122,-4.084917769724517,-5.288413930776081,-5.602703126439606
1621784708333.56,0.382,-0.271,0.098,-4.075945502288013,-5.100305703141795,-5.32951305242468
1621784708338.479,0.387,-0.236,0.068,-4.066973234851509,-4.912197475507509,-5.056322978409755
1621784708342.302,0.38078241016478065,-0.2111296406591225,0.06022801270597578,-4.06,-4.766,-4.844
1621784708343.398,0.379,-0.204,0.058,-4.07689356701791,-4.749795966329759,-4.8135915793677615
1621784708348.315,0.368,-0.168,0.058,-4.152686937421277,-4.677096202881632,-4.677163512641701
1621784708353.233,0.347,-0.147,0.054,-4.228495361125618,-4.604382000552978,-4.540708349973887
1621784708358.15,0.311,-0.129,0.03,-4.304288731528985,-4.53168223710485,-4.404280283247826
1621784708358.196,0.3106527805362463,-0.12866216484607745,0.029849851042701093,-4.305,-4.531,-4.403
1621784708363.067,0.274,-0.093,0.014,-4.175641130828915,-4.696223768917569,-4.403
1621784708367.983,0.253,-0.056,0.019,-4.045082753322578,-4.86297961127756,-4.403
1621784708372.898,0.232,-0.012,0.007,-3.914550311131597,-5.029702327725283,-4.403
1621784708374.086,0.2298250893921335,-0.0018504171632896319,0.005308402860548272,-3.883,-5.07,-4.403
1621784708377.814,0.223,0.03,0.0,-3.770335720983138,-5.132200070707226,-4.61471495765252
1621784708382.729,0.232,0.101,0.0,-3.621798899426657,-5.214204774274867,-4.893840401494074
1621784708387.644,0.234,0.148,0.003,-3.4732620778701753,-5.296209477842507,-5.172965845335629
1621784708389.969,0.235419084045301,0.1607717564077091,0.003946056030200675,-3.403,-5.335,-5.305
1621784708392.559,0.237,0.175,0.005,-3.583731426814268,-5.238925261377614,-5.519333118081181
1621784708397.472,0.222,0.185,-0.002,-3.926540221402214,-5.0566920664206645,-5.925877121771217
1621784708402.385,0.195,0.176,-0.019,-4.2693660516605165,-4.8744498154981555,-6.332441328413283
1621784708405.848,0.15342329093799684,0.15626868044515102,-0.03732193958664547,-4.511,-4.746,-6.619
1621784708407.299,0.136,0.148,-0.045,-4.5863180273416475,-4.763092804748651,-6.675488520506235
1621784708412.211,0.079,0.113,-0.073,-4.8412513032646975,-4.82094780790109,-6.866688477448523
1621784708417.124,0.026,0.077,-0.108,-5.096247935536453,-4.8788171892540255,-7.05793595165234
1621784708421.724,-0.009588051095978923,0.04890417018738506,-0.13422277449177394,-5.335,-4.933,-7.237
1621784708422.036,-0.012,0.047,-0.136,-5.337691233251804,-4.9609338225114215,-7.231617533496393
1621784708426.947,-0.031,0.016,-0.152,-5.380085006230098,-5.400962619410217,-7.146829987539803
1621784708431.858,-0.054,-0.024,-0.173,-5.422476671743043,-5.840969541741659,-7.062046656513914
1621784708436.768,-0.063,-0.08,-0.194,-5.464862014859938,-6.280910840371037,-6.9772759702801235
1621784708437.595,-0.0641786726323639,-0.08825070842654735,-0.19534705443698733,-5.472,-6.355,-6.963
1621784708441.679,-0.07,-0.129,-0.202,-5.156421068829151,-6.809320402542047,-6.864413759675012
1621784708446.589,-0.07,-0.173,-0.202,-4.777001923461616,-7.355547801868066,-6.745883961407666
1621784708451.498,-0.059,-0.199,-0.188,-4.3976771046517005,-7.901639404804037,-6.627383630572268
1621784708453.461,-0.04300557019943303,-0.19820027850997166,-0.1772037598846173,-4.246,-8.12,-6.58
1621784708456.407,-0.019,-0.197,-0.161,-3.912802142494344,-8.382249372797093,-6.567370426805805
1621784708461.315,0.037,-0.199,-0.099,-3.3577116867525514,-8.819143310092194,-6.546330208862416
1621784708466.223,0.113,-0.18,-0.056,-2.8026212310107588,-9.256037247387296,-6.525289990919025
1621784708469.323,0.16037116991643455,-0.1679993036211699,-0.02062952646239554,-2.452,-9.532,-6.512
1621784708471.131,0.188,-0.161,0.0,-2.434100095446288,-9.591286308075988,-6.609252347670802
1621784708476.039,0.255,-0.124,0.056,-2.3855122232827366,-9.752214292311955,-6.873236137196342
1621784708480.946,0.311,-0.077,0.108,-2.3369340189045227,-9.913110255857632,-7.137167400474152
1621784708485.182,0.33172157253048024,-0.036420253794476234,0.2003836775317243,-2.295,-10.052,-7.365
1621784708485.852,0.335,-0.03,0.215,-2.3347740326132147,-9.971183899727453,-7.556895970312428
1621784708490.759,0.325,-0.007,0.323,-2.626001093266403,-9.379445174999615,-8.961965954760329
1621784708495.663,0.267,0.049,0.384,-2.917054278367184,-8.788059744699199,-10.366197049720524
1621784708500.569,0.169,0.147,0.387,-3.208223380502903,-8.1964387847805,-11.77098740433919
1621784708501.037,0.1631796326713454,0.14575959384799164,0.3878587427206212,-3.236,-8.14,-11.905
1621784708505.474,0.108,0.134,0.396,-3.727544767038891,-7.843281632653062,-12.330482941855987
1621784708510.378,0.166,0.059,0.44,-4.2708026184058525,-7.515346938775511,-12.800728917982287
1621784708515.282,0.314,0.044,0.482,-4.814087516365037,-7.187395918367347,-13.27099830573739
1621784708516.888,0.37623273415326397,0.0502232734153264,0.48986097694567543,-4.992,-7.08,-13.425
1621784708520.185,0.504,0.063,0.506,-5.371496533661993,-6.94954806655369,-12.966025573871514
1621784708525.089,0.717,0.08,0.485,-5.93595020798028,-6.755517116006779,-12.283358465567709
1621784708529.991,0.913,0.061,0.44,-6.500150978277615,-6.56157310121707,-11.600997226929595
1621784708532.735,0.9958322461783597,0.03469516506498033,0.420411293133496,-6.816,-6.453,-11.219
1621784708534.894,1.061,0.014,0.405,-6.7036975525553295,-6.116092657665988,-10.895585306084705
1621784708539.796,1.15,-0.035,0.337,-6.448715245669194,-5.351145737007583,-10.161273395598299
1621784708544.698,1.185,-0.086,0.241,-6.193720239196104,-4.586160717588312,-9.426924912150916
1621784708548.576,1.1834175342465754,-0.14613369863013698,0.1745364383561644,-5.992,-3.981,-8.846
1621784708549.599,1.183,-0.162,0.157,-5.743004115987606,-3.9341598298108496,-8.721179022337326
1621784708554.5,1.134,-0.234,0.138,-4.550366708289014,-3.7098053615748663,-8.1233130462933
1621784708559.4,1.058,-0.271,0.155,-3.3579669487736825,-3.485495598822242,-7.525566202654581
1621784708564.3,0.969,-0.246,0.182,-2.165507777212536,-3.2611746596987774,-6.927789575914535
1621784708564.413,0.967430977773348,-0.24410794378550782,0.18368439150802351,-2.138,-3.256,-6.914
1621784708569.199,0.901,-0.164,0.255,-1.1450948717158012,-3.7241917941285307,-6.623533690020969
1621784708574.099,0.871,-0.079,0.379,-0.12848522881460456,-4.203561150857284,-6.326132817318367
1621784708578.997,0.81,0.03,0.482,0.8876685580362653,-4.68271555445911,-6.0288653015912175
1621784708580.247,0.7824374439238362,0.05883860033894925,0.4970573223008673,1.147,-4.805,-5.953
1621784708583.895,0.702,0.143,0.541,0.9573298218554793,-4.813988015732243,-5.943781522325905
1621784708588.793,0.578,0.194,0.578,0.7026675869514922,-4.826055849464024,-5.931404256959976
1621784708593.69,0.445,0.197,0.578,0.4480561270918485,-4.838121277087993,-5.919029459396931
1621784708596.076,0.3836203768318214,0.1935900209351012,0.5555915661449506,0.324,-4.844,-5.913
1621784708598.588,0.319,0.19,0.532,-0.0030128828203347946,-4.873685150042428,-5.948876170639513
1621784708603.484,0.208,0.185,0.447,-0.6403844789014888,-4.931543639589601,-6.0188014039959885
1621784708608.381,0.119,0.195,0.356,-1.2779149888143175,-4.989416554809843,-6.088744071588367
1621784708611.9,0.06508334580278319,0.2050644421168138,0.2884244600728216,-1.736,-5.031,-6.139
1621784708613.276,0.044,0.209,0.262,-1.8247161838917267,-5.079619947838701,-6.0997735304557175
1621784708618.171,-0.042,0.251,0.157,-2.1403229062176883,-5.252584808407537,-5.960225852250806
1621784708623.066,-0.12,0.321,0.084,-2.4559296285436503,-5.425549668976373,-5.820678174045896
1621784708627.72,-0.1751448379052369,0.40752034912718205,0.05072294264339152,-2.756,-5.59,-5.688
1621784708627.961,-0.178,0.412,0.049,-2.7679424029631914,-5.590594073616791,-5.696058075468786
1621784708632.855,-0.239,0.504,0.031,-3.0104929701365846,-5.602659726830773,-5.859717833166139
1621784708637.748,-0.284,0.593,0.002,-3.252995138513774,-5.6147229724515775,-6.023344934022687
1621784708642.642,-0.307,0.654,-0.031,-3.4955457056871673,-5.626788625665561,-6.187004691720039
1621784708643.539,-0.3057167307020608,0.6642661543835138,-0.03741634648969612,-3.54,-5.629,-6.217
1621784708647.535,-0.3,0.71,-0.066,-3.592048565871129,-5.619146145296242,-6.628335268146593
1621784708652.427,-0.276,0.745,-0.082,-3.6557712494982866,-5.607082142085275,-7.131930068850536
1621784708657.32,-0.232,0.754,-0.091,-3.71950665349347,-5.595015730649294,-7.6356253975115
1621784708659.354,-0.19998487797574488,0.7552473424165295,-0.10181030094325498,-3.746,-5.59,-7.845
1621784708662.212,-0.155,0.757,-0.117,-3.7264761404700866,-5.575718658306823,-7.946054050715014
1621784708667.102,-0.035,0.745,-0.171,-3.6930690922568488,-5.55128202118788,-8.118966457670568
1621784708671.993,0.082,0.726,-0.204,-3.659657040491707,-5.526841724063378,-8.291904762640145
1621784708675.163,0.15653703703703703,0.6974814814814815,-0.22085185185185185,-3.638,-5.511,-8.404
1621784708676.884,0.197,0.682,-0.23,-3.5728857376770624,-5.462980953704991,-8.307961907409982
1621784708681.774,0.283,0.621,-0.244,-3.387870336901617,-5.326539830390658,-8.035079660781316
1621784708686.664,0.339,0.557,-0.257,-3.202845698750328,-5.190091894897818,-7.7621837897956345
1621784708690.968,0.384778177278402,0.4892130836454432,-0.26756419475655435,-3.04,-5.07,-7.522
1621784708691.553,0.391,0.48,-0.269,-3.042924614885431,-5.03186894516463,-7.469727136478114
1621784708696.442,0.433,0.41,-0.272,-3.0673676086587043,-4.713181811158666,-7.032847298403919
1621784708701.33,0.447,0.349,-0.274,-3.091806940560251,-4.394542420543564,-6.59603291049273
1621784708706.218,0.433,0.319,-0.291,-3.116245051837889,-4.0759189443920825,-6.159240339302545
1621784708706.769,0.4300683918669131,0.3157301293900185,-0.2930295748613678,-3.119,-4.04,-6.11
1621784708711.105,0.407,0.29,-0.309,-3.013873887240356,-3.9134643916913947,-5.835244807121662
1621784708715.993,0.38,0.267,-0.326,-2.895364320598418,-3.7708197174826905,-5.525510926681504
1621784708720.88,0.346,0.246,-0.323,-2.7768784310089023,-3.628203542284867,-5.215838928041543
1621784708722.566,0.32529649245528125,0.24254941540921354,-0.3254154092135505,-2.736,-3.579,-5.109
1621784708725.766,0.286,0.236,-0.33,-2.5452858556497002,-3.6049419877543447,-5.0236751809017255
1621784708730.652,0.258,0.216,-0.332,-2.2541077834127035,-3.6445496320118744,-4.893403163460944
1621784708735.537,0.218,0.206,-0.323,-1.9629879089615931,-3.684149359886202,-4.763157183499288
1621784708738.356,0.17472197511119997,0.20484591933629864,-0.310882153031136,-1.795,-3.707,-4.688
1621784708740.422,0.143,0.204,-0.302,-1.7294268017321373,-3.750584580884627,-4.661037766780081
1621784708745.307,0.059,0.199,-0.272,-1.5744003866377976,-3.8536260903185893,-4.597294370553665
1621784708750.191,-0.024,0.202,-0.255,-1.4193972162078565,-3.956652149706155,-4.53356053201361
1621784708754.142,-0.07983200839958002,0.2052366381680916,-0.2509542022898855,-1.294,-4.04,-4.482
1621784708755.074,-0.093,0.206,-0.25,-1.269139513296926,-4.0840520738254,-4.513237998731416
1621784708759.958,-0.154,0.202,-0.244,-1.138845031637247,-4.314930181469391,-4.676957193025882
1621784708764.841,-0.222,0.209,-0.23,-1.0085766023608038,-4.545762125032875,-4.8406436516654034
1621784708769.724,-0.283,0.216,-0.201,-0.8783081730843608,-4.776594068596358,-5.004330110304925
1621784708769.923,-0.28540473094618923,0.21673364672934586,-0.19969573914782957,-0.873,-4.786,-5.011
1621784708774.606,-0.342,0.234,-0.169,-0.8468815956426207,-5.108918453873054,-5.2059976325317985
1621784708779.489,-0.386,0.241,-0.127,-0.8196466128183704,-5.445641877881966,-5.409331538390122
1621784708784.37,-0.424,0.26,-0.087,-0.7924225234425774,-5.782230619255408,-5.612584114752576
1621784708785.701,-0.4272725635381229,0.2632725635381229,-0.07609145487292375,-0.785,-5.874,-5.668
1621784708789.25,-0.436,0.272,-0.047,-0.9348543811042147,-6.008553933784265,-5.881981255901064
1621784708794.131,-0.426,0.262,-0.014,-1.1409518318448466,-6.193608401566394,-6.176273561688362
1621784708799.011,-0.382,0.25,-0.003,-1.3469977401829523,-6.378616589533642,-6.470492268639621
1621784708801.474,-0.34414542998649256,0.23485817199459702,2.83656010805944e-05,-1.451,-6.472,-6.619
1621784708803.891,-0.307,0.22,0.003,-1.506631753305056,-6.542650794142234,-6.689650794142233
1621784708808.771,-0.218,0.188,0.003,-1.6189517012910617,-6.685294033871018,-6.832294033871017
1621784708813.65,-0.113,0.145,0.009,-1.7312491718009846,-6.827908727824391,-6.974908727824391
1621784708817.245,-0.03708898453530854,0.11625699414443721,0.014896001201141085,-1.814,-6.933,-7.08
1621784708818.528,-0.01,0.106,0.017,-1.8236029300171899,-6.93861527263717,-7.022545181422576
1621784708823.406,0.087,0.072,0.012,-1.8601141653632323,-6.959965062797144,-6.804096603843711
1621784708828.284,0.183,0.037,0.007,-1.8966254007092747,-6.9813148529571185,-6.585648026264847
1621784708833.01,0.24889627553063676,0.010835302362835402,0.01862875450540649,-1.932,-7.002,-6.374
1621784708833.161,0.251,0.01,0.019,-1.9321914824396969,-6.998151202962091,-6.363209964523075
1621784708838.038,0.304,-0.016,0.017,-1.9383811987792219,-6.873737904537638,-6.014419448790841
1621784708842.915,0.34,-0.044,0.017,-1.9445706052766116,-6.749330833940107,-5.665646392662938
1621784708847.791,0.356,-0.073,0.012,-1.9507587724054594,-6.624948674650265,-5.316943174952362
1621784708848.769,0.3555988383737232,-0.07801452032845985,0.010595934308031244,-1.952,-6.6,-5.247
1621784708852.667,0.354,-0.098,0.005,-1.8718384677369366,-6.485943005020765,-5.052781472757702
1621784708857.541,0.354,-0.124,0.0,-1.7716039174363105,-6.343325326969565,-4.809929244405876
1621784708862.416,0.337,-0.134,-0.003,-1.671349284076117,-6.200679073947809,-4.567028358023926
1621784708864.524,0.32316346153846154,-0.13702674278846153,-0.0004056490384615383,-1.628,-6.139,-4.462
1621784708867.291,0.305,-0.141,0.003,-1.657334025571484,-6.145850461061604,-4.275983634250291
1621784708872.165,0.255,-0.14,0.007,-1.7090037349864393,-6.157917039907013,-3.9483296086788067
1621784708877.039,0.182,-0.145,0.019,-1.7606734444013947,-6.169983618752422,-3.6206755831073227
1621784708880.277,0.12020345691382765,-0.14632895791583164,0.02697374749498998,-1.795,-6.178,-3.403
1621784708881.912,0.089,-0.147,0.031,-1.9263462999426348,-6.173950588381215,-3.396873967038249
1621784708886.785,-0.012,-0.148,0.035,-2.3177963224236033,-6.1618821687157945,-3.378616614211073
1621784708891.656,-0.105,-0.164,0.031,-2.709109055954356,-6.1498179816741345,-3.360365664583947
1621784708896.024,-0.184774498997996,-0.20612810621242483,0.015762174348697394,-3.06,-6.139,-3.344
1621784708896.529,-0.194,-0.211,0.014,-3.0735088244416873,-6.131748232009926,-3.4129238833746895
1621784708901.4,-0.251,-0.26,-0.01,-3.2037720223325064,-6.061820719602978,-4.0775446650124065
1621784708906.271,-0.295,-0.307,-0.045,-3.3340417493796526,-5.991889702233251,-4.742198759305211
1621784708911.142,-0.307,-0.34,-0.073,-3.464311476426799,-5.921958684863524,-5.406852853598015
1621784708911.766,-0.3039252669039146,-0.34140925266903915,-0.07351245551601424,-3.481,-5.913,-5.492
1621784708916.013,-0.283,-0.351,-0.077,-3.0841076763195856,-5.923792449318299,-6.21158655829753
1621784708920.882,-0.234,-0.361,-0.058,-2.6290561958089684,-5.936166384886228,-7.036618712289247
1621784708925.751,-0.176,-0.354,-0.026,-2.1740275317584645,-5.948539700020165,-7.861609498844443
1621784708927.506,-0.1522144575897333,-0.3446299378383798,-0.010503358732705035,-2.01,-5.953,-8.159
1621784708930.621,-0.11,-0.328,0.017,-1.7169900381714922,-6.139298901405828,-8.192062610557677
1621784708935.49,-0.044,-0.304,0.077,-1.2589997827638642,-6.430494057040002,-8.243741240728673
1621784708940.358,0.007,-0.262,0.136,-0.8011013872078949,-6.721630807187413,-8.295409505632623
1621784708943.24,0.016472417251755266,-0.2193741223671013,0.1667853560682046,-0.53,-6.894,-8.326
1621784708945.226,0.023,-0.19,0.188,-0.6686346422474003,-7.104477184541363,-8.132820580474935
1621784708950.094,0.005,-0.108,0.222,-1.0084301101971131,-7.620359739251901,-7.659335092348285
1621784708954.96,-0.038,-0.012,0.23,-1.348089244140928,-8.136035309638368,-7.186039577836412
1621784708958.97,-0.07426009733580854,0.06299247403542221,0.22175906878731624,-1.628,-8.561,-6.796
1621784708959.826,-0.082,0.079,0.22,-1.7934543761060573,-8.600513117451644,-6.767698593560806
1621784708964.693,-0.127,0.115,0.18,-2.734269676177466,-8.82519466608712,-6.606769660653855
1621784708969.559,-0.152,0.11,0.122,-3.674849017355397,-9.049819864013164,-6.445881089136576
1621784708974.423,-0.141,0.056,0.072,-4.615050824303766,-9.274354900804124,-6.2850570958427765
1621784708974.697,-0.139930409914204,0.0508772264311876,0.06845346445236064,-4.668,-9.287,-6.276
1621784708979.289,-0.122,-0.035,0.009,-5.126243210509154,-9.404408394279592,-6.702700656822099
1621784708984.153,-0.124,-0.169,-0.08,-5.6116267759817395,-9.528770531513485,-7.154673498858713
1621784708989.017,-0.222,-0.318,-0.206,-6.097010341454325,-9.65313266874738,-7.6066463408953275
1621784708990.42,-0.2517062691361743,-0.33011323595844,-0.23109170305676854,-6.237,-9.689,-7.737
1621784708993.881,-0.325,-0.36,-0.293,-6.30174823295481,-9.28729667717832,-9.01346516396626
1621784708998.745,-0.37,-0.325,-0.304,-6.392739207431687,-8.722781243689125,-10.80728723222469
1621784709003.608,-0.435,-0.307,-0.304,-6.48370734624765,-8.158407484504373,-12.600659111739393
1621784709006.136,-0.45995807180517195,-0.3215588752196837,-0.3117993974391162,-6.531,-7.865,-13.533
1621784709008.47,-0.483,-0.335,-0.319,-6.445150858385769,-8.297661850384525,-13.467499184339314
1621784709013.332,-0.379,-0.312,-0.347,-6.26631344674901,-9.198965276159404,-13.33105057096248
1621784709018.194,-0.108,-0.208,-0.454,-6.0874760351122505,-10.100268701934281,-13.194601957585645
1621784709021.85,0.17781115017579108,-0.18844450025113008,-0.5788543445504771,-5.953,-10.778,-13.092
1621784709023.055,0.272,-0.182,-0.62,-5.732558750388561,-10.736580976064657,-12.909986400373018
1621784709027.916,0.672,-0.298,-0.75,-4.8431553621386385,-10.569469692259869,-12.175625147653093
1621784709032.777,1.035,-0.408,-0.831,-3.953751973888717,-10.402358408455083,-11.441263894933167
1621784709037.558,1.2701219230382799,-0.5221177534411735,-0.8910101979302723,-3.079,-10.238,-10.719
1621784709037.637,1.274,-0.524,-0.892,-3.0647689784369514,-10.215789764159009,-10.706049469085707
1621784709042.497,1.388,-0.595,-1.009,-2.187688649472195,-8.846937860485363,-9.907887800631189
1621784709047.355,1.419,-0.604,-1.115,-1.3110048505200318,-7.478704817872301,-9.110086982883262
1621784709052.214,1.405,-0.595,-1.117,-0.43410075711642815,-6.110127963558914,-8.312085692520562
1621784709053.262,1.3924919103607678,-0.595,-1.1008257461561652,-0.245,-5.815,-8.14
1621784709057.073,1.347,-0.595,-1.042,-0.2782597707584877,-4.979378606199163,-7.632849188945396
1621784709061.931,1.215,-0.59,-0.969,-0.3206558577893902,-3.914215602108898,-6.986386226846452
1621784709066.788,1.019,-0.55,-0.93,-0.36304555280797524,-2.8492131914959797,-6.3400207312710934
1621784709068.96,0.904994572318826,-0.5240693537038899,-0.9058576741381044,-0.382,-2.373,-6.051
1621784709071.646,0.764,-0.492,-0.876,-0.7362352739885831,-2.2354129660450144,-5.663223608281097
1621784709076.502,0.475,-0.473,-0.819,-1.3766406184380395,-1.9866758177660948,-4.96218084957459
1621784709081.358,0.148,-0.454,-0.787,-2.017045962887496,-1.7379386694871757,-4.2611380908680845
1621784709084.656,-0.059141169373083335,-0.4275130963752451,-0.7707003670001509,-2.452,-1.569,-3.785
1621784709086.214,-0.157,-0.415,-0.763,-2.4246908474154294,-1.715079139825102,-3.9525292378551646
1621784709091.07,-0.433,-0.363,-0.721,-2.3395797466778703,-2.1703461550431022,-4.474647154016121
1621784709095.925,-0.656,-0.302,-0.661,-2.2544857623004386,-2.625521613294744,-4.996660069087854
1621784709100.346,-0.7962309162224681,-0.24281162626973748,-0.588152770793523,-2.177,-3.04,-5.472
1621784709100.78,-0.81,-0.237,-0.581,-2.1403607470817123,-3.1249565758754865,-5.559917603112841
1621784709105.634,-0.853,-0.168,-0.496,-1.7306522957198442,-4.0749603112840465,-6.5430322178988325
1621784709110.487,-0.806,-0.103,-0.384,-1.3210262723735409,-5.024772918287938,-7.525949042801556
1621784709115.341,-0.691,-0.058,-0.255,-0.911317821011673,-5.974776653696498,-8.509063657587548
1621784709116.032,-0.6679363115001509,-0.05501026260187142,-0.23606499647851897,-0.853,-6.11,-8.649
1621784709120.194,-0.529,-0.037,-0.122,-0.9466819950807933,-6.554790435567733,-8.727289485974033
1621784709125.047,-0.377,-0.033,-0.003,-1.0559153771910708,-7.073416918334942,-8.818575173573274
1621784709129.899,-0.243,-0.023,0.093,-1.1651212833525326,-7.59191294872194,-8.909837899685545
1621784709131.715,-0.19696009862131428,-0.01963122672838885,0.12631342457482136,-1.206,-7.786,-8.944
1621784709134.751,-0.12,-0.014,0.182,-1.4205267419229273,-7.839244453094589,-8.505265706500584
1621784709139.603,-0.038,-0.005,0.269,-1.7633899883223045,-7.924341377968081,-7.804067045543013
1621784709144.453,-0.005,-0.023,0.358,-2.1060979680809653,-8.009399766446087,-7.103185924484236
1621784709147.395,-0.014703875188726723,-0.047259687971816816,0.3980284851534977,-2.314,-8.061,-6.678
1621784709149.304,-0.021,-0.063,0.424,-2.5003261428237677,-7.85798975157698,-6.6290437193365
1621784709154.154,-0.079,-0.133,0.454,-2.9737313293357213,-7.342194688887158,-6.5046588271941435
1621784709159.004,-0.159,-0.22,0.454,-3.447112685927887,-6.826425589907329,-6.380280196246398
1621784709163.07,-0.2277599436109153,-0.28540580002013893,0.4321980666599537,-3.844,-6.394,-6.276
1621784709163.853,-0.241,-0.298,0.428,-3.8974133584694,-6.330793359715817,-6.342154617973327
1621784709168.702,-0.3,-0.377,0.387,-4.228203103577216,-5.939353670696747,-6.751851177863641
1621784709173.551,-0.321,-0.429,0.328,-4.559009503926212,-5.547894272715942,-7.1615683659478995
1621784709178.399,-0.295,-0.48,0.267,-4.889732628069301,-5.156533419543811,-7.571182413062445
1621784709178.74,-0.29084854437392965,-0.4831663644605621,0.2628485443739297,-4.913,-5.129,-7.6
1621784709183.246,-0.236,-0.525,0.208,-4.952408531263637,-5.024581774827006,-7.68198125116888
1621784709188.094,-0.157,-0.546,0.147,-4.994806277663487,-4.912243220497475,-7.770180942584626
1621784709192.941,-0.066,-0.578,0.091,-5.037195483448663,-4.7999272956798205,-7.85836286702824
1621784709194.405,-0.043341309823677586,-0.580416926952141,0.0798217128463476,-5.05,-4.766,-7.885
1621784709197.787,0.009,-0.586,0.054,-4.867948165931376,-4.757577673156968,-7.541844170421064
1621784709202.634,0.044,-0.579,0.028,-4.607046190780551,-4.745507475018317,-7.050060969336056
1621784709207.479,0.044,-0.562,0.002,-4.346249349151169,-4.733442140708061,-6.558475938079724
1621784709210.066,0.041864247921390776,-0.549719425547997,-0.005475132275132275,-4.207,-4.727,-6.296
1621784709212.324,0.04,-0.539,-0.012,-4.000476353089769,-4.7241155915236,-6.150337371941807
1621784709217.169,0.026,-0.52,-0.01,-3.5573514992749216,-4.717926696917248,-5.837798194321
1621784709222.013,0.012,-0.504,0.0,-3.1143159626389734,-4.7117390497575276,-5.525322012755142
1621784709225.723,-0.0010201098734942803,-0.4787256690690993,0.012254221057406381,-2.775,-4.707,-5.286
1621784709226.857,-0.005,-0.471,0.016,-2.7068392408813757,-4.7027263711073335,-5.25398400049901
1621784709231.701,-0.023,-0.442,0.026,-2.4156922825019103,-4.6844716733981,-5.117228468507805
1621784709236.544,-0.038,-0.412,0.038,-2.12460402014752,-4.666220655885976,-4.980500506806806
1621784709241.379,-0.05097837374603014,-0.38404657962393507,0.06595342037606493,-1.834,-4.648,-4.844
1621784709241.387,-0.051,-0.384,0.066,-1.8338028206368275,-4.64785378867065,-4.84387901527325
1621784709246.229,-0.063,-0.351,0.089,-1.7152980233700994,-4.559980779731353,-4.771167194496014
1621784709251.071,-0.079,-0.309,0.099,-1.5967932261033715,-4.472107770792056,-4.698455373718779
1621784709255.913,-0.098,-0.26,0.113,-1.4782884288366434,-4.384234761852759,-4.625743552941543
1621784709257.028,-0.10398860197700222,-0.2528597437966512,0.11921893282227154,-1.451,-4.364,-4.609
1621784709260.754,-0.124,-0.229,0.14,-1.4650498548825017,-4.345425615579066,-4.541370190057111
1621784709265.595,-0.164,-0.18,0.157,-1.4833051836594577,-4.321291452111225,-4.453497082046001
1621784709270.435,-0.197,-0.122,0.185,-1.5015568298848423,-4.297162157101394,-4.365641700215336
1621784709272.674,-0.21643008474576272,-0.10210729418886198,0.19887863196125907,-1.51,-4.286,-4.325
1621784709275.275,-0.239,-0.079,0.215,-1.5505995862240611,-4.326599586224061,-4.331462791276484
1621784709280.114,-0.281,-0.026,0.229,-1.6261392838254052,-4.402139283825405,-4.343487477833432
1621784709284.953,-0.319,0.016,0.244,-1.7016751703325763,-4.477675170332576,-4.35551155772641
1621784709288.369,-0.34737431991294887,0.03260935799782372,0.2502285092491839,-1.755,-4.531,-4.364
1621784709289.889,-0.36,0.04,0.253,-1.805950035613075,-4.570722157394638,-4.398249746162123
1621784709294.874,-0.38,0.063,0.278,-1.9730474942034035,-4.700996287147468,-4.510576371103399
1621784709299.859,-0.403,0.075,0.293,-2.1401367693636626,-4.831264036855744,-4.622897494961129
1621784709304.479,-0.42246246143297905,0.08519462265536999,0.30968210979969635,-2.295,-4.952,-4.727
1621784709304.844,-0.424,0.086,0.311,-2.3149852981296797,-4.958231243747916,-4.73699264906484
1621784709309.827,-0.44,0.093,0.316,-2.587828063900088,-5.04330126708903,-4.873414031950044
1621784709314.812,-0.459,0.08,0.309,-2.860791142502046,-5.128408802934311,-5.009895571251024
1621784709319.797,-0.452,0.079,0.302,-3.133754221104004,-5.213516338779593,-5.146377110552002
1621784709320.587,-0.4481974728181017,0.0734546478597316,0.302,-3.177,-5.227,-5.168
1621784709324.782,-0.428,0.044,0.302,-3.3150202476395436,-5.300958019489869,-5.288051573890244
1621784709329.767,-0.387,0.017,0.29,-3.479033250988891,-5.3888442326053685,-5.430711940954488
1621784709334.752,-0.332,0.003,0.279,-3.643038221966264,-5.476726141581922,-5.573365321370655
1621784709336.696,-0.310156845456772,-0.0020707323046779335,0.27704971834435466,-3.707,-5.511,-5.629
1621784709339.736,-0.276,-0.01,0.274,-3.777383330807698,-5.529492135171996,-5.553144506743446
1621784709344.722,-0.213,-0.016,0.272,-3.8928160630398545,-5.559820306106986,-5.4287371116835885
1621784709349.706,-0.154,0.0,0.264,-4.008209228671011,-5.590138081527504,-5.304372359448402
1621784709352.807,-0.11978729552355764,0.008708688412185327,0.2559133607601136,-4.08,-5.609,-5.227
1621784709354.691,-0.099,0.014,0.251,-4.073100110627851,-5.586078333611166,-5.143265749314259
1621784709359.676,-0.051,0.03,0.248,-4.054843166078167,-5.5254281449376395,-4.921706896813009
1621784709364.661,-0.003,0.047,0.248,-4.03658711564399,-5.464780926546138,-4.700158894933851
1621784709368.917,0.025174200499534748,0.06834409128752632,0.24458494539399578,-4.021,-5.413,-4.511
1621784709369.646,0.03,0.072,0.244,-4.034756406564929,-5.3899218179338355,-4.487016791186143
1621784709374.631,0.047,0.105,0.255,-4.128826086956522,-5.232107551487414,-4.3230137299771165
1621784709379.615,0.049,0.133,0.265,-4.222872732507918,-5.074331929016322,-4.159050828193432
1621784709384.601,0.021,0.15,0.265,-4.316960840771667,-4.916486747389637,-3.9950156394441327
1621784709385.027,0.018008766774414733,0.15102556567734352,0.2638035067097659,-4.325,-4.903,-3.981
1621784709389.586,-0.014,0.162,0.251,-4.347071435065919,-4.808771950295499,-4.083717063191393
1621784709394.571,-0.068,0.171,0.239,-4.371206637369299,-4.705733202000303,-4.196038581603274
1621784709399.556,-0.131,0.197,0.234,-4.395340657675405,-4.602699499924231,-4.308354599181694
1621784709401.138,-0.1513065171620232,0.2147682025167703,0.2362210253145963,-4.403,-4.57,-4.344
1621784709404.542,-0.195,0.253,0.241,-4.309817054874444,-4.713049555215421,-4.696235758558505
1621784709409.527,-0.237,0.309,0.251,-4.17335413035901,-4.922540257929592,-5.212071802021611
1621784709414.511,-0.265,0.375,0.279,-4.036924621516359,-5.131979662660827,-5.727781532726143
1621784709417.248,-0.2688425794447437,0.40574063555794937,0.2943703177789747,-3.962,-5.247,-6.011
1621784709419.497,-0.272,0.431,0.307,-4.138600794107841,-5.249652502045889,-6.336838935531779
1621784709424.482,-0.279,0.454,0.321,-4.530028824296063,-5.255531658230534,-7.059046858424515
1621784709429.468,-0.302,0.44,0.311,-4.921552708150214,-5.261412254114509,-7.781431637013913
1621784709433.358,-0.3316529532765207,0.3978615927123127,0.2805667058477814,-5.227,-5.266,-8.345
1621784709434.453,-0.34,0.386,0.272,-5.324324180570078,-5.30868127471928,-8.43634336500432
1621784709439.439,-0.36,0.304,0.218,-5.767501826006577,-5.503035716991711,-8.852286629995
1621784709444.423,-0.342,0.209,0.154,-6.21050587201285,-5.69731402767044,-9.268066963676866
1621784709449.409,-0.29,0.112,0.087,-6.653661817520571,-5.891658953493659,-9.683989862253943
1621784709449.469,-0.28919296871174655,0.11085570190471528,0.08637364735837046,-6.659,-5.894,-9.689
1621784709454.395,-0.223,0.017,0.035,-6.677040568596845,-6.484752178459393,-9.377112203918953
1621784709459.38,-0.168,-0.061,0.002,-6.695296619031021,-7.082560474032764,-9.061499128616243
1621784709464.366,-0.124,-0.155,-0.017,-6.713557140042735,-7.680515162077379,-8.745808765362876
1621784709465.579,-0.11475444351956128,-0.1698415511922832,-0.020406257650687952,-6.718,-7.826,-8.669
1621784709469.352,-0.086,-0.216,-0.031,-6.251733686922261,-8.136063585391726,-8.395703773298985
1621784709474.337,-0.038,-0.244,-0.044,-5.635697348083043,-8.545723109562054,-8.034621700257615
1621784709479.323,0.037,-0.246,-0.04,-5.019510153053493,-8.955482951962418,-7.673451204727989
1621784709481.69,0.08400548508741859,-0.23270551936921494,-0.028604730887898527,-4.727,-9.15,-7.502
1621784709484.308,0.136,-0.218,-0.016,-4.361987133829391,-9.258236228348009,-7.377674602573234
1621784709489.293,0.236,-0.192,0.026,-3.667019518996166,-9.46431300104566,-7.140964796096201
1621784709494.279,0.316,-0.127,0.093,-2.971881719126494,-9.670440238228743,-6.904197023656175
1621784709497.8,0.32306199196944474,-0.06838546665360884,0.14949593575555772,-2.481,-9.816,-6.737
1621784709499.265,0.326,-0.044,0.173,-2.51309577208668,-9.762537354144568,-7.0161332020003035
1621784709504.251,0.298,0.023,0.321,-2.62234443097439,-9.580559418093651,-7.9662560994090015
1621784709509.237,0.255,0.063,0.454,-2.7315930898621,-9.398581482042733,-8.9163789968177
1621784709513.911,0.16500763882087943,0.13518137302908628,0.5064955440211537,-2.834,-9.228,-9.807
1621784709514.223,0.159,0.14,0.51,-2.8721663055500843,-9.207299959090289,-9.844779026954955
1621784709519.208,0.012,0.162,0.501,-3.4819611357747844,-8.876569023773088,-10.44838618766951
1621784709524.194,-0.079,0.063,0.522,-4.091875422354884,-8.54577329959545,-11.052111592599887
1621784709529.18,-0.021,-0.058,0.572,-4.7017598448461335,-8.21499377263292,-11.655807436476309
1621784709530.024,0.005913920579738528,-0.06680203691915977,0.5758932086373206,-4.805,-8.159,-11.758
1621784709534.166,0.138,-0.11,0.595,-5.233526523129139,-8.05566007060713,-11.742833194442339
1621784709539.152,0.375,-0.112,0.555,-5.749369808633464,-7.931263549447719,-11.72457599357566
1621784709544.138,0.653,-0.068,0.489,-6.2651878361793365,-7.806873119289686,-11.706319686661919
1621784709546.137,0.7660595896783039,-0.05557146354600206,0.4601337217842628,-6.472,-7.757,-11.699
1621784709549.124,0.935,-0.037,0.417,-6.3865390839255145,-7.302444324914013,-11.204587281625479
1621784709554.111,1.164,-0.031,0.361,-6.243857422082153,-6.543538826345854,-10.379138274822346
1621784709559.096,1.321,-0.035,0.323,-6.10123862482765,-5.784967696480249,-9.554052955347808
1621784709562.25,1.3741359741467953,-0.05587484698624101,0.29769715516819273,-6.011,-5.305,-9.032
1621784709564.082,1.405,-0.068,0.283,-5.69552436862757,-5.0263582801824045,-8.764385716666414
1621784709569.068,1.419,-0.098,0.248,-4.836921114427258,-4.268002757283318,-8.036042631842077
1621784709574.054,1.356,-0.117,0.229,-3.978359901222598,-3.509684366809581,-7.3077352099019794
1621784709578.365,1.2565889264209136,-0.12737332941694815,0.23764444118079012,-3.236,-2.854,-6.678
1621784709579.041,1.241,-0.129,0.239,-3.0813299953035287,-2.8626417198175953,-6.623297074552699
1621784709584.027,1.094,-0.119,0.284,-1.9405479418849516,-2.9263794749041767,-6.219830896723074
1621784709589.013,0.934,-0.073,0.358,-0.7998217461784356,-2.99011410910964,-5.81638447437393
1621784709593.999,0.813,0.003,0.466,0.34096030724014126,-3.0538518641962216,-5.412918296544306
1621784709594.48,0.8059584292219556,0.012935366988199578,0.47863624345101113,0.451,-3.06,-5.374
1621784709598.985,0.74,0.106,0.597,0.810279761814573,-3.419000166669192,-5.390496113577478
1621784709603.972,0.648,0.22,0.686,1.2079738177851178,-3.8163847331020166,-5.408755996302974
