time,gyro_x,gyro_y,gyro_z,acc_x,acc_y,acc_z
1621787058202.728,,,,0.0,-4.805,-7.463
1621787058221.319,,,,0.01,-4.727,-8.247
1621787058238.816,0.115,1.529,1.581,0.38221433554688505,-4.853849164104287,-9.228460685770393
1621787058240.216,0.11120497125604864,1.516191777989164,1.5798140535175151,0.412,-4.864,-9.307
1621787058244.719,0.099,1.475,1.576,0.821210054544761,-5.025104474196132,-9.414871991455925
1621787058250.651,0.089,1.452,1.587,1.360278407140405,-5.237333676622039,-9.556975969790594
1621787058256.612,0.068,1.431,1.613,1.902009154365488,-5.450611053896327,-9.699781782812678
1621787058259.418,0.060039237257059036,1.4164833149981664,1.6195559222588924,2.157,-5.551,-9.767
1621787058262.604,0.051,1.4,1.627,2.301188971057472,-5.64538417358009,-9.70135564398063
1621787058268.625,0.033,1.381,1.623,2.573678503947846,-5.823752180387151,-9.577300386651151
1621787058274.674,0.017,1.379,1.621,2.847438667617653,-6.002951925122314,-9.452666654153685
1621787058278.929,0.017,1.395798746937628,1.6223998955781356,3.04,-6.129,-9.365
1621787058280.753,0.017,1.403,1.623,3.0827812317400958,-6.162274291353407,-9.283220910755327
1621787058286.861,0.031,1.44,1.644,3.226047680261774,-6.273703751314713,-9.009357835690079
1621787058292.485,0.066,1.473,1.658,3.3579588640878812,-6.3763013387350185,-8.757201082934051
1621787058297.731,0.10979397224631396,1.513998612315698,1.6691814397224631,3.481,-6.472,-8.522
1621787058298.115,0.113,1.517,1.67,3.4776933870687,-6.4618906101463445,-8.499696158635372
1621787058303.751,0.176,1.585,1.696,3.4291662672218726,-6.313527441187891,-8.172369917120784
1621787058309.392,0.232,1.651,1.721,3.3805950031464644,-6.165029308982822,-7.844745912943351
1621787058315.04,0.281,1.726,1.747,3.3319648800996156,-6.016351225782264,-7.516724891882122
1621787058315.965,0.2855802357207616,1.7374505893019039,1.753052454345292,3.324,-5.992,-7.463
1621787058320.695,0.309,1.796,1.784,3.3139174539631706,-5.8094800640512405,-7.206799919935949
1621787058326.355,0.314,1.864,1.824,3.301852642113691,-5.591076034160662,-6.900229957299173
1621787058332.022,0.304,1.93,1.857,3.2897727381905524,-5.372398799039231,-6.593276501200961
1621787058334.261,0.29018409159385355,1.9521054534498343,1.876342271768605,3.285,-5.286,-6.472
1621787058337.694,0.269,1.986,1.906,3.257506663474583,-5.203332960923576,-6.510528077035619
1621787058343.372,0.223,2.042,1.943,3.2120357114356395,-5.066610778602399,-6.574249275131009
1621787058349.058,0.188,2.08,1.99,3.1665002394062722,-4.929694597398452,-6.638060888995292
1621787058352.617,0.16548339483394833,2.0868800738007383,2.0093892988929887,3.138,-4.844,-6.678
1621787058354.748,0.152,2.091,2.021,3.010981406628941,-4.825953642471871,-6.775635421498337
1621787058360.445,0.119,2.091,2.042,2.6714260307194824,-4.777710802178724,-7.036641557443312
1621787058366.147,0.087,2.058,2.056,2.331579628132579,-4.729426613833044,-7.297871396954557
1621787058371.039,0.06215383957585087,2.0280132546605096,2.0534297075423296,2.04,-4.688,-7.522
1621787058371.857,0.058,2.023,2.053,1.9874778761061946,-4.70229203539823,-7.548460176991151
1621787058377.572,0.045,1.981,2.053,1.620465816933034,-4.802161365737683,-7.733357574957073
1621787058383.293,0.063,1.923,2.051,1.2530774798573505,-4.9021330867784965,-7.918444538370096
1621787058389.02,0.084,1.881,2.039,0.8852971866332058,-5.0022114647998945,-8.103728965790516
1621787058389.523,0.08610544246657015,1.8755609402946938,2.0361927433779066,0.853,-5.011,-8.12
1621787058394.753,0.108,1.819,2.007,0.5211229647374724,-5.088541363379095,-8.114360628117883
1621787058400.492,0.143,1.772,1.972,0.15694438813789102,-5.173629815855633,-8.10817237702868
1621787058406.239,0.175,1.714,1.95,-0.20774543587853578,-5.258837718663209,-8.101975438642675
1621787058408.071,0.18710528103243335,1.6955235184241806,1.940443199184921,-0.324,-5.286,-8.1
1621787058411.99,0.213,1.656,1.92,-0.44358522093831565,-5.265367338640924,-7.994731319596553
1621787058417.748,0.237,1.62,1.885,-0.6192902692706216,-5.235052031006124,-7.840061382684311
1621787058423.511,0.241,1.58,1.843,-0.7951443148879243,-5.20471101609328,-7.685260286190207
1621787058426.685,0.23989999153904729,1.5535997969371351,1.822649843472375,-0.892,-5.188,-7.6
1621787058429.282,0.239,1.532,1.806,-0.8743423436376707,-5.190641696621135,-7.504620848310568
1621787058435.058,0.225,1.491,1.782,-0.8350678779164761,-5.196517404091236,-7.2924768838638
1621787058440.839,0.194,1.445,1.752,-0.795760211750866,-5.202398078556957,-7.080153584733024
1621787058445.363,0.16820635255409794,1.4059187159910576,1.7293328552748135,-0.765,-5.207,-6.914
1621787058446.627,0.161,1.395,1.723,-0.7180632693735589,-5.219610874464288,-6.900782185053473
1621787058452.421,0.131,1.36,1.698,-0.5028995662198601,-5.2774206625242615,-6.840190107728581
1621787058458.223,0.113,1.311,1.677,-0.2874366720075032,-5.335310836687639,-6.779513775450389
1621787058464.029,0.101,1.269,1.667,-0.0718196490679589,-5.393242421873983,-6.718794039105345
1621787058464.105,0.10093468033268925,1.2684774426615137,1.66681710493153,-0.069,-5.394,-6.718
1621787058469.841,0.096,1.229,1.653,0.1315849446436925,-5.453839648630386,-6.7897465174905145
1621787058475.652,0.094,1.189,1.649,0.3347908545142679,-5.5144611986069965,-6.86243051873798
1621787058481.468,0.098,1.148,1.639,0.5381675113051614,-5.575133686782057,-6.935175593845834
1621787058482.893,0.098,1.1413934604904632,1.636308446866485,0.588,-5.59,-6.953
1621787058487.292,0.098,1.121,1.628,0.7323121306376361,-5.5671155520995335,-6.9964337480559875
1621787058493.12,0.099,1.089,1.618,0.9235108864696734,-5.536796008294453,-7.0539790046656305
1621787058498.954,0.103,1.068,1.606,1.114901866251944,-5.506445982374287,-7.111582115085537
1621787058501.731,0.10204899665551839,1.0523084448160536,1.5998184782608695,1.206,-5.492,-7.139
1621787058504.794,0.101,1.035,1.593,1.3077812685699521,-5.472875494122206,-7.135920630409508
1621787058510.641,0.096,1.023,1.581,1.5020791628988504,-5.436367291047668,-7.1300421909314045
1621787058516.492,0.089,1.009,1.564,1.696498746931921,-5.399836222710244,-7.124160069758429
1621787058520.63,0.09041271098145447,1.0054682225463638,1.5604682225463637,1.834,-5.374,-7.12
1621787058522.35,0.091,1.004,1.559,1.884719368505093,-5.346417373836228,-7.114646792948479
1621787058528.213,0.094,1.018,1.55,2.057579844701701,-5.2524109610208995,-7.096402127303398
1621787058534.082,0.079,1.031,1.539,2.2306274772396564,-5.158302767297218,-7.0781377081267625
1621787058539.589,0.049008974572045866,1.052556049526342,1.5361883413661293,2.393,-5.07,-7.061
1621787058539.958,0.047,1.054,1.536,2.3985079450648183,-5.064860544217687,-7.060612116544731
1621787058545.839,0.016,1.075,1.545,2.486317930945963,-4.982925170068027,-7.054428314722116
1621787058551.725,-0.028,1.084,1.541,2.5742008214606598,-4.900921768707483,-7.0482393787703765
1621787058557.618,-0.079,1.103,1.546,2.6621857784623284,-4.8188231292517,-7.042043255037864
1621787058558.61,-0.08572764143525224,1.1065320117535073,1.5466727641435252,2.677,-4.805,-7.041
1621787058563.517,-0.119,1.124,1.55,2.6569441971139085,-4.7697737821103265,-7.096539146453792
1621787058569.421,-0.175,1.141,1.559,2.632814169481118,-4.72739155408863,-7.1633607614369055
1621787058575.331,-0.218,1.143,1.562,2.6086581977279706,-4.6849637575478456,-7.230254221676389
1621787058577.694,-0.23916981677121163,1.1457960135358203,1.5627988610102344,2.599,-4.668,-7.257
1621787058581.247,-0.271,1.15,1.564,2.5425764771901185,-4.68990123582752,-7.346089772857708
1621787058587.168,-0.309,1.159,1.569,2.448548903824816,-4.726398780752209,-7.494554362381869
1621787058593.097,-0.333,1.166,1.588,2.354393385963346,-4.762945988343175,-7.6432209695315585
1621787058596.837,-0.3443464735412723,1.1647392807176364,1.5924125174882726,2.295,-4.786,-7.737
1621787058599.03,-0.351,1.164,1.595,2.2378969182262,-4.804958223148901,-7.780740960638731
1621787058604.969,-0.358,1.159,1.607,2.083261543938161,-4.856297167412531,-7.899191657343368
1621787058610.914,-0.349,1.141,1.618,1.9284672497965825,-4.907688873067534,-8.017764086655816
1621787058616.04,-0.33866520365888675,1.1306652036588867,1.6326409614832438,1.795,-4.952,-8.12
1621787058616.866,-0.337,1.129,1.635,1.7777645142893352,-4.957916659273811,-8.12
1621787058622.823,-0.316,1.124,1.646,1.6534530004435712,-5.000590761041759,-8.12
1621787058628.785,-0.291,1.115,1.662,1.5290395919143274,-5.043299841581649,-8.12
1621787058634.753,-0.267,1.108,1.674,1.4044988150307331,-5.086052645586465,-8.12
1621787058635.304,-0.2642333905368963,1.1062478140067011,1.6753833047315518,1.393,-5.09,-8.12
1621787058640.728,-0.237,1.089,1.689,1.222348291327143,-5.056880096014149,-8.097826504958626
1621787058646.709,-0.223,1.066,1.691,1.0341759206619923,-5.0203598003916365,-8.073376476533383
1621787058652.695,-0.211,1.045,1.703,0.8458422462257597,-4.983808199103026,-8.048905489229991
1621787058654.629,-0.20874045397122945,1.0372529850442151,1.7042911691592975,0.785,-4.972,-8.041
1621787058658.686,-0.204,1.021,1.707,0.6208651720623972,-4.927275430482611,-7.985637062005174
1621787058664.414,-0.206,1.0,1.707,0.3891326330642001,-4.864131378850828,-7.907473308771655
1621787058670.144,-0.216,0.97,1.709,0.15732107862350087,-4.800965796556139,-7.829282903503958
1621787058673.316,-0.22319870428778452,0.9478501406529708,1.7051237746142698,0.029,-4.766,-7.786
1621787058675.872,-0.229,0.93,1.702,-0.14832420561117485,-4.791687151280123,-7.710181472834474
1621787058681.6,-0.239,0.89,1.693,-0.5456862411459775,-4.849248941474417,-7.54028135016422
1621787058687.328,-0.258,0.826,1.688,-0.9430313402714572,-4.906808278263623,-7.370388468996082
1621787058691.825,-0.2682023774019002,0.7640009373269141,1.673088833027992,-1.255,-4.952,-7.237
1621787058693.058,-0.271,0.747,1.669,-1.319026103702531,-4.981448010235711,-7.229204938467018
1621787058698.786,-0.278,0.679,1.642,-1.616416010446757,-5.118228799810059,-7.192998258873808
1621787058704.514,-0.271,0.611,1.607,-1.9138185931172755,-5.25501541951908,-7.156790036009656
1621787058710.242,-0.26,0.552,1.58,-2.2112211757877938,-5.391802039228101,-7.1205818131455025
1621787058710.334,-0.25935747763101835,0.5514538559863656,1.5798875585854282,-2.216,-5.394,-7.12
1621787058715.972,-0.22,0.518,1.573,-2.0127964670650784,-5.4177629318874425,-7.541030408569808
1621787058721.7,-0.176,0.461,1.567,-1.8063459716890278,-5.44190556852812,-7.968788406485403
1621787058727.428,-0.127,0.436,1.525,-1.5998954763129773,-5.466048205168797,-8.396546404400997
1621787058728.84,-0.120097263660387,0.43698610519137326,1.5156320006819537,-1.549,-5.472,-8.502
1621787058733.156,-0.099,0.44,1.487,-1.7595745303925707,-5.373591969185311,-8.648446074292952
1621787058738.884,-0.098,0.436,1.426,-2.039046169269734,-5.24298617560152,-8.84280730265935
1621787058744.614,-0.141,0.422,1.311,-2.3186131015196283,-5.112335848459265,-9.037234803714648
1621787058747.348,-0.1696369448469866,0.41054522206120536,1.2441804620236978,-2.452,-5.05,-9.13
1621787058750.342,-0.201,0.398,1.171,-2.385348705298843,-5.153212441794509,-9.142618448996823
1621787058756.07,-0.251,0.396,1.068,-2.2578395177353614,-5.350665989526309,-9.166758537904471
1621787058761.798,-0.271,0.436,1.021,-2.1303303301718794,-5.548119537258109,-9.190898626812121
1621787058765.856,-0.25329246569504815,0.4707067672377056,0.9976260547174636,-2.04,-5.688,-9.208
1621787058767.527,-0.246,0.485,0.988,-2.133760827234271,-5.706936010206137,-9.226108708789365
1621787058773.256,-0.18,0.483,0.934,-2.4551912979251997,-5.771852360169207,-9.288188907540455
1621787058778.816,-0.084,0.445,0.869,-2.767129255354865,-5.8348515947089235,-9.348435748338146
1621787058784.036,-0.007914374835251745,0.39427624989016785,0.7891570600123012,-3.06,-5.894,-9.405
1621787058784.373,-0.003,0.391,0.784,-3.06,-5.89251497291264,-9.379359785478997
1621787058789.928,0.061,0.34,0.731,-3.06,-5.868048049437835,-8.956918220673508
1621787058795.479,0.106,0.297,0.691,-3.06,-5.843598331200828,-8.534773718454796
1621787058801.027,0.14,0.241,0.654,-3.06,-5.819161516892168,-8.112852013176163
1621787058801.972,0.14289670658682635,0.23111711870376891,0.6493993483620993,-3.06,-5.815,-8.041
1621787058806.572,0.157,0.183,0.627,-3.0019305341533595,-5.742027750882983,-7.7159651579823
1621787058812.114,0.161,0.141,0.592,-2.9319710354420367,-5.65411404453778,-7.324377698381312
1621787058817.652,0.162,0.129,0.571,-2.862060847390599,-5.566262303800575,-6.933066247562422
1621787058819.875,0.1543693264522959,0.12498385602752415,0.5665822416302766,-2.834,-5.531,-6.776
1621787058823.187,0.143,0.119,0.56,-2.685004535271297,-5.538227391945795,-6.612549751379706
1621787058828.718,0.106,0.108,0.553,-2.4361845254357686,-5.550297019288563,-6.339590486858642
1621787058834.248,0.047,0.134,0.559,-2.1874084476258124,-5.56236451560024,-6.066679416425332
1621787058837.747,0.009634202386212994,0.13653327441449403,0.5729330092797171,-2.03,-5.57,-5.894
1621787058839.773,-0.012,0.138,0.581,-1.934253846153846,-5.62678894059677,-5.905130632356967
1621787058845.295,-0.086,0.152,0.618,-1.6732769230769229,-5.781579523679168,-5.935469586641117
1621787058850.813,-0.164,0.159,0.651,-1.4124846153846153,-5.9362606077196824,-5.965787079113058
1621787058855.584,-0.23664041065581026,0.16332383396760775,0.6734839366315604,-1.187,-6.07,-5.992
1621787058856.33,-0.248,0.164,0.677,-1.17958181219743,-6.095481684655156,-6.061026866162898
1621787058861.843,-0.311,0.15,0.703,-1.1247682982020655,-6.283767653633584,-6.5710712591028155
1621787058867.352,-0.342,0.129,0.721,-1.0699936228862954,-6.471920210650466,-7.080754254837692
1621787058872.857,-0.34,0.115,0.74,-1.0152602136675948,-6.659931017458206,-7.590053266042212
1621787058873.386,-0.3370197861674283,0.11250046581784305,0.7404806796504148,-1.01,-6.678,-7.639
1621787058878.36,-0.309,0.089,0.745,-1.0541531347486404,-6.8242396819700195,-8.01134872870828
1621787058883.861,-0.241,0.063,0.744,-1.102982939016647,-6.9859689699914425,-8.423136377439748
1621787058889.295,-0.161,0.031,0.73,-1.1512167821549844,-7.145724374016509,-8.829898213842034
1621787058891.073,-0.12824975267560032,0.02608746290134005,0.728689990107024,-1.167,-7.198,-8.963
1621787058894.724,-0.061,0.016,0.726,-1.1424176940114505,-7.185708847005726,-8.93445952609804
1621787058900.151,0.042,0.012,0.712,-1.10588038224191,-7.1674401911209555,-8.892039087857134
1621787058905.572,0.148,0.014,0.7,-1.0693808767604163,-7.1491904383802085,-8.849662543357432
1621787058908.599,0.19717577068685774,0.02294104921579232,0.7,-1.049,-7.139,-8.826
1621787058910.989,0.236,0.03,0.7,-0.9940309684448727,-7.050529941750828,-8.66109290533462
1621787058916.401,0.316,0.056,0.703,-0.8695546662196706,-6.850191216527679,-8.287663998659012
1621787058921.81,0.361,0.096,0.71,-0.7451401332606964,-6.649951906019081,-7.91442039978209
1621787058926.077,0.3862660492432799,0.1331095098260673,0.7186852044273774,-0.647,-6.492,-7.62
1621787058927.214,0.393,0.143,0.721,-0.6220811416407585,-6.451686244853374,-7.5374807439150775
1621787058932.614,0.393,0.194,0.738,-0.5037566871131278,-6.260260818418621,-7.145647144497661
1621787058938.009,0.372,0.246,0.768,-0.385539226395541,-6.069008486681791,-6.754167857042826
1621787058943.401,0.351,0.311,0.785,-0.2673913116544828,-5.877868666498613,-6.362918872363667
1621787058943.51,0.3504734028092433,0.3122354780244676,0.7855671046669688,-0.265,-5.874,-6.355
1621787058948.789,0.325,0.372,0.813,-0.3275424804481824,-5.7637916485306295,-6.3191746956656045
1621787058954.171,0.298,0.438,0.826,-0.39130266354024795,-5.651437539489757,-6.282651872341023
1621787058959.549,0.269,0.497,0.833,-0.45501946055236514,-5.539159882618891,-6.246153901236995
1621787058960.898,0.26372901144830097,0.5128129656550973,0.8314940032709431,-0.471,-5.511,-6.237
1621787058964.923,0.248,0.56,0.827,-0.6007311834011345,-5.501948987204572,-6.375782196196562
1621787058970.294,0.246,0.609,0.808,-0.7738346166298335,-5.489872003490942,-6.560962613138892
1621787058975.66,0.267,0.66,0.791,-0.9467806759476922,-5.477805999352487,-6.745974676595205
1621787058978.242,0.2747059975408716,0.6758936199280478,0.7832940024591284,-1.03,-5.472,-6.835
1621787058981.021,0.283,0.693,0.775,-1.1133713467210455,-5.4909553350926465,-6.794037199587926
1621787058986.378,0.305,0.724,0.75,-1.2740789009469242,-5.527493854165197,-6.715076840575211
1621787058991.732,0.319,0.738,0.719,-1.4346985647958679,-5.564012390454552,-6.636159664695672
1621787058995.542,0.32399255061468857,0.7394264430327682,0.6926108038937892,-1.549,-5.59,-6.58
1621787058997.074,0.326,0.74,0.682,-1.5883914216730577,-5.574225607158074,-6.54248011646073
1621787059002.399,0.326,0.747,0.658,-1.7253103536429484,-5.519396080102259,-6.412066382616105
1621787059007.719,0.319,0.726,0.623,-1.8621037352648773,-5.464616829995739,-6.281772234057662
1621787059012.732,0.30296596233348644,0.7109091410197519,0.5899887459807074,-1.991,-5.413,-6.159
1621787059013.034,0.302,0.71,0.588,-1.9966895024634752,-5.408332141941731,-6.156058368695355
1621787059018.345,0.279,0.682,0.552,-2.0967456355196084,-5.326242744852334,-6.104326559963546
1621787059023.651,0.25,0.668,0.522,-2.196705180417509,-5.244232591917523,-6.052644690000855
1621787059028.953,0.213,0.651,0.483,-2.2965911343377097,-5.162282815481445,-6.001000868624156
1621787059029.877,0.20532428446328985,0.6464643499101258,0.4767198691063281,-2.314,-5.148,-5.992
1621787059034.25,0.169,0.625,0.447,-2.38179712339137,-5.1331613843143415,-6.05979712339137
1621787059039.542,0.12,0.602,0.405,-2.463841029523089,-5.115204604859097,-6.141841029523088
1621787059044.829,0.072,0.578,0.37,-2.5458092354277064,-5.097264393755445,-6.223809235427706
1621787059046.97,0.05214688351892066,0.5694915215081089,0.35460370558610177,-2.579,-5.09,-6.257
1621787059050.113,0.023,0.557,0.332,-2.618830182193194,-5.153248854130858,-6.416136329781139
1621787059055.391,-0.012,0.531,0.3,-2.6857160536266758,-5.25946114071273,-6.683370158702876
1621787059060.665,-0.037,0.494,0.262,-2.752549329666552,-5.365589907757534,-6.950393849547382
1621787059064.015,-0.04335761282550273,0.4704768325456399,0.23529802613288853,-2.795,-5.433,-7.12
1621787059065.934,-0.047,0.457,0.22,-2.7517593066007926,-5.487191991727466,-7.206368486815649
1621787059071.198,-0.047,0.419,0.182,-2.6331595622450736,-5.635828747055782,-7.443258315620152
1621787059076.459,-0.038,0.384,0.145,-2.5146258258172,-5.784382777043718,-7.680016300913426
1621787059081.014,-0.031067211667982722,0.36320163500394814,0.11726884667193088,-2.412,-5.913,-7.885
1621787059081.715,-0.03,0.36,0.113,-2.3690201071613757,-5.9288434061185695,-7.892280520827332
1621787059086.965,-0.012,0.321,0.094,-2.047209656046552,-6.047470357780723,-7.9467931670219505
1621787059092.211,0.007,0.286,0.075,-1.7256536123754105,-6.1660035288356285,-8.001262718211672
1621787059097.454,0.031,0.26,0.072,-1.4042621852854758,-6.284476018321139,-8.055704384398226
1621787059097.964,0.03304517482517483,0.2586365501165501,0.07092871794871794,-1.373,-6.296,-8.061
1621787059102.691,0.052,0.246,0.061,-1.1316516972410804,-6.323406875631951,-8.055406760075112
1621787059107.923,0.079,0.222,0.068,-0.8644994077711975,-6.353743983822043,-8.049215513505706
1621787059113.151,0.103,0.199,0.068,-0.5975715007944533,-6.3840556117290195,-8.043029466994078
1621787059114.866,0.10858112907748388,0.19506037947471727,0.07095471539396206,-0.51,-6.394,-8.041
1621787059118.375,0.12,0.187,0.077,-0.3690474114204595,-6.389835964886867,-8.028924298171916
1621787059123.594,0.138,0.182,0.091,-0.15940826259524293,-6.3836427847147785,-8.010964075672858
1621787059128.807,0.152,0.171,0.11,0.0499857171828374,-6.37745684735058,-7.993024857316684
1621787059131.72,0.16094410869055986,0.171,0.12285715624267979,0.167,-6.374,-7.983
1621787059134.018,0.168,0.171,0.133,0.1829968770879935,-6.332435464660256,-7.972198689829474
1621787059139.222,0.187,0.169,0.143,0.21922055021352002,-6.238315835342648,-7.947739970368649
1621787059144.422,0.204,0.166,0.15,0.25541873166197016,-6.144262440809924,-7.923298463236789
1621787059148.528,0.2126926980546941,0.1588877925007048,0.15553171694389625,0.284,-6.07,-7.904
1621787059149.618,0.215,0.157,0.157,0.2891367893609893,-6.052183793861885,-7.879161347646861
1621787059154.81,0.227,0.145,0.168,0.3136090338368316,-5.967305376312762,-7.760827203472536
1621787059159.996,0.241,0.154,0.169,0.3380525104511092,-5.882526735903748,-7.64263216465413
1621787059165.178,0.248,0.157,0.18,0.3624764249195228,-5.79781594395001,-7.524531717477751
1621787059165.289,0.24795708559302052,0.1571931148314077,0.18021457203489744,0.363,-5.796,-7.522
1621787059170.355,0.246,0.166,0.19,0.37785347396715946,-5.709607345293052,-7.411963039794308
1621787059175.529,0.239,0.183,0.194,0.3930240606556419,-5.621370259451879,-7.299576856775551
1621787059180.697,0.236,0.211,0.197,0.40817675159235667,-5.533237261146497,-7.187323248407643
1621787059182.001,0.23195914507282012,0.21731383582371855,0.19801021373179498,0.412,-5.511,-7.159
1621787059185.86,0.22,0.236,0.201,0.47105046879578083,-5.483906255493701,-7.140705933196601
1621787059191.019,0.206,0.262,0.211,0.5499898915909757,-5.447686990917082,-7.1162501904482856
1621787059196.174,0.194,0.274,0.22,0.6288695429241137,-5.411495150893642,-7.091812965133314
1621787059198.666,0.18528847795163583,0.2851313892840209,0.2258076813655761,0.667,-5.394,-7.08
1621787059201.323,0.176,0.297,0.232,0.7124104579580682,-5.428377635426003,-7.067528113659404
1621787059206.468,0.162,0.321,0.239,0.8003439313577128,-5.494946990288409,-7.0433773709651355
1621787059211.608,0.141,0.333,0.253,0.8881897800567121,-5.561450009549976,-7.019250694209776
1621787059215.283,0.13599234863606122,0.34587681779298546,0.2658768177929855,0.951,-5.609,-7.002
1621787059216.745,0.134,0.351,0.271,0.942485987002437,-5.619251566670535,-7.002
1621787059221.876,0.129,0.363,0.272,0.912609463850528,-5.655225339445282,-7.002
1621787059227.136,0.126,0.38,0.281,0.8819809098294069,-5.6921046187768365,-7.002
1621787059232.113,0.126,0.38568039752937355,0.28762713045093574,0.853,-5.727,-7.002
1621787059232.393,0.126,0.386,0.288,0.846694990862389,-5.727495157785676,-7.00394762062366
1621787059237.647,0.112,0.393,0.288,0.7284004863799232,-5.73678530211676,-7.0404888549925895
1621787059242.897,0.11,0.396,0.295,0.6101939332019052,-5.746068539277338,-7.0770029211575265
1621787059248.145,0.101,0.401,0.297,0.4920313556761112,-5.755348322852661,-7.113503403220468
1621787059249.079,0.10010936263326971,0.40135625494669214,0.297,0.471,-5.757,-7.12
1621787059253.389,0.096,0.403,0.297,0.3485599792354612,-5.744272347113873,-7.187202007238749
1621787059258.632,0.096,0.4,0.297,0.19960388758309422,-5.7287883459026085,-7.268957533634227
1621787059263.87,0.093,0.391,0.288,0.05079345051839251,-5.713319485500873,-7.350633116555394
1621787059266.01,0.09422633149892734,0.3881385598358362,0.2859561141684544,-0.01,-5.707,-7.384
1621787059269.105,0.096,0.384,0.283,-0.08710001155701944,-5.69637814567623,-7.398467698130652
1621787059274.339,0.094,0.386,0.276,-0.21748946866603103,-5.678414752535321,-7.4229350784432695
1621787059279.568,0.091,0.36,0.265,-0.34775120626390454,-5.660468954956516,-7.447378492386814
1621787059282.91,0.08844209296893249,0.35552366269563185,0.2630815697266994,-0.431,-5.649,-7.463
1621787059284.794,0.087,0.353,0.262,-0.4683028540002315,-5.64241057369457,-7.450937999305315
1621787059290.017,0.079,0.344,0.25,-0.571718333912238,-5.624142569758018,-7.4174982632858635
1621787059295.239,0.07,0.319,0.241,-0.6751096445525067,-5.605878835243719,-7.384066342480028
1621787059299.779,0.06216790678085077,0.30246558098179605,0.23316790678085078,-0.765,-5.59,-7.355
1621787059300.456,0.061,0.3,0.232,-0.771714967229279,-5.592372353691781,-7.351863668000696
1621787059305.67,0.045,0.274,0.213,-0.823429658952497,-5.6106428136419,-7.327709500609013
1621787059310.881,0.028,0.26,0.201,-0.875117713589699,-5.628903862884983,-7.303567774491039
1621787059316.09,0.019,0.237,0.183,-0.9267839742474335,-5.647157212458674,-7.2794362275970075
1621787059316.616,0.01778756039213847,0.2348782306862423,0.18158548712416153,-0.932,-5.649,-7.277
1621787059321.295,0.007,0.216,0.169,-0.9481497333972599,-5.673503043775153,-7.282290429905999
1621787059326.497,0.0,0.194,0.15,-0.9661053044501591,-5.700745979165759,-7.28817242731988
1621787059331.696,-0.019,0.166,0.131,-0.9840499208182597,-5.727972293655291,-7.29405083613012
1621787059333.42,-0.02430827420946295,0.15903289010007987,0.12469642437626274,-0.99,-5.737,-7.296
1621787059336.892,-0.035,0.145,0.112,-0.9738543962041714,-5.7653583041029295,-7.35892645581964
1621787059342.085,-0.049,0.12,0.098,-0.9497075116072599,-5.8077701398693,-7.453037390658885
1621787059347.275,-0.038,0.087,0.075,-0.9255742500764115,-5.850158047942713,-7.547095230471422
1621787059350.194,-0.02955817565659418,0.07349308105055069,0.06543259907747341,-0.912,-5.874,-7.6
1621787059352.462,-0.023,0.063,0.058,-0.8813830268204822,-5.887276386599968,-7.615985853253022
1621787059357.646,-0.002,0.049,0.04,-0.8113947817463212,-5.917625271632126,-7.652528388291744
1621787059362.827,0.016,0.031,0.017,-0.7414493852727989,-5.947955576297636,-7.689048551052255
1621787059366.934,0.03820962798811825,0.01354957800933566,0.003515583007213918,-0.686,-5.972,-7.718
1621787059368.005,0.044,0.009,0.0,-0.6678008298755187,-5.963220822862486,-7.700377564140027
1621787059373.18,0.063,-0.003,-0.019,-0.5798464730290457,-5.920792136637251,-7.615210493249956
1621787059378.352,0.079,-0.026,-0.035,-0.491941908713693,-5.878387470048507,-7.530091636958681
1621787059383.52,0.079,-0.037,-0.051,-0.4041078838174274,-5.836016831278125,-7.445041084682368
1621787059383.644,0.07883194706994329,-0.0375281663516068,-0.05128809073724007,-0.402,-5.835,-7.443
1621787059388.686,0.072,-0.059,-0.063,-0.29499481865284977,-5.7904397686741325,-7.350848229094805
1621787059393.829,0.059,-0.07,-0.068,-0.18584455958549223,-5.744986261357131,-7.256849139133115
1621787059398.97,0.042,-0.079,-0.075,-0.07674093264248705,-5.699552173083415,-7.162890208281349
1621787059400.277,0.0366554166468603,-0.08154503969197129,-0.07601801587678851,-0.049,-5.688,-7.139
1621787059404.106,0.021,-0.089,-0.079,0.00987705376597374,-5.703931438077851,-7.134613082268418
1621787059409.239,-0.002,-0.089,-0.08,0.08880902184794771,-5.725289500029445,-7.128731876803487
1621787059414.37,-0.026,-0.091,-0.08,0.16771095636299393,-5.746639435251163,-7.122852909133738
1621787059416.86,-0.03182911030672509,-0.09925790626786055,-0.08,0.206,-5.757,-7.12
1621787059419.496,-0.038,-0.108,-0.08,0.23101075601983,-5.806862207861189,-7.14501075601983
1621787059424.619,-0.049,-0.105,-0.079,0.27961691454202076,-5.903764931539188,-7.193616914542021
1621787059429.739,-0.051,-0.106,-0.077,0.32819759206798865,-6.000616855524079,-7.242197592067988
1621787059433.407,-0.04956634381411327,-0.10743365618588673,-0.07556634381411327,0.363,-6.07,-7.277
1621787059434.856,-0.049,-0.108,-0.075,0.3664225701991749,-6.091500761507637,-7.296745597302932
1621787059439.969,-0.031,-0.105,-0.075,0.37849988910082955,-6.167371098197519,-7.36642243712017
1621787059445.079,-0.01,-0.103,-0.073,0.3905702878942466,-6.243197962412575,-7.436059353236038
1621787059449.918,0.010849191928851485,-0.09636616620445634,-0.073,0.402,-6.315,-7.502
1621787059450.185,0.012,-0.096,-0.073,0.402,-6.314367817454438,-7.501367817454438
1621787059455.289,0.042,-0.086,-0.07,0.402,-6.3022870054822935,-7.489287005482294
1621787059460.389,0.07,-0.087,-0.073,0.402,-6.290216017187731,-7.4772160171877315
1621787059465.485,0.091,-0.073,-0.073,0.402,-6.278153696843977,-7.465153696843977
1621787059466.395,0.09475111430625449,-0.07157100407380781,-0.07246412652767793,0.402,-6.276,-7.463
1621787059470.579,0.112,-0.065,-0.07,0.402,-6.271164652074485,-7.390469781117282
1621787059475.669,0.127,-0.063,-0.068,0.402,-6.265282557690594,-7.302238365358914
1621787059480.755,0.145,-0.052,-0.065,0.402,-6.259404977577144,-7.214074663657153
1621787059482.836,0.14622824207492793,-0.04913410182516811,-0.06336234390009607,0.402,-6.257,-7.178
1621787059485.838,0.148,-0.045,-0.061,0.39833709672614614,-6.242531532068277,-7.138623789806071
1621787059490.919,0.148,-0.038,-0.052,0.3921373290833805,-6.218042449879353,-7.071976287646341
1621787059495.986,0.148,-0.024,-0.049,0.3859545413923561,-6.193620438499806,-7.005511319967828
1621787059499.227,0.15184077538817628,-0.01951909538046099,-0.04771974153727457,0.382,-6.178,-6.963
1621787059501.049,0.154,-0.017,-0.047,0.3733013448894202,-6.172535460251046,-6.957535460251046
1621787059506.109,0.15,-0.014,-0.035,0.3491448894202032,-6.157360251046025,-6.942360251046025
1621787059511.166,0.145,-0.009,-0.033,0.3250012552301255,-6.142193096234309,-6.927193096234309
1621787059515.565,0.13890489537524767,-0.007258541535785049,-0.033,0.304,-6.129,-6.914
1621787059516.218,0.138,-0.007,-0.033,0.3008752340017672,-6.128238839051712,-6.915562382999116
1621787059521.268,0.136,-0.003,-0.028,0.27671232384346967,-6.122353001961871,-6.927643838078265
1621787059526.314,0.133,-0.002,-0.03,0.2525692720111422,-6.11647200215656,-6.939715363994429
1621787059531.356,0.129,-0.005,-0.03,0.2284449103679631,-6.110595555089632,-6.951777544816019
1621787059531.867,0.1280873546511628,-0.005709835271317829,-0.03030421511627907,0.226,-6.11,-6.953
1621787059536.395,0.12,-0.012,-0.033,0.20957391395718875,-6.118073838902399,-6.97749992494521
1621787059541.43,0.122,-0.002,-0.026,0.1913092257347864,-6.12705139752019,-7.004742171785404
1621787059546.462,0.126,-0.009,-0.031,0.17305516527064757,-6.136023732324597,-7.03196856705395
1621787059548.131,0.126,-0.009,-0.030668090684013785,0.167,-6.139,-7.041
1621787059551.491,0.126,-0.009,-0.03,0.167,-6.143140877702388,-7.053215589222043
1621787059556.516,0.127,-0.014,-0.033,0.167,-6.149334140727256,-7.071485715145406
1621787059561.537,0.129,-0.017,-0.033,0.167,-6.155522288585656,-7.089740751327686
1621787059564.359,0.1301244831444277,-0.02318465729435229,-0.03524896628885538,0.167,-6.159,-7.1
1621787059566.556,0.131,-0.028,-0.037,0.167,-6.1562864745880255,-7.097286474588025
1621787059571.571,0.133,-0.031,-0.035,0.167,-6.150092315346692,-7.091092315346692
1621787059576.581,0.136,-0.031,-0.037,0.167,-6.1439044883682365,-7.084904488368236
1621787059580.552,0.136,-0.03654930058000683,-0.03779275722571526,0.167,-6.139,-7.08
1621787059581.59,0.136,-0.038,-0.038,0.16950374441357652,-6.135854269839353,-7.078780227080565
1621787059586.594,0.133,-0.037,-0.042,0.18157259330837058,-6.1206908443048675,-7.0729005314651525
1621787059591.594,0.133,-0.033,-0.044,0.19363202077545597,-6.105539255948786,-7.06702542577606
1621787059596.602,0.131,-0.035,-0.044,0.20571087993719048,-6.090363253412248,-7.061140853363932
1621787059596.722,0.1308802672649239,-0.035,-0.04407183964104565,0.206,-6.09,-7.061
1621787059601.608,0.126,-0.035,-0.047,0.223840941027152,-6.083952223380626,-7.061
1621787059606.609,0.122,-0.04,-0.049,0.24210176329268845,-6.077762114138072,-7.061
1621787059611.606,0.117,-0.045,-0.047,0.26034832207666625,-6.0715768399740115,-7.061
1621787059612.88,0.11597986314760508,-0.04423489736070381,-0.048020136852394917,0.265,-6.07,-7.061
1621787059616.601,0.113,-0.042,-0.051,0.2740011811023622,-6.07,-7.061
1621787059621.593,0.108,-0.04,-0.044,0.2860761811023622,-6.07,-7.061
1621787059626.58,0.11,-0.037,-0.045,0.29813937007874014,-6.07,-7.061
1621787059629.003,0.11,-0.03602772607034388,-0.04597227392965612,0.304,-6.07,-7.061
1621787059631.564,0.11,-0.035,-0.047,0.30081605026330566,-6.063791298013446,-7.057816050263305
1621787059636.545,0.106,-0.044,-0.042,0.2946235867239312,-6.051715994111666,-7.051623586723931
1621787059641.523,0.099,-0.038,-0.044,0.288434765453083,-6.039647792633512,-7.045434765453083
1621787059645.09,0.09541359842906234,-0.03728271968581247,-0.041130878743249874,0.284,-6.031,-7.041
1621787059646.496,0.094,-0.037,-0.04,0.28575181371579794,-6.031,-7.035832149538396
1621787059651.467,0.091,-0.035,-0.044,0.29194536799038767,-6.031,-7.017561164428357
1621787059656.434,0.084,-0.04,-0.044,0.2981340552708026,-6.031,-6.999304536951133
1621787059661.142,0.07356698799921306,-0.0437938225457407,-0.044948455636435174,0.304,-6.031,-6.982
1621787059661.398,0.073,-0.044,-0.045,0.3043195268076284,-6.032262130890132,-6.981696449532754
1621787059666.358,0.066,-0.037,-0.044,0.3105137125173407,-6.056729164443496,-6.975811973108526
1621787059671.314,0.059,-0.035,-0.04,0.3167030199551809,-6.0811769288229645,-6.969932131042579
1621787059676.268,0.058,-0.042,-0.044,0.3228898882570849,-6.105615058615486,-6.964054606155769
1621787059677.157,0.05638377311960543,-0.042897903822441436,-0.04364083847102342,0.324,-6.11,-6.963
1621787059681.218,0.049,-0.047,-0.042,0.324,-6.127283134186963,-6.955375087858693
1621787059686.164,0.044,-0.047,-0.035,0.324,-6.148332732328943,-6.946088500443113
1621787059691.108,0.042,-0.047,-0.04,0.324,-6.169372979250069,-6.936806038566146
1621787059693.135,0.03831668966876972,-0.042088919558359625,-0.039181486593059936,0.324,-6.178,-6.933
1621787059696.061,0.033,-0.035,-0.038,0.3274709477791666,-6.174529052220834,-6.933
1621787059701.021,0.031,-0.042,-0.042,0.33335461695576624,-6.168645383044233,-6.933
1621787059705.977,0.03,-0.045,-0.04,0.3392336524098406,-6.162766347590159,-6.933
1621787059709.152,0.025513528165196392,-0.04307722635651274,-0.03871815090434182,0.343,-6.159,-6.933
1621787059710.931,0.023,-0.042,-0.038,0.34088540616503227,-6.161114593834967,-6.926433629670363
1621787059715.88,0.019,-0.042,-0.042,0.335002214890172,-6.166997785109828,-6.908164772553691
1621787059720.827,0.014,-0.044,-0.042,0.32912134543121624,-6.172878654568784,-6.889903125286408
1621787059725.135,0.012256926952141058,-0.04487153652392947,-0.04374307304785894,0.324,-6.178,-6.874
1621787059725.77,0.012,-0.045,-0.044,0.32240739663538814,-6.179552788280496,-6.871690725121312
1621787059730.711,0.0,-0.04,-0.042,0.3100155831432639,-6.191634806435317,-6.853722595557732
1621787059735.647,-0.002,-0.035,-0.042,0.29763601573621934,-6.203704884657186,-6.835772222817518
1621787059740.581,-0.003,-0.042,-0.047,0.28526134676320664,-6.215770186905873,-6.817828952806649
1621787059741.084,-0.003714108849601347,-0.0422040310998861,-0.0472040310998861,0.284,-6.217,-6.816
1621787059745.511,-0.01,-0.044,-0.049,0.2787155193570158,-6.228125222406282,-6.821284480642984
1621787059750.438,-0.012,-0.042,-0.044,0.27283419228173506,-6.240506963617399,-6.827165807718265
1621787059755.362,-0.016,-0.049,-0.049,0.2669563623535186,-6.2528813424136445,-6.833043637646481
1621787059757.001,-0.017665591504565304,-0.04500258038904327,-0.04766752679634776,0.265,-6.257,-6.835
1621787059760.282,-0.021,-0.037,-0.045,0.25694366478626435,-6.257,-6.831075118742026
1621787059765.2,-0.024,-0.044,-0.049,0.2448678543431145,-6.257,-6.825192031603056
1621787059770.114,-0.031,-0.042,-0.051,0.232801635488879,-6.257,-6.8193136172894535
1621787059772.884,-0.03212833772562279,-0.03974332454875441,-0.051,0.226,-6.257,-6.816
1621787059775.024,-0.033,-0.038,-0.051,0.226,-6.2542994623573085,-6.8238315591638035
1621787059779.931,-0.035,-0.038,-0.051,0.226,-6.248106866113105,-6.841790088271995
1621787059784.835,-0.042,-0.042,-0.058,0.226,-6.241917967125229,-6.859737895336835
1621787059788.732,-0.043590236612702365,-0.042,-0.058,0.226,-6.237,-6.874
1621787059789.736,-0.044,-0.042,-0.058,0.22965555180973982,-6.239458043458273,-6.876521070213613
1621787059794.702,-0.045,-0.04,-0.059,0.24773333537650555,-6.251613794477305,-6.888988507156211
1621787059799.621,-0.047,-0.04,-0.059,0.265641361978608,-6.263655398571823,-6.901338870330074
1621787059804.536,-0.049,-0.042,-0.059,0.2835333905421557,-6.275686245364553,-6.913678200373901
1621787059804.664,-0.049,-0.04194781312127237,-0.05923484095427435,0.284,-6.276,-6.914
1621787059809.448,-0.049,-0.04,-0.068,0.2665050029247868,-6.276,-6.89620336504418
1621787059814.357,-0.049,-0.044,-0.065,0.24855287706659276,-6.276,-6.877941719774638
1621787059819.263,-0.054,-0.049,-0.063,0.23061146516424988,-6.276,-6.859690973184324
1621787059820.524,-0.05528565739035197,-0.04771434260964803,-0.06197147408771842,0.226,-6.276,-6.855
1621787059824.167,-0.059,-0.044,-0.059,0.20321234651693715,-6.276,-6.8729539088048375
1621787059829.066,-0.063,-0.047,-0.061,0.17256919849447772,-6.276,-6.897096995125563
1621787059833.962,-0.066,-0.049,-0.059,0.14194437588696243,-6.276,-6.921225643240575
1621787059836.351,-0.06453576059850374,-0.05241655860349127,-0.0599761596009975,0.127,-6.276,-6.933
1621787059838.857,-0.063,-0.056,-0.061,0.1301729936935823,-6.282187337702485,-6.937759490540373
1621787059843.747,-0.063,-0.065,-0.066,0.13636503029553604,-6.294261809076295,-6.947047545443304
1621787059848.634,-0.063,-0.073,-0.059,0.14255304810189193,-6.30632844379869,-6.956329572152838
1621787059852.146,-0.05940464883779056,-0.06437115721069732,-0.06187628092976756,0.147,-6.315,-6.963
1621787059853.518,-0.058,-0.061,-0.063,0.15213623619437086,-6.318482194030082,-6.968136236194371
1621787059858.399,-0.056,-0.063,-0.056,0.17040734544665953,-6.330869386743498,-6.9864073454466595
1621787059863.277,-0.054,-0.068,-0.058,0.18866840156760692,-6.343249763774649,-7.004668401567607
1621787059867.907,-0.04735029805139508,-0.07464970194860492,-0.06084987226368782,0.206,-6.355,-7.022
1621787059868.151,-0.047,-0.075,-0.061,0.2063101232421693,-6.355,-7.0226047403222305
1621787059873.024,-0.038,-0.066,-0.059,0.21250637941203862,-6.355,-7.034687439853475
1621787059877.892,-0.026,-0.07,-0.061,0.21869642690839103,-6.355,-7.046758032471362
1621787059882.757,-0.028,-0.072,-0.056,0.22488243876695746,-6.355,-7.058820755595567
1621787059883.636,-0.026373412319895578,-0.072,-0.056361463928912094,0.226,-6.355,-7.061
1621787059887.62,-0.019,-0.072,-0.058,0.23589937938436173,-6.349923395187507,-7.046024015803145
1621787059892.479,-0.01,-0.079,-0.056,0.247972266724736,-6.343732170910392,-7.027759904185656
1621787059897.334,-0.007,-0.08,-0.061,0.2600354481964816,-6.337545924001804,-7.009510475805323
1621787059899.332,-0.0053531542408693025,-0.07794144280108663,-0.05894144280108663,0.265,-6.335,-7.002
1621787059902.187,-0.003,-0.075,-0.056,0.265,-6.327892182532261,-6.982316813166261
1621787059907.038,-0.003,-0.082,-0.054,0.265,-6.315814849448289,-6.948871890779876
1621787059911.884,0.002,-0.082,-0.052,0.265,-6.303750280531139,-6.915462315317
1621787059914.997,0.000714422543731411,-0.07878605635932853,-0.053285577456268586,0.265,-6.296,-6.894
1621787059916.727,0.0,-0.077,-0.054,0.2497274942212782,-6.2916838570625355,-6.883154307490473
1621787059921.567,-0.003,-0.075,-0.054,0.20700068719935028,-6.279608889860686,-6.852812082214031
1621787059926.405,-0.009,-0.08,-0.054,0.16428896732679454,-6.267538186418442,-6.822480571000187
1621787059930.629,-0.011621363636363636,-0.08349515151515152,-0.05137863636363636,0.127,-6.257,-6.796
1621787059931.239,-0.012,-0.084,-0.051,0.127,-6.257743074900622,-6.796
1621787059936.07,-0.019,-0.086,-0.052,0.127,-6.263627014930044,-6.796
1621787059940.898,-0.028,-0.075,-0.049,0.127,-6.269507089423769,-6.796
1621787059945.723,-0.033,-0.082,-0.044,0.127,-6.275383595730696,-6.796
1621787059946.229,-0.03340962307958307,-0.08251202884947884,-0.04410240576989576,0.127,-6.276,-6.796
1621787059950.665,-0.037,-0.087,-0.045,0.12173349402001464,-6.286810196485233,-6.806810196485233
1621787059955.619,-0.037,-0.087,-0.044,0.11585222418843055,-6.298882276665854,-6.818882276665853
1621787059960.571,-0.04,-0.086,-0.045,0.1099729832804491,-6.310950192213816,-6.830950192213815
1621787059962.233,-0.041342934648582,-0.0870072009864365,-0.045,0.108,-6.315,-6.835
1621787059965.521,-0.044,-0.089,-0.045,0.08783678333002337,-6.3110908049313315,-6.855163216669976
1621787059970.468,-0.045,-0.091,-0.045,0.057500633984631594,-6.305209306588857,-6.8854993660153685
1621787059975.414,-0.044,-0.096,-0.049,0.027170473120579283,-6.29932896927848,-6.9158295268794205
1621787059978.214,-0.044,-0.09713296453620468,-0.04673407092759063,0.01,-6.296,-6.933
1621787059980.357,-0.044,-0.098,-0.045,0.004763446946518174,-6.290763446946518,-6.937028117733448
1621787059985.298,-0.042,-0.098,-0.049,-0.007311589768694162,-6.278688410231306,-6.94631660751438
1621787059990.237,-0.044,-0.103,-0.049,-0.01938125688410232,-6.266618743115897,-6.9556009668339245
1621787059994.173,-0.04240549896152705,-0.10459450103847294,-0.05059450103847295,-0.029,-6.257,-6.963
1621787059995.174,-0.042,-0.105,-0.051,-0.030256088967862506,-6.259449373487332,-6.95496103060568
1621787060000.108,-0.037,-0.098,-0.047,-0.03644738212677308,-6.271522395147207,-6.915336754388652
1621787060005.04,-0.04,-0.108,-0.049,-0.0426365307435434,-6.28359123494991,-6.875726203241323
1621787060009.97,-0.042,-0.101,-0.049,-0.04882292209184768,-6.295654698079103,-6.836133298612175
1621787060010.111,-0.04185685274159196,-0.10111451780672644,-0.04908588835504483,-0.049,-6.296,-6.835
1621787060014.899,-0.037,-0.105,-0.052,-0.049,-6.289983156150766,-6.81725031064476
1621787060019.824,-0.04,-0.101,-0.049,-0.049,-6.283793885283876,-6.798991961587433
1621787060024.748,-0.047,-0.099,-0.052,-0.049,-6.277605841655545,-6.780737232883857
1621787060026.026,-0.04933660714285714,-0.09822113095238096,-0.05122113095238095,-0.049,-6.276,-6.776
1621787060029.67,-0.056,-0.096,-0.049,-0.06253031373874567,-6.271642780321421,-6.785173094060166
1621787060034.589,-0.052,-0.103,-0.051,-0.08079524014380973,-6.265760854868942,-6.7975560950127525
1621787060039.506,-0.049,-0.101,-0.051,-0.09905200811234366,-6.259881556709584,-6.809933564821928
1621787060041.916,-0.049980676568476476,-0.10198067656847648,-0.051,-0.108,-6.257,-6.816
1621787060044.421,-0.051,-0.103,-0.051,-0.10484263975011925,-6.269313704974534,-6.812842639750119
1621787060049.334,-0.051,-0.098,-0.054,-0.09864978227754612,-6.29346584911757,-6.806649782277546
1621787060054.245,-0.049,-0.093,-0.049,-0.09245938668431013,-6.3176083919311905,-6.80045938668431
1621787060057.783,-0.049,-0.08795413619857732,-0.049,-0.088,-6.335,-6.796
1621787060059.153,-0.049,-0.086,-0.049,-0.08125532734472504,-6.34010173957258,-6.794270596755058
1621787060064.06,-0.049,-0.08,-0.044,-0.057099736521779326,-6.358373276220705,-6.788076855518405
1621787060068.963,-0.044,-0.072,-0.044,-0.032964576816998194,-6.376629358561502,-6.781888353029999
1621787060073.628,-0.04875820508989492,-0.06153194880223119,-0.04209671796404204,-0.01,-6.394,-6.776
1621787060073.865,-0.049,-0.061,-0.042,-0.009700341012544942,-6.394584335025537,-6.775715323961918
1621787060078.765,-0.042,-0.061,-0.038,-0.0035065656487725094,-6.406662196984894,-6.769831237366334
1621787060083.663,-0.047,-0.051,-0.035,0.0026850494545342333,-6.418735846436341,-6.763949203018192
1621787060088.558,-0.045,-0.058,-0.031,0.00887265264554755,-6.430801672658817,-6.758070979986729
1621787060089.45,-0.043724065665385954,-0.05544813133077192,-0.030817723666483707,0.01,-6.433,-6.757
1621787060093.451,-0.038,-0.044,-0.03,0.007467117973447087,-6.428187524149549,-6.751934235946894
1621787060098.343,-0.037,-0.035,-0.028,0.004370102471368295,-6.4223031946955995,-6.745740204942736
1621787060103.231,-0.033,-0.031,-0.024,0.0012757144402714034,-6.4164238574365156,-6.739551428880543
1621787060105.246,-0.03217530099415497,-0.028113553479542388,-0.023587650497077485,0.0,-6.414,-6.737
1621787060108.118,-0.031,-0.024,-0.023,-0.005278805979387825,-6.421099083903314,-6.712062192442202
1621787060113.002,-0.028,-0.017,-0.017,-0.014256321376620966,-6.433172294265111,-6.669651171427687
1621787060117.885,-0.04,-0.016,-0.012,-0.02323204171953824,-6.445243090588344,-6.627248630497354
1621787060121.023,-0.04450125075045027,-0.012141785071042625,-0.007498749249549731,-0.029,-6.453,-6.6
1621787060122.765,-0.047,-0.01,-0.005,-0.03342226939585045,-6.453,-6.597788865302075
1621787060127.642,-0.049,0.0,0.002,-0.04580400390473682,-6.453,-6.591597998047631
1621787060132.519,-0.058,0.009,0.005,-0.05818511861412833,-6.453,-6.5854074406929355
1621787060136.779,-0.058,0.009,0.01461618236472946,-0.069,-6.453,-6.58
1621787060137.392,-0.058,0.009,0.016,-0.07203985720937452,-6.4507006208288065,-6.5815199286046875
1621787060142.263,-0.066,0.012,0.012,-0.09619286046872574,-6.432431041440323,-6.593596430234363
1621787060147.133,-0.073,0.019,0.014,-0.1203422318795592,-6.414164209219308,-6.60567111593978
1621787060152.0,-0.073,0.024,0.016,-0.144475865280149,-6.395909281390657,-6.6177379326400745
1621787060152.509,-0.07436021478396146,0.024418527625834296,0.01652315953229287,-0.147,-6.394,-6.619
1621787060156.865,-0.086,0.028,0.021,-0.1849912029841467,-6.361277649984458,-6.6137311470313955
1621787060161.727,-0.093,0.026,0.024,-0.22739647186820017,-6.324753403792353,-6.607850124339446
1621787060166.589,-0.106,0.028,0.019,-0.2698017407522536,-6.288229157600249,-6.601969101647497
1621787060168.217,-0.10901598150567897,0.027329781887626897,0.017994672831440347,-0.284,-6.276,-6.6
1621787060171.447,-0.115,0.026,0.016,-0.284,-6.276,-6.577761245136187
1621787060176.303,-0.127,0.023,0.021,-0.284,-6.276,-6.54432747081712
1621787060181.157,-0.145,0.023,0.023,-0.284,-6.276,-6.510907143968872
1621787060183.903,-0.15179158699808795,0.026961759082217974,0.024697896749521987,-0.284,-6.276,-6.492
1621787060186.009,-0.157,0.03,0.026,-0.2998647734534516,-6.2707565579264015,-6.497243442073598
1621787060190.858,-0.178,0.023,0.024,-0.3363927430290372,-6.258683754422607,-6.509316245577393
1621787060195.706,-0.187,0.03,0.021,-0.37291519506226717,-6.246612774513318,-6.521387225486682
1621787060199.567,-0.1933737215980654,0.028406569600483652,0.01940656960048365,-0.402,-6.237,-6.531
1621787060200.552,-0.195,0.028,0.019,-0.4088028973742546,-6.237,-6.534086499734615
1621787060205.395,-0.204,0.024,0.016,-0.44224752567985265,-6.237,-6.549260451465859
1621787060210.235,-0.216,0.023,0.014,-0.4756719223203971,-6.237,-6.564425224015736
1621787060215.074,-0.223,0.014,0.012,-0.5090878891005026,-6.237,-6.579586171906709
1621787060215.206,-0.22330037351100343,0.014081920048455482,0.012,-0.51,-6.237,-6.58
1621787060219.911,-0.234,0.017,0.012,-0.5630192743586938,-6.230975082459239,-6.58
1621787060224.745,-0.241,0.017,0.009,-0.617496709446468,-6.224784464835628,-6.58
1621787060229.577,-0.244,0.009,0.005,-0.6719466320676557,-6.218596973628675,-6.58
1621787060230.824,-0.24632322619769556,0.007967455023246412,0.0013860925813624424,-0.686,-6.217,-6.58
1621787060234.408,-0.253,0.005,-0.009,-0.6995591840568594,-6.192409615354509,-6.55517979867558
1621787060239.236,-0.264,0.002,-0.017,-0.7178252892277346,-6.159282950044617,-6.5217435383627915
1621787060244.061,-0.274,-0.005,-0.035,-0.7360793869467883,-6.1261780609609096,-6.48832925779232
1621787060246.419,-0.28328700845184474,-0.005,-0.03842152942962701,-0.745,-6.11,-6.472
1621787060248.885,-0.293,-0.005,-0.042,-0.7233026231204629,-6.1239370012072945,-6.440958497311027
1621787060253.707,-0.307,-0.012,-0.049,-0.6808766365104502,-6.151188729832704,-6.380261465372615
1621787060258.526,-0.328,-0.017,-0.052,-0.638478574452406,-6.1784225215196225,-6.319604383888113
1621787060261.99,-0.34166332167654956,-0.01843824438700522,-0.05991034412852871,-0.608,-6.198,-6.276
1621787060263.343,-0.347,-0.019,-0.063,-0.608,-6.199653315329178,-6.267472373565294
1621787060268.158,-0.37,-0.007,-0.068,-0.608,-6.205536874499521,-6.23712559468668
1621787060272.97,-0.393,-0.003,-0.072,-0.608,-6.211416853773807,-6.2067972805351
1621787060277.539,-0.4176924794478839,-0.004899421495991069,-0.07674855373997767,-0.608,-6.217,-6.178
1621787060277.781,-0.419,-0.005,-0.077,-0.6095271566499985,-6.217,-6.179527156649998
1621787060282.589,-0.447,-0.012,-0.08,-0.6398761203887159,-6.217,-6.209876120388715
1621787060287.396,-0.469,-0.005,-0.084,-0.6702173789980187,-6.217,-6.240217378998018
1621787060292.199,-0.494,-0.005,-0.098,-0.7005339811931943,-6.217,-6.270533981193194
1621787060293.065,-0.4977870252681885,-0.00373765824393716,-0.09926234175606284,-0.706,-6.217,-6.276
1621787060297.001,-0.515,0.002,-0.105,-0.706,-6.227154790961341,-6.368154727974175
1621787060301.801,-0.524,-0.01,-0.113,-0.706,-6.239538697740335,-6.4805386819935435
1621787060306.598,-0.541,-0.017,-0.127,-0.706,-6.251914416187701,-6.592848326903393
1621787060308.569,-0.5446989564774752,-0.01946597098498346,-0.12946597098498347,-0.706,-6.257,-6.639
1621787060311.394,-0.55,-0.023,-0.133,-0.706,-6.278348708487084,-6.733883148831488
1621787060316.186,-0.55,-0.03,-0.14,-0.706,-6.314562730627306,-6.894834358343584
1621787060320.978,-0.546,-0.033,-0.157,-0.706,-6.350776752767527,-7.055785567855678
1621787060324.051,-0.5363729859269835,-0.040059810320212115,-0.16470161125841323,-0.706,-6.374,-7.159
1621787060325.766,-0.531,-0.044,-0.169,-0.6973457893739339,-6.387092267357382,-7.218802814454482
1621787060330.553,-0.515,-0.063,-0.188,-0.6731916103354602,-6.423633204877124,-7.385714384989576
1621787060335.338,-0.48,-0.077,-0.201,-0.6490472866258133,-6.460159233053257,-7.552557852675469
1621787060339.509,-0.4494723810496222,-0.08484995915866857,-0.21757213600163366,-0.628,-6.492,-7.698
1621787060340.12,-0.445,-0.086,-0.22,-0.6194489608705279,-6.496275519564736,-7.706946920570652
1621787060344.9,-0.407,-0.093,-0.236,-0.5525643248030874,-6.529717837598456,-7.77692806756714
1621787060349.677,-0.351,-0.113,-0.257,-0.4857172682124442,-6.563141365893777,-7.84686989529624
1621787060354.454,-0.284,-0.127,-0.271,-0.41887021162180116,-6.596564894189099,-7.916811723025338
1621787060354.945,-0.27916537084398974,-0.12772005115089513,-0.2723372378516624,-0.412,-6.6,-7.924
1621787060359.227,-0.237,-0.134,-0.284,-0.3275550205891669,-6.594444409249287,-7.902055416534685
1621787060363.998,-0.19,-0.148,-0.295,-0.2334662020905923,-6.5882543554006965,-7.877604703832753
1621787060368.768,-0.147,-0.157,-0.302,-0.13939664238200822,-6.582065568577764,-7.853158995882167
1621787060370.36,-0.1309688604353393,-0.15766796414852752,-0.30533982074263766,-0.108,-6.58,-7.845
1621787060373.535,-0.099,-0.159,-0.312,-0.03910736775319215,-6.513376286779285,-7.8289113014513445
1621787060378.299,-0.059,-0.161,-0.309,0.06427396304227141,-6.413399730351336,-7.804768355936236
1621787060383.062,-0.017,-0.178,-0.312,0.16762880482195264,-6.313448790546435,-7.780631596478706
1621787060385.752,-0.0006150966617096548,-0.18025998666735038,-0.3103050099994872,0.226,-6.257,-7.767
1621787060387.823,0.012,-0.182,-0.309,0.26952536853475667,-6.208084492947007,-7.712829107891728
1621787060392.581,0.03,-0.182,-0.316,0.36952134959969507,-6.0957051086542124,-7.588375905451773
1621787060397.338,0.042,-0.176,-0.309,0.469491676197738,-5.9833545558520775,-7.4639546321006485
1621787060401.121,0.04916338795007447,-0.17361220401664182,-0.3018366120499255,0.549,-5.894,-7.365
1621787060402.091,0.051,-0.173,-0.3,0.5843371891358654,-5.8840752438384065,-7.3364900316631925
1621787060406.843,0.049,-0.155,-0.29,0.7574565068656622,-5.835453181434868,-7.196817737752391
1621787060411.592,0.049,-0.143,-0.276,0.9304690925869943,-5.786861095641935,-7.057231554996897
1621787060416.34,0.045,-0.134,-0.253,1.1034461009721714,-5.738279002052539,-6.91767407595984
1621787060416.465,0.04468386930794958,-0.13344677128891178,-0.2527629019809622,1.108,-5.737,-6.914
1621787060421.085,0.033,-0.113,-0.244,1.2913378589412627,-5.704433406635434,-6.813284794594766
1621787060425.828,0.024,-0.096,-0.223,1.4795587850973644,-5.670999426331389,-6.709887114765593
1621787060430.57,0.009,-0.075,-0.204,1.667750645377187,-5.637570609044841,-6.606505402046085
1621787060431.786,0.006177307157211315,-0.06909800587416912,-0.19604513835214096,1.716,-5.629,-6.58
1621787060435.308,-0.002,-0.052,-0.173,1.8267449131038445,-5.68540853162254,-6.559738976396802
1621787060440.044,-0.03,-0.023,-0.152,1.9756483458610619,-5.761253315459376,-6.532496768324795
1621787060444.778,-0.049,0.012,-0.122,2.1244980450359874,-5.837070729800034,-6.505264390928967
1621787060447.084,-0.06069297431135871,0.02418018157433199,-0.10835819663674817,2.197,-5.874,-6.492
1621787060449.511,-0.073,0.037,-0.094,2.215584871290926,-5.972166243228991,-6.5590326126903475
1621787060454.241,-0.099,0.07,-0.087,2.251804899094003,-6.163482287522171,-6.6896723710911905
1621787060458.969,-0.105,0.099,-0.066,2.288009970758832,-6.354719332726139,-6.820258185130147
1621787060462.363,-0.10715490337914643,0.1306052495608143,-0.055943784230649996,2.314,-6.492,-6.914
1621787060463.694,-0.108,0.143,-0.052,2.258411870158141,-6.523677380113964,-6.963566809654907
1621787060468.418,-0.106,0.182,-0.047,2.0611311063448365,-6.636099542224215,-7.139478071579487
1621787060473.139,-0.11,0.218,-0.056,1.8639726935143095,-6.74845198156092,-7.315280235610475
1621787060477.616,-0.1166411092141342,0.2464618966320037,-0.06928221842826841,1.677,-6.855,-7.482
1621787060477.858,-0.117,0.248,-0.07,1.673727695316257,-6.864340364825442,-7.481698185490335
1621787060482.575,-0.103,0.271,-0.087,1.6099293110633797,-7.0464444907511306,-7.475813868496137
1621787060487.29,-0.075,0.295,-0.094,1.5461573429936204,-7.228473215144423,-7.469931987946014
1621787060492.002,-0.026,0.314,-0.101,1.4824283012214279,-7.4103794120475746,-7.464054066617511
1621787060492.847,-0.017034143308636857,0.31812429407802706,-0.10225521993679085,1.471,-7.443,-7.463
1621787060496.714,0.024,0.337,-0.108,1.3387881219903692,-7.427999036918138,-7.3956227929374
1621787060501.422,0.075,0.337,-0.113,1.177830176565008,-7.409736500802568,-7.313596147672553
1621787060506.127,0.119,0.346,-0.131,1.0169807383627607,-7.391486276083468,-7.231624799357946
1621787060508.057,0.13048505603985056,0.348050902864259,-0.13674252801992529,0.951,-7.384,-7.198
1621787060510.832,0.147,0.351,-0.145,0.8327726746616082,-7.294461531042022,-7.110288846735042
1621787060515.533,0.157,0.353,-0.157,0.6325028453846895,-7.1427888628106615,-6.961711539079832
1621787060520.233,0.15,0.347,-0.173,0.43227461981159365,-6.991147702793943,-6.813165096614474
1621787060523.244,0.1391022922189303,0.34507687509745827,-0.18517979104943083,0.304,-6.894,-6.718
1621787060524.93,0.133,0.344,-0.192,0.2538517743285889,-6.842739840278225,-6.677636793971791
1621787060529.626,0.129,0.335,-0.206,0.11417596766922136,-6.6999670090809555,-6.565214803245959
1621787060534.319,0.098,0.325,-0.218,-0.025412700457267956,-6.5572832485348105,-6.452862948412443
1621787060538.407,0.07969578344612181,0.323256741280583,-0.2302028110359188,-0.147,-6.433,-6.355
1621787060539.009,0.077,0.323,-0.232,-0.13296650008060615,-6.420159148798968,-6.346015379655006
1621787060543.698,0.049,0.298,-0.237,-0.023669095598903747,-6.320150475576334,-6.276040270836692
1621787060548.385,0.024,0.291,-0.239,0.08558278252458487,-6.220183459616315,-6.206094309205223
1621787060553.069,-0.005,0.283,-0.239,0.19476637111075287,-6.120278929550218,-6.136192068354021
1621787060553.551,-0.008088074255618711,0.2820735777233144,-0.23797064191479375,0.206,-6.11,-6.129
1621787060557.751,-0.035,0.274,-0.229,0.40767904145203226,-6.0608303163402075,-6.148167842782631
1621787060562.431,-0.065,0.278,-0.215,0.6324064462996755,-6.006041403588096,-6.169526232499556
1621787060567.109,-0.094,0.279,-0.204,0.8570400633003376,-5.951275356468099,-6.190875708495487
1621787060568.67,-0.10034424774139641,0.28267298553449266,-0.19999310668964437,0.932,-5.933,-6.198
1621787060571.784,-0.113,0.29,-0.192,1.0714642943792965,-5.9371261625556,-6.288981884350991
1621787060576.458,-0.12,0.284,-0.18,1.2807974120501415,-5.943319450060655,-6.425543873837444
1621787060581.129,-0.119,0.302,-0.166,1.48998838657501,-5.94950853214719,-6.562013133845532
1621787060583.764,-0.10884188235294118,0.31272245751633987,-0.15584188235294116,1.608,-5.953,-6.639
1621787060585.798,-0.101,0.321,-0.148,1.6847845423772736,-5.955563982961632,-6.668148437879598
1621787060590.465,-0.084,0.34,-0.136,1.8609503263527851,-5.9614464959590565,-6.735023322481901
1621787060595.13,-0.073,0.353,-0.117,2.0370331697520365,-5.967326239411755,-6.801866721733639
1621787060598.838,-0.07220465018852115,0.36652094679514036,-0.10825115207373272,2.177,-5.972,-6.855
1621787060599.792,-0.072,0.37,-0.106,2.2062271053357345,-5.972,-6.858740562288088
1621787060604.453,-0.077,0.374,-0.082,2.3490046559919535,-5.972,-6.877013611070554
1621787060609.111,-0.087,0.382,-0.054,2.4916999399750166,-5.972,-6.895276131146477
1621787060613.767,-0.084,0.387,-0.035,2.6343279148618612,-5.972,-6.913530036826138
1621787060613.887,-0.084,0.3872318224740321,-0.034227258419892985,2.638,-5.972,-6.914
1621787060618.421,-0.084,0.396,-0.005,2.7236821379254326,-6.0697500446754935,-6.952315603931443
1621787060623.073,-0.079,0.414,0.017,2.8115973357160264,-6.170047664690115,-6.99162979449273
1621787060627.722,-0.084,0.429,0.051,2.8994525546259444,-6.2702768580943875,-7.0309171635123064
1621787060628.915,-0.08528375538510034,0.4305405064621204,0.05818903015656194,2.922,-6.296,-7.041
1621787060632.369,-0.089,0.435,0.079,2.922,-6.429036671872966,-7.081739603670441
1621787060637.014,-0.086,0.445,0.119,2.922,-6.607954867890147,-7.136529431862554
1621787060641.658,-0.082,0.449,0.15,2.922,-6.786835448392555,-7.191307741116751
1621787060643.921,-0.08102482903734877,0.4548510257759074,0.17047859021567596,2.922,-6.874,-7.218
1621787060646.299,-0.08,0.461,0.192,2.8613637948734665,-6.961303436700507,-7.247524434956898
1621787060650.937,-0.073,0.464,0.223,2.7431104339465837,-7.131563511333453,-7.30510329656004
1621787060655.574,-0.051,0.459,0.253,2.6248819723955874,-7.301787736079652,-7.3626700343833
1621787060658.903,-0.036631947737210895,0.45684479216058166,0.2695232601022075,2.54,-7.424,-7.404
1621787060660.208,-0.031,0.456,0.276,2.490363869304087,-7.442755304217261,-7.396323410366889
1621787060664.84,-0.01,0.456,0.284,2.314171856639248,-7.509330493537016,-7.369074030552292
1621787060669.47,0.021,0.447,0.295,2.13806342211777,-7.575874102363233,-7.3418375767071415
1621787060673.862,0.054216395864106356,0.4356115214180207,0.29974519940915806,1.971,-7.639,-7.316
1621787060674.098,0.056,0.435,0.3,1.9640361591525812,-7.636836629940825,-7.308104488835126
1621787060678.723,0.086,0.424,0.298,1.827469905515415,-7.59441128584039,-7.153267466570766
1621787060683.346,0.113,0.426,0.295,1.690961323438062,-7.5520038578481055,-6.998495831562428
1621787060687.968,0.141,0.424,0.288,1.5544815771406153,-7.509605387909896,-6.843756890182103
1621787060688.797,0.14459004175696388,0.42489751043924096,0.287102489560759,1.53,-7.502,-6.816
1621787060692.587,0.161,0.429,0.283,1.4077716535433071,-7.399846579468626,-6.606610899209325
1621787060697.204,0.161,0.41,0.267,1.2588582677165354,-7.2753909015011375,-6.351507718499844
1621787060701.819,0.15,0.405,0.251,1.110015748031496,-7.150994450537757,-6.096525938415702
1621787060703.711,0.13728327157226045,0.4041795659078878,0.24402631021704607,1.049,-7.1,-5.992
1621787060706.431,0.119,0.403,0.234,0.9397637645515657,-7.012136071487129,-5.897011969175274
1621787060711.042,0.082,0.393,0.216,0.754578881783899,-6.863183013608788,-5.735981636333825
1621787060715.649,0.035,0.384,0.194,0.5695606820790293,-6.714364026889654,-5.575096245286113
1621787060718.601,0.0016798791796937065,0.3692622542525568,0.1734953102644269,0.451,-6.619,-5.472
1621787060720.256,-0.017,0.361,0.162,0.39756156082179633,-6.598292604818446,-5.456747778817888
1621787060724.859,-0.075,0.342,0.131,0.2489445238212544,-6.540703502980736,-5.414329999507316
1621787060729.461,-0.115,0.305,0.103,0.10035113563580828,-6.483123565058875,-5.371918969962721
1621787060733.467,-0.16725241481795988,0.27539029826982275,0.07251942468952341,-0.029,-6.433,-5.335
1621787060734.061,-0.175,0.271,0.068,-0.045884441447812,-6.438121347169004,-5.335
1621787060738.658,-0.227,0.239,0.033,-0.17655322402933776,-6.477755480274301,-5.335
1621787060743.253,-0.274,0.201,-0.003,-0.30716648851321354,-6.517372773767041,-5.335
1621787060747.845,-0.321,0.148,-0.047,-0.4376964758506142,-6.556964807840944,-5.335
1621787060748.313,-0.3252806103461109,0.14371938965388908,-0.05107677175820086,-0.451,-6.561,-5.335
1621787060752.437,-0.363,0.106,-0.087,-0.4100965786482613,-6.700127283509315,-5.389537895135652
1621787060757.025,-0.405,0.065,-0.126,-0.3645923699079184,-6.854903503714564,-5.450210173456108
1621787060761.611,-0.445,0.026,-0.164,-0.31910511143690184,-7.009622069942511,-5.510859851417464
1621787060763.134,-0.4526397231096912,0.01038839190628328,-0.17396485623003197,-0.304,-7.061,-5.531
1621787060766.196,-0.468,-0.021,-0.194,-0.18235552989690723,-7.200849764948454,-5.642507430927835
1621787060770.778,-0.48,-0.049,-0.218,-0.0003252783505154899,-7.410122639175258,-5.809368494845361
1621787060775.358,-0.48,-0.091,-0.243,0.18161768247422677,-7.6192951587628865,-5.9761495422680415
1621787060777.935,-0.47774829351535836,-0.11070243174061434,-0.25763609215017064,0.284,-7.737,-6.07
1621787060779.936,-0.476,-0.126,-0.269,0.3717475465089383,-7.800779466675478,-6.136487724283779
1621787060784.511,-0.466,-0.171,-0.298,0.5723699567128178,-7.94660223705515,-6.288502544361101
1621787060789.084,-0.447,-0.187,-0.321,0.7729067177741797,-8.092362753196973,-6.440452466708522
1621787060792.712,-0.4247818123564906,-0.21001169434506328,-0.3305220804186469,0.932,-8.208,-6.561
1621787060793.656,-0.419,-0.216,-0.333,0.9627143448116096,-8.247544718944948,-6.567270845399037
1621787060798.225,-0.394,-0.239,-0.346,1.1113616070689856,-8.438928069101319,-6.597619661443251
1621787060802.792,-0.375,-0.251,-0.368,1.2599373852034486,-8.63021938344944,-6.6279538828123705
1621787060807.356,-0.351,-0.271,-0.379,1.4084178511740273,-8.821387983386561,-6.658268644614697
1621787060807.466,-0.35027608346709466,-0.27162739432851796,-0.3793378277153558,1.412,-8.826,-6.659
1621787060811.919,-0.321,-0.297,-0.393,1.4237865948632975,-9.057198591549296,-6.682573189726595
1621787060816.479,-0.274,-0.309,-0.394,1.4358568848384425,-9.293961971830985,-6.706713769676885
1621787060821.037,-0.202,-0.326,-0.394,1.4479220049710024,-9.530623943661972,-6.730844009942005
1621787060822.2,-0.18822009107956067,-0.3354417894454862,-0.394,1.451,-9.591,-6.737
1621787060825.594,-0.148,-0.363,-0.394,1.3040146394901075,-9.67014596335148,-6.72338597131855
1621787060830.147,-0.084,-0.401,-0.398,1.1068394137564732,-9.776317238746513,-6.70512327380162
1621787060834.698,-0.016,-0.436,-0.403,0.9097487717434602,-9.882442969061213,-6.686868410569645
1621787060836.909,0.018978380988144417,-0.4573756772705327,-0.40494324338823023,0.814,-9.934,-6.678
1621787060839.249,0.056,-0.48,-0.407,0.6983107231920199,-9.849702992518703,-6.659355860349127
1621787060843.795,0.131,-0.527,-0.414,0.4735705735660848,-9.68594605153782,-6.6231374064837905
1621787060848.34,0.215,-0.595,-0.429,0.24886663341645887,-9.522215494596841,-6.5869247880299255
1621787060851.594,0.2694233827638083,-0.6651775198796475,-0.441889748549323,0.088,-9.405,-6.561
1621787060852.884,0.291,-0.693,-0.447,0.16911094832179008,-9.267762386787426,-6.5480679941395845
1621787060857.424,0.365,-0.792,-0.473,0.45456499733617484,-8.784781566329249,-6.502556339904102
1621787060861.963,0.435,-0.887,-0.496,0.7399422948854556,-8.301930607352157,-6.457056922615876
1621787060866.258,0.4937064585575888,-0.9523346071044133,-0.49884063509149623,1.01,-7.845,-6.414
1621787060866.499,0.497,-0.956,-0.499,1.0616502293004253,-7.794962811640123,-6.451445593262736
1621787060871.033,0.545,-0.955,-0.456,2.0334804302509797,-6.853482948386558,-7.156007004085716
1621787060875.565,0.574,-0.883,-0.346,3.004891986992412,-5.912408655048778,-7.860264904527641
1621787060880.095,0.541,-0.838,-0.237,3.975884899524723,-4.971739931626782,-8.56421929458851
1621787060880.898,0.518124009273737,-0.8383546665228878,-0.22902000323502453,4.148,-4.805,-8.689
1621787060884.623,0.412,-0.84,-0.192,4.153028424539028,-4.346407682040635,-8.965060507192645
1621787060889.148,0.237,-0.796,-0.208,4.159136487221316,-3.789352365415987,-9.300393148450246
1621787060893.671,0.089,-0.674,-0.197,4.165241913424621,-3.2325374956745265,-9.635581047011717
1621787060895.714,0.051784668181159066,-0.6068505969355696,-0.17596524723282903,4.168,-2.981,-9.787
1621787060898.722,-0.003,-0.508,-0.145,3.3808995790381844,-3.184051750040906,-9.722309325122348
1621787060903.803,-0.021,-0.36,-0.093,2.0512620821991168,-3.5270641706457226,-9.613028292204024
1621787060908.883,0.023,-0.335,-0.106,0.721880137444777,-3.870010665357669,-9.503768262751572
1621787060912.127,0.07406456571867792,-0.3886177940046118,-0.16280932936202921,-0.127,-4.089,-9.434
1621787060913.965,0.103,-0.419,-0.195,-0.13584579119571683,-4.153831811421773,-9.368160440214158
1621787060919.045,0.218,-0.391,-0.321,-0.16029185008923258,-4.332999762046401,-9.186207495538369
1621787060924.125,0.37,-0.321,-0.368,-0.18473908387864366,-4.512176323616895,-9.004245806067816
1621787060928.543,0.5187128027681661,-0.294040369088812,-0.3714786620530565,-0.206,-4.668,-8.846
1621787060929.205,0.541,-0.29,-0.372,-0.14549309852451212,-4.6122126368396,-8.855882793907663
1621787060934.287,0.705,-0.229,-0.346,0.31892860542598767,-4.18401582579724,-8.931738338886245
1621787060939.367,0.813,-0.208,-0.321,0.7831495121370776,-3.7560041498096144,-9.007561086982388
1621787060944.447,0.798,-0.175,-0.323,1.2473927296525464,-3.3279719032603525,-9.083387479176581
1621787060944.957,0.7849512781087834,-0.16937901210839898,-0.3242044974053431,1.294,-3.285,-9.091
1621787060949.528,0.668,-0.119,-0.335,1.3708034278554275,-3.6081329673771987,-8.315704306448485
1621787060954.609,0.45,-0.073,-0.295,1.4561720192723637,-3.9673019138113634,-7.453947179999702
1621787060959.654,0.182,-0.017,-0.204,1.540941705574367,-4.323951103089247,-6.5982357284565705
1621787060961.324,0.09693031358885017,0.003522648083623691,-0.1738780487804878,1.569,-4.442,-6.315
1621787060964.699,-0.075,0.045,-0.113,1.4207400278605773,-5.108134539626429,-6.3862310480669855
1621787060969.745,-0.257,0.105,-0.019,1.1990686328844684,-6.10410783241713,-6.492732388670032
1621787060974.79,-0.358,0.138,0.072,0.9774508620302272,-7.099840191129552,-6.599207965728494
1621787060977.623,-0.3855162601626016,0.13182288037166087,0.11973228803716608,0.853,-7.659,-6.659
1621787060979.835,-0.407,0.127,0.157,0.4669713549469647,-7.827989333013723,-6.986391382513333
1621787060984.881,-0.38,0.061,0.223,-0.41369377359621273,-8.213512569665008,-7.733284592796788
1621787060989.925,-0.302,-0.086,0.257,-1.2939754299754302,-8.598867936117935,-8.47985257985258
1621787060993.919,-0.21885890609874153,-0.22694394966118103,0.26808547918683445,-1.991,-8.904,-9.071
1621787060994.969,-0.197,-0.264,0.271,-2.163503962843659,-8.80167041725972,-9.141754333657952
1621787061000.014,-0.075,-0.452,0.253,-2.9922930556596,-8.310031612854896,-9.481690988088996
1621787061005.058,0.031,-0.634,0.211,-3.8209618248557944,-7.818464184583115,-9.821578290508652
1621787061010.102,0.119,-0.792,0.178,-4.64959048617874,-7.326920548355682,-10.161449142257847
1621787061010.214,0.12053266550522647,-0.7943767421602788,0.17717813588850173,-4.668,-7.316,-10.169
1621787061015.147,0.188,-0.899,0.141,-4.240502697194917,-6.909090385998562,-10.000059847758331
1621787061020.19,0.234,-0.976,0.101,-3.8034631383361304,-6.49309805801966,-9.827348747302805
1621787061025.233,0.288,-1.007,0.091,-3.3664235794773436,-6.077105730040758,-9.654637646847279
1621787061026.507,0.29633423663198644,-1.0029591579966126,0.08998978949915315,-3.256,-5.972,-9.611
1621787061030.278,0.321,-0.991,0.087,-2.749790055745369,-5.7859036144578315,-9.295284241443387
1621787061035.321,0.358,-0.995,0.093,-2.072833393274591,-5.537036144578313,-8.873076245279627
1621787061040.363,0.365,-0.983,0.084,-1.3960078223341126,-5.288216867469879,-8.450950008991189
1621787061042.799,0.3616192642787996,-0.976721490803485,0.08496592449177154,-1.069,-5.168,-8.247
1621787061045.407,0.358,-0.97,0.086,-0.8397477968946705,-5.051772975241293,-7.953550776332354
1621787061050.449,0.333,-0.942,0.103,-0.3965240093519573,-4.827065943288772,-7.386211947724957
1621787061055.492,0.258,-0.909,0.131,0.046785624363047784,-4.602315388765661,-6.818763233619087
1621787061059.089,0.18237516947511137,-0.8933042804570986,0.14740916134030602,0.363,-4.442,-6.414
1621787061060.534,0.152,-0.887,0.154,0.48825243198680957,-4.419380049464139,-6.349599670239076
1621787061065.577,0.049,-0.84,0.211,0.9254295585700367,-4.340428089635015,-6.1248187963726295
1621787061070.619,-0.042,-0.784,0.262,1.3625220265307652,-4.261491418721427,-5.900081450948062
1621787061075.377,-0.10807080588919024,-0.7066027702440913,0.302586352189074,1.775,-4.187,-5.688
1621787061075.66,-0.112,-0.702,0.305,1.7937479161669465,-4.182412928759895,-5.699241799592228
1621787061080.702,-0.138,-0.623,0.328,2.127813459462701,-4.1006767810026385,-5.899557282921564
1621787061085.744,-0.131,-0.546,0.356,2.4618790027584554,-4.018940633245383,-6.0998727662509
1621787061090.785,-0.108,-0.468,0.393,2.7958798422883184,-3.9372203166226916,-6.300149451307268
1621787061091.662,-0.10556383184812088,-0.4509468229368462,0.40030850445563737,2.854,-3.923,-6.335
1621787061095.826,-0.094,-0.37,0.435,2.9365914181621915,-4.073352179193091,-6.2848826069356365
1621787061100.868,-0.093,-0.284,0.48,3.0366018531012458,-4.255414518958306,-6.224195160347231
1621787061105.909,-0.099,-0.204,0.534,3.136592917435044,-4.437441595826025,-6.163519468057992
1621787061107.946,-0.099,-0.17570703352063552,0.5461255570625848,3.177,-4.511,-6.139
1621787061110.949,-0.099,-0.134,0.564,2.9853859359772095,-4.5652199565184794,-6.122770897368619
1621787061115.99,-0.096,-0.068,0.588,2.663723562485943,-4.656238953444786,-6.0955271159757105
1621787061121.031,-0.075,-0.005,0.604,2.342061188994677,-4.747257950371092,-6.0682833345828024
1621787061124.229,-0.05850251889168766,0.03497466576244914,0.6185939255958147,2.138,-4.805,-6.051
1621787061126.071,-0.049,0.058,0.627,2.01706732138841,-4.837241172501686,-6.026564585051354
1621787061131.111,-0.038,0.108,0.656,1.6861814079016417,-4.925456780868131,-5.9597064397631
1621787061136.151,-0.051,0.148,0.674,1.3553115226028938,-5.013668116050678,-5.892851533098433
1621787061140.512,-0.06917104243363689,0.17222805657818252,0.6843834528192211,1.069,-5.09,-5.835
1621787061141.191,-0.072,0.176,0.686,1.033842868497218,-5.09325297302161,-5.848512349474379
1621787061146.23,-0.075,0.18,0.693,0.7729139960709626,-5.1173958580147865,-5.948798179446036
1621787061151.27,-0.066,0.192,0.707,0.5119345560337717,-5.141543421861644,-6.049103444656059
1621787061156.309,-0.044,0.213,0.731,0.2510056836075161,-5.165686306854821,-6.149389274627716
1621787061156.792,-0.0422749164203692,0.21501259750956925,0.7316708658365231,0.226,-5.168,-6.159
1621787061161.348,-0.026,0.234,0.738,-0.10901637795275596,-5.220057682789651,-6.197343562054743
1621787061166.388,0.002,0.243,0.757,-0.4796330708661418,-5.277647244094489,-6.239761679790027
1621787061171.427,0.017,0.248,0.756,-0.8501779527559057,-5.335225646794151,-6.282171578552681
1621787061173.07,0.02743613103314596,0.25191354913742975,0.7498035471990696,-0.971,-5.354,-6.296
1621787061176.465,0.049,0.26,0.737,-1.1345165731769504,-5.358171341152473,-6.296
1621787061181.503,0.091,0.262,0.723,-1.3771574826769055,-5.36436116027237,-6.296
1621787061186.542,0.145,0.265,0.703,-1.6198571857095718,-5.3705524792272845,-6.296
1621787061189.348,0.175074723783679,0.2633291820120178,0.6913042740841249,-1.755,-5.374,-6.296
1621787061191.58,0.199,0.262,0.682,-1.7927124236924599,-5.40362139460935,-6.191090894091884
1621787061196.618,0.258,0.248,0.654,-1.8778262662926908,-5.470474449160804,-5.954319659222151
1621787061201.656,0.311,0.232,0.632,-1.9629442336248142,-5.5373307435016725,-5.717536950098244
1621787061205.625,0.3330583446404342,0.2241220197712735,0.620970827679783,-2.03,-5.59,-5.531
1621787061206.694,0.339,0.222,0.618,-2.062189834678508,-5.612532884274955,-5.446583800894116
1621787061211.731,0.344,0.195,0.592,-2.2138474001620208,-5.718693180113415,-5.048869573044496
1621787061216.769,0.332,0.166,0.579,-2.365541720423655,-5.8248792042965585,-4.651058957664497
1621787061221.806,0.312,0.136,0.562,-2.517199285907168,-5.931039500135017,-4.253344729814876
1621787061221.899,0.3114644726638232,0.1355752714230322,0.5616122043427686,-2.52,-5.933,-4.246
1621787061226.843,0.283,0.113,0.541,-2.770379977793116,-5.944850508657684,-4.16547731296702
1621787061231.88,0.258,0.077,0.501,-3.0254582120457343,-5.956923386249738,-4.083443657533835
1621787061236.917,0.218,0.044,0.454,-3.2805488101311404,-5.968996849023197,-4.001406025868019
1621787061238.17,0.20854559557861055,0.03952159790565763,0.4423063945314394,-3.344,-5.972,-3.981
1621787061241.953,0.18,0.026,0.407,-3.255186117696486,-5.967582555592234,-4.051911607598355
1621787061246.99,0.129,0.021,0.356,-3.1369280977102902,-5.961700612189779,-4.146332278006182
1621787061252.026,0.086,0.044,0.311,-3.0186987366083486,-5.955820094229211,-4.240730066320559
1621787061254.441,0.06250242388985844,0.057427186348652313,0.2951751018033741,-2.962,-5.953,-4.286
1621787061257.062,0.037,0.072,0.278,-2.819757584851304,-6.06350769738619,-4.350758155028059
1621787061262.097,-0.014,0.113,0.251,-2.546521246586442,-6.275784173093659,-4.475153407556342
1621787061267.134,-0.068,0.127,0.239,-2.2731656663565705,-6.488153287519131,-4.599602946913543
1621787061270.712,-0.10921563303108181,0.13481675798865345,0.2368681569121854,-2.079,-6.639,-4.688
1621787061272.169,-0.126,0.138,0.236,-2.143123893274108,-6.6600462498874515,-4.815352201446622
1621787061277.204,-0.19,0.136,0.216,-2.3647209400042017,-6.73277712416339,-5.255451364086557
1621787061282.24,-0.264,0.105,0.194,-2.5863502205948556,-6.8055185779885345,-5.695614544254029
1621787061286.981,-0.34874567230761766,0.04379479222227609,0.15916011249575718,-2.795,-6.874,-6.11
1621787061287.275,-0.354,0.04,0.157,-2.806690548368701,-6.887822673109824,-6.154648137587418
1621787061292.309,-0.45,-0.012,0.122,-3.0069057538193715,-7.124553171053816,-6.919303118528079
1621787061297.345,-0.534,-0.08,0.089,-3.207188927574512,-7.361364033376354,-7.684217681664015
1621787061302.379,-0.572,-0.154,0.059,-3.407394423267401,-7.598083050694841,-8.448835579433922
1621787061303.249,-0.5707901066925315,-0.17076566440349175,0.05450611057225994,-3.442,-7.639,-8.581
1621787061307.413,-0.565,-0.251,0.033,-3.44712,-8.128728,-9.055368
1621787061312.447,-0.499,-0.326,0.0,-3.4533095684803006,-8.720760225140713,-9.628831519699812
1621787061317.482,-0.372,-0.401,-0.024,-3.4595003377110696,-9.31290730206379,-10.20240628893058
1621787061319.515,-0.302120252243512,-0.41190608780014554,-0.041772883822459375,-3.462,-9.552,-10.434
1621787061322.515,-0.199,-0.428,-0.068,-3.035013118789589,-9.796203296208459,-10.32370274083636
1621787061327.549,0.035,-0.431,-0.105,-2.3185035573834467,-10.205991054006184,-10.13861733361352
1621787061332.583,0.295,-0.375,-0.12,-1.6020287442586532,-10.615758938488787,-9.953540902404612
1621787061335.78,0.44491122968712105,-0.32862915352898375,-0.10475479020130973,-1.147,-10.876,-9.836
1621787061337.616,0.531,-0.302,-0.096,-0.94886461289015,-10.753054452101066,-9.68539452626522
1621787061342.65,0.726,-0.227,-0.049,-0.40559951357924606,-10.415951493041481,-9.272451140236305
1621787061347.683,0.829,-0.152,0.026,0.13758654235914047,-10.078897581407919,-8.859567836178295
1621787061352.042,0.8333303419839923,-0.10090196458889159,0.09441940334707738,0.608,-9.787,-8.502
1621787061352.716,0.834,-0.093,0.105,0.6689851945282821,-9.653255446942055,-8.603655810321786
1621787061357.748,0.777,-0.016,0.188,1.124242653572984,-8.65484581888073,-9.362521404868088
1621787061362.781,0.668,0.056,0.279,1.5795884649458685,-7.656242428337613,-10.121534273315616
1621787061367.814,0.559,0.079,0.372,2.034934276318753,-6.657639037794495,-10.880547141763143
1621787061368.301,0.5542571442433653,0.07319242152248799,0.3788723011983892,2.079,-6.561,-10.954
1621787061372.846,0.51,0.019,0.443,2.177680762242278,-6.418430060216539,-11.134868139293921
1621787061377.878,0.553,-0.058,0.475,2.286936735092277,-6.260581487543736,-11.335119171684713
1621787061382.91,0.73,-0.042,0.51,2.396192707942276,-6.102732914870932,-11.535370204075504
1621787061384.559,0.8106234534957062,-0.014470040269758871,0.5368744844985687,2.432,-6.051,-11.601
1621787061387.942,0.976,0.042,0.592,2.1525411185198533,-5.704121403255842,-11.174632726617409
1621787061392.973,1.21,0.12,0.665,1.7369226737550307,-5.188234621853788,-10.540528338439358
1621787061398.005,1.356,0.136,0.684,1.3212235537934762,-4.672247702288701,-9.906300865020725
1621787061400.816,1.3805846556995196,0.11923773475032756,0.6672377347503275,1.089,-4.384,-9.552
1621787061403.036,1.4,0.106,0.654,1.1170003154431978,-4.244681357307017,-9.175566490919742
1621787061408.067,1.368,0.038,0.606,1.1804559956739218,-3.928950655671218,-8.322474516695959
1621787061413.099,1.283,-0.026,0.586,1.2439270725369145,-3.6131433464016944,-7.469175551650068
1621787061417.069,1.1740776623628775,-0.04020726143092904,0.6025751383360839,1.294,-3.364,-6.796
1621787061418.129,1.145,-0.044,0.607,1.3963759238118127,-3.4739400048068254,-6.673214099020609
1621787061423.159,0.963,0.003,0.648,1.8822665384846482,-3.995730817761221,-6.090454845881151
1621787061428.191,0.77,0.096,0.684,2.3683458210659136,-4.5177242384185545,-5.50746931142222
1621787061433.221,0.588,0.209,0.731,2.854236435738749,-5.039515051372949,-4.924710058282762
1621787061433.322,0.5849249963590465,0.21082892373416184,0.7317034322054469,2.864,-5.05,-4.913
1621787061438.25,0.435,0.3,0.766,2.4416092867443817,-5.421752343468333,-4.984257586227617
1621787061443.281,0.312,0.391,0.754,2.010387813964668,-5.801276769619036,-5.057004927292392
1621787061448.311,0.201,0.471,0.705,1.5792500450666986,-6.180727526739574,-5.129738147458238
1621787061449.574,0.17337584348754795,0.49033690955871645,0.6889277634836642,1.471,-6.276,-5.148
1621787061453.34,0.091,0.548,0.641,1.4482901694507873,-6.196515593077755,-5.427701688498979
1621787061458.369,-0.023,0.623,0.59,1.4179662300204303,-6.090381805071505,-5.801181228217763
1621787061463.399,-0.136,0.723,0.543,1.38763492969595,-5.984222253935825,-6.174751427112126
1621787061465.826,-0.18667260546628478,0.7784985678916452,0.5270743239963105,1.373,-5.933,-6.355
1621787061468.428,-0.241,0.838,0.51,1.3054267427884616,-5.923552554086538,-6.593588040865385
1621787061473.457,-0.335,0.97,0.475,1.174826111778846,-5.905293224158654,-7.054713491586538
1621787061478.487,-0.426,1.096,0.44,1.0442001201923077,-5.887030348557692,-7.515928485576923
1621787061482.076,-0.47810740992522094,1.1695214140040788,0.4135893949694086,0.951,-5.874,-7.845
1621787061483.515,-0.499,1.199,0.403,0.8364003485995912,-5.921823656689505,-7.9779320531313855
1621787061488.543,-0.545,1.283,0.374,0.4359626457506911,-6.088930580598629,-8.44242741014545
1621787061493.571,-0.562,1.332,0.328,0.03552494290179098,-6.256037504507753,-8.906922767159514
1621787061498.324,-0.5506588669352882,1.3518469828632458,0.2835805621632118,-0.343,-6.414,-9.346
1621787061498.6,-0.55,1.353,0.281,-0.37484023988817244,-6.4136600081165165,-9.363169590115886
1621787061503.628,-0.497,1.332,0.225,-0.9546084982940284,-6.407469209842028,-9.675804902977559
1621787061508.655,-0.442,1.269,0.154,-1.5342922998301545,-6.401279313402775,-9.988394673159881
1621787061513.684,-0.384,1.196,0.075,-2.1142013196855602,-6.3950870120695615,-10.301105890487142
1621787061514.567,-0.37486779990286545,1.1815992229237493,0.06182855755220981,-2.216,-6.394,-10.356
1621787061518.711,-0.332,1.114,0.0,-2.441275686887513,-6.413899777550652,-10.218232309264716
1621787061523.738,-0.258,1.023,-0.068,-2.7145555071243916,-6.438040010821861,-10.051107617387123
1621787061528.765,-0.176,0.932,-0.14,-2.9878220555522157,-6.462179071724885,-9.883991041904649
1621787061530.81,-0.15403554260742897,0.8970195678562758,-0.16765894634620054,-3.099,-6.472,-9.816
1621787061533.793,-0.122,0.846,-0.208,-3.0558359416106677,-6.472,-9.64499685804056
1621787061538.819,-0.056,0.777,-0.269,-2.983105669056961,-6.472,-9.35686118251928
1621787061543.847,0.044,0.724,-0.311,-2.9103506667267998,-6.472,-9.068627534990004
1621787061547.05,0.10581765191625782,0.6774774372176616,-0.33776640598435903,-2.864,-6.472,-8.885
1621787061548.873,0.141,0.651,-0.353,-2.849630669773735,-6.393866766894686,-8.749613966774412
1621787061553.899,0.239,0.576,-0.4,-2.8100154250920846,-6.17845887393821,-8.376364083289484
1621787061558.925,0.325,0.499,-0.44,-2.770398256032474,-5.963040517176577,-8.003096068555966
1621787061563.289,0.38403351141330744,0.44777974745021853,-0.48340699368625545,-2.736,-5.776,-7.679
1621787061563.952,0.393,0.44,-0.49,-2.7107650774552567,-5.734758459918784,-7.6101143781019704
1621787061568.978,0.442,0.38,-0.539,-2.519416513761468,-5.422036697247706,-7.087776146788991
1621787061574.003,0.478,0.323,-0.579,-2.328114423221537,-5.109390885847496,-6.565564776658144
1621787061579.029,0.492,0.265,-0.616,-2.1367658595277486,-4.796669123176417,-6.043226545345164
1621787061579.522,0.48895904188125544,0.26009522884073466,-0.6189428626955592,-2.118,-4.766,-5.992
1621787061584.054,0.461,0.215,-0.646,-1.6582448006736943,-4.6320094136753935,-5.499305448202229
1621787061589.079,0.401,0.173,-0.658,-1.1484596760853547,-4.483438156964766,-4.952996556339193
1621787061594.105,0.323,0.143,-0.658,-0.638600249627814,-4.334845245793169,-4.406608039218635
1621787061595.757,0.2960398406374502,0.1344516567874842,-0.6478077446312311,-0.471,-4.286,-4.227
1621787061599.13,0.241,0.117,-0.627,-0.1225183809151349,-4.269583751993021,-3.96808044282663
1621787061604.154,0.147,0.101,-0.588,0.39658427845131017,-4.245129899822508,-3.582390571884119
1621787061609.179,0.031,0.099,-0.548,0.9157626124364492,-4.220672482777293,-3.196644475196294
1621787061611.988,-0.034403585483165716,0.099,-0.527316814847204,1.206,-4.207,-2.981
1621787061614.204,-0.086,0.099,-0.511,1.4121651274029061,-4.256561550494871,-2.9422245720646187
1621787061619.228,-0.218,0.099,-0.473,1.8795514876207093,-4.368919993381668,-2.854318793056767
1621787061624.252,-0.337,0.11,-0.415,2.346937847838513,-4.481278436268464,-2.7664130140489154
1621787061628.219,-0.42070074837204785,0.12658222373408495,-0.36683258820099135,2.716,-4.57,-2.697
1621787061629.276,-0.443,0.131,-0.354,2.7773460601137288,-4.626201326834552,-2.7352924451665315
1621787061634.299,-0.534,0.147,-0.295,3.068913439841141,-4.8933166651623194,-2.917289917862623
1621787061639.323,-0.604,0.169,-0.244,3.360523332430725,-5.160470951048531,-3.099313927249752
1621787061644.347,-0.642,0.194,-0.194,3.6521332250203087,-5.427625236934741,-3.2813379366368807
1621787061644.448,-0.6423823086269745,0.19428170109356016,-0.19311465370595382,3.658,-5.433,-3.285
1621787061649.37,-0.661,0.208,-0.15,3.622207293954804,-5.724498224656215,-3.594394577678813
1621787061654.393,-0.663,0.222,-0.103,3.5856813709264888,-6.021967818132579,-3.9101271326693343
1621787061659.416,-0.653,0.213,-0.079,3.5491554478981735,-6.319437411608943,-4.225859687659856
1621787061660.675,-0.646482939632546,0.211997375328084,-0.07624278215223097,3.54,-6.394,-4.305
1621787061664.439,-0.627,0.209,-0.068,3.4059310624981194,-6.5623980080040925,-4.5620041224084495
1621787061669.461,-0.565,0.23,-0.079,3.2270507327054436,-6.787081605632955,-4.904909668100984
1621787061674.483,-0.476,0.257,-0.08,3.048170402912768,-7.0117652032618185,-5.247815213793519
1621787061676.902,-0.420615552855407,0.2661504738760632,-0.07759198055893074,2.962,-7.12,-5.413
1621787061679.506,-0.361,0.276,-0.075,2.7999100525119998,-7.107321677374701,-5.493242548261387
1621787061684.528,-0.236,0.297,-0.065,2.4873101819111962,-7.082870796406915,-5.647994959449903
1621787061689.551,-0.122,0.283,-0.065,2.174649523780864,-7.058415160770979,-5.80277746347482
1621787061693.128,-0.051473451327433625,0.25165486725663716,-0.06357522123893805,1.952,-7.041,-5.913
1621787061694.572,-0.023,0.239,-0.063,1.7669615546661048,-7.012251843269434,-5.816164103644407
1621787061699.594,0.045,0.19,-0.063,1.1234719823046135,-6.912277272864065,-5.479407655963165
1621787061704.616,0.091,0.119,-0.084,0.479982409943122,-6.8123027024586955,-5.142651208281922
1621787061709.353,0.11175590780900516,0.0680536808324419,-0.10852970922882427,-0.127,-6.718,-4.825
1621787061709.637,0.113,0.065,-0.11,-0.13044833762285335,-6.715251832452853,-4.82156916662904
1621787061714.658,0.126,0.012,-0.134,-0.1914272813473608,-6.666654400144489,-4.760899760689935
1621787061719.679,0.143,-0.03,-0.138,-0.2524062250718683,-6.618056967836125,-4.700230354750832
1621787061724.7,0.147,-0.066,-0.113,-0.31338516879637573,-6.569459535527761,-4.639560948811727
1621787061725.574,0.1422990954187336,-0.0740089485458613,-0.10673212722497812,-0.324,-6.561,-4.629
1621787061729.72,0.12,-0.112,-0.077,-0.14840610466428864,-6.390518008458632,-4.884595189717192
1621787061734.741,0.089,-0.136,-0.021,0.0642463539079785,-6.184056305594437,-5.194132975120784
1621787061739.761,0.037,-0.148,0.049,0.27685745247663335,-5.977634758658057,-5.503610556734546
1621787061741.795,0.007828129559381381,-0.15610329734461628,0.0834390137146192,0.363,-5.894,-5.629
1621787061744.781,-0.035,-0.168,0.134,0.39725276661095804,-5.890316906816026,-5.795107502597226
1621787061749.802,-0.136,-0.187,0.188,0.4548475992592258,-5.884123914058148,-6.074411475977535
1621787061754.822,-0.243,-0.223,0.215,0.512431229956186,-5.877932125811163,-6.353661125916557
1621787061758.01,-0.3046123163731881,-0.23189249927035704,0.215,0.549,-5.874,-6.531
1621787061759.841,-0.34,-0.237,0.215,0.5512583219162615,-6.098815946763825,-6.701503304677737
1621787061764.86,-0.396,-0.223,0.201,0.5574485328435284,-6.715051444573252,-7.1688642296863945
1621787061769.88,-0.375,-0.216,0.182,0.5636396470995618,-7.331376868761386,-7.636293356016923
1621787061774.226,-0.27281904854557837,-0.21773188053312578,0.15602179200311314,0.569,-7.865,-8.041
1621787061774.899,-0.257,-0.218,0.152,0.5755148759335099,-7.873133220910624,-8.187107504215852
1621787061779.918,-0.07,-0.237,0.099,0.6241116899542278,-7.933801854974705,-9.27697618043845
1621787061784.938,0.122,-0.262,-0.002,0.6727179595278245,-7.994482293423271,-10.367056913996628
1621787061789.956,0.314,-0.241,-0.129,0.7213053179956637,-8.055139123102867,-11.456713532883642
1621787061790.441,0.3311989880315267,-0.23269037656903765,-0.1387589763549674,0.726,-8.061,-11.562
1621787061794.974,0.492,-0.155,-0.23,-0.04473028495692499,-7.3534718356527495,-12.445151756129887
1621787061799.993,0.609,-0.068,-0.326,-0.8980210253629735,-6.570153412856196,-13.422906530513886
1621787061805.011,0.648,-0.002,-0.449,-1.751187240195192,-5.78694930417495,-14.400518615579252
1621787061806.651,0.6581307288119101,-0.002980393110830009,-0.49900004865233044,-2.03,-5.531,-14.72
1621787061810.029,0.679,-0.005,-0.602,-2.0729273956717518,-5.798775259408743,-14.34594817849129
1621787061815.048,0.808,-0.002,-0.756,-2.136705772503426,-6.196616105179139,-13.790209409496846
1621787061820.065,1.026,0.047,-0.853,-2.2004562280688544,-6.5942827818858145,-13.234713935031099
1621787061822.862,1.160361897810219,0.07710598540145985,-0.8764157664233576,-2.236,-6.816,-12.925
1621787061825.082,1.267,0.101,-0.895,-2.1069921380806074,-6.750126558828845,-12.620147026929335
1621787061830.1,1.484,0.065,-0.942,-1.8153801735044282,-6.601224908126995,-11.931051238026388
1621787061835.117,1.637,-0.049,-1.0,-1.5238391469365626,-6.452359479486716,-11.242123079703596
1621787061839.072,1.692182481751825,-0.14517518248175182,-1.0536058394160583,-1.294,-6.335,-10.699
1621787061840.134,1.707,-0.171,-1.068,-1.2625485328673858,-6.244380460324155,-10.420785563656082
1621787061845.151,1.696,-0.223,-1.101,-1.1139746942218474,-5.816302087726697,-9.106526149304091
1621787061850.168,1.578,-0.23,-1.08,-0.9653936253539797,-5.388202883051154,-7.792202777610411
1621787061855.184,1.367,-0.208,-1.031,-0.8168414773754292,-4.960187006687955,-6.478135235283485
1621787061855.28,1.361911754684838,-0.20761742516427353,-1.030234850328547,-0.814,-4.952,-6.453
1621787061860.2,1.101,-0.188,-0.991,-0.6652341810292877,-4.94015945522478,-5.759265517656985
1621787061865.217,0.796,-0.187,-0.958,-0.5135302518982765,-4.9280850608653735,-5.051829848137881
1621787061870.233,0.454,-0.164,-0.932,-0.3618632336989273,-4.916013604314813,-4.344566304085815
1621787061871.485,0.3671270320256984,-0.1592569356565755,-0.9255094908984718,-0.324,-4.913,-4.168
1621787061875.249,0.106,-0.145,-0.906,-0.018758871125710064,-5.065620564437145,-4.6305076770081515
1621787061880.264,-0.227,-0.183,-0.869,0.38793231575933823,-5.268966157879669,-5.246734581945846
1621787061885.281,-0.511,-0.232,-0.803,0.7948016936127895,-5.472400846806395,-5.863231485527446
1621787061887.688,-0.5983539749768755,-0.26559768268341366,-0.7425241711698555,0.99,-5.57,-6.159
1621787061890.296,-0.693,-0.302,-0.677,0.9932188272162961,-5.8225169951184235,-6.695578496956548
1621787061895.311,-0.78,-0.356,-0.538,0.9994087868378232,-6.308119327427229,-7.727444765865124
1621787061900.326,-0.812,-0.4,-0.412,1.0055984451274633,-6.793698020249503,-8.759260802748146
1621787061903.892,-0.799200564696719,-0.4319985882582027,-0.3401809463538117,1.01,-7.139,-9.493
1621787061905.341,-0.794,-0.445,-0.311,0.9240503172139424,-7.228527192995675,-9.652646393104176
1621787061910.356,-0.742,-0.497,-0.232,0.626578971955575,-7.538380279992165,-10.205181618167845
1621787061915.371,-0.674,-0.592,-0.166,0.32909314486354535,-7.848248451604154,-10.757743742371042
1621787061920.093,-0.6212612358182792,-0.6965357647173394,-0.11797005404878999,0.049,-8.14,-11.278
1621787061920.385,-0.618,-0.703,-0.115,0.04299755843920966,-8.129563322331238,-11.281713222106676
1621787061925.399,-0.553,-0.819,-0.075,-0.060072794682823144,-7.950350906542479,-11.345474461575561
1621787061930.414,-0.459,-0.92,-0.044,-0.16316824162409005,-7.771094859158114,-11.409251224548235
1621787061935.427,-0.365,-0.956,-0.031,-0.26621851969073557,-7.591917348645838,-11.47300004521409
1621787061936.292,-0.34636806739056336,-0.9558274821054681,-0.029792374738277255,-0.284,-7.561,-11.484
1621787061940.441,-0.257,-0.955,-0.024,-0.10087224005666831,-7.437804961492668,-11.122098566713388
1621787061945.455,-0.161,-0.962,-0.016,0.12044575062922941,-7.288918313213064,-10.684724691413845
1621787061950.469,-0.051,-0.944,0.007,0.3417529652906512,-7.140038914259017,-10.247372111950083
1621787061952.491,-0.012674216961371713,-0.9335108383262701,0.013454868722295291,0.431,-7.08,-10.071
1621787061955.481,0.044,-0.918,0.023,0.5464020888922771,-6.922582587481894,-9.684645757414042
1621787061960.498,0.136,-0.888,0.031,0.7400424029884882,-6.658442159030266,-9.036358039185789
1621787061965.395,0.208,-0.88,0.051,0.9290466570099869,-6.400625676602882,-8.403591369977892
1621787061968.503,0.22450114667464355,-0.8654028317878153,0.0694051251371024,1.049,-6.237,-8.002
1621787061970.292,0.234,-0.857,0.08,1.1122279932702548,-6.141649019093337,-7.781324123666786
1621787061975.189,0.22,-0.833,0.101,1.2852939169895194,-5.880656937348542,-7.177296185963234
1621787061980.084,0.206,-0.791,0.112,1.4582908145152578,-5.6197689505610695,-6.57350916078843
1621787061984.32,0.206,-0.7546537655860349,0.12065386533665835,1.608,-5.394,-6.051
1621787061984.979,0.206,-0.749,0.122,1.64150982905323,-5.377245085473385,-6.003569421066449
1621787061989.874,0.227,-0.681,0.134,1.8904435350618467,-5.252778232469077,-5.651222956591566
1621787061994.767,0.257,-0.616,0.162,2.1392779159009834,-5.128361042049508,-5.299017079234678
1621787061999.66,0.272,-0.524,0.194,2.3880998810939356,-5.003950059453032,-4.946828775267539
1621787062000.13,0.271903951701427,-0.5167963776070252,0.1971695938529089,2.412,-4.992,-4.913
1621787062004.553,0.271,-0.449,0.227,2.3188038279729355,-4.939664612104922,-4.550850310501437
1621787062009.444,0.257,-0.38,0.258,2.2157463620354063,-4.881791500602465,-4.150380758179628
1621787062014.335,0.213,-0.298,0.284,2.1126940402261565,-4.823921277844718,-3.749931195353292
1621787062015.934,0.19174862733353298,-0.2741330737745832,0.29315443745632425,2.079,-4.805,-3.619
1621787062019.226,0.148,-0.225,0.312,1.78470965747496,-4.692661122789662,-3.5147895387659207
1621787062024.115,0.099,-0.154,0.319,1.3476609991344133,-4.525827392729071,-3.360027265982441
1621787062029.004,0.031,-0.093,0.328,0.9106123407938667,-4.35899366266848,-3.2052649931989614
1621787062031.729,-0.0214037558685446,-0.0634532014783738,0.329114973529118,0.667,-4.266,-3.119
1621787062033.892,-0.063,-0.04,0.33,0.47888872394383625,-4.226952866951197,-3.168596709346199
1621787062038.781,-0.148,0.0,0.318,0.053727515927506686,-4.138700176285025,-3.2806931094204246
1621787062043.668,-0.201,0.01,0.304,-0.37126383992082634,-4.050482742623863,-3.3927447269128472
1621787062047.517,-0.23487488132713735,0.021029031129765653,0.2929709688702343,-0.706,-3.981,-3.481
1621787062048.554,-0.244,0.024,0.29,-0.76138108496914,-3.998409237860999,-3.488752037990935
1621787062053.44,-0.274,0.044,0.279,-1.022351570838554,-4.080446223335963,-3.5252817145420514
1621787062058.325,-0.297,0.038,0.258,-1.2832698965149194,-4.162466812071713,-3.5618040899036307
1621787062063.209,-0.328,0.037,0.246,-1.5441360619982365,-4.244471004068248,-3.5983191640756726
1621787062063.3,-0.3285592483382478,0.03705592483382478,0.24586950872107552,-1.549,-4.246,-3.599
1621787062068.094,-0.358,0.04,0.239,-1.5550779397653758,-4.52619302318383,-3.494763333023803
1621787062072.977,-0.384,0.045,0.234,-1.5612688581421983,-4.8115943603553415,-3.3885890828612992
1621787062077.859,-0.407,0.052,0.244,-1.567458228866809,-5.096924350759897,-3.2824413749342245
1621787062079.075,-0.4112344851727759,0.05299634945241786,0.24898174726208933,-1.569,-5.168,-3.256
1621787062082.741,-0.424,0.056,0.264,-1.5643503638334106,-5.402806626412757,-3.2673916086081434
1621787062087.623,-0.442,0.059,0.29,-1.5581583836507198,-5.715501625638644,-3.282561960055736
1621787062092.503,-0.442,0.068,0.302,-1.5519691902771326,-6.028055891004799,-3.297725483821025
1621787062094.844,-0.4352840062034119,0.07471599379658812,0.31015513532442845,-1.549,-6.178,-3.305
1621787062097.383,-0.428,0.082,0.319,-1.613914427321304,-6.236471307984202,-3.46301750174243
1621787062102.263,-0.398,0.077,0.321,-1.7386749632153644,-6.348848664136916,-3.7667149848989387
1621787062107.141,-0.347,0.072,0.307,-1.86339180670642,-6.4611866646015645,-4.0703061101215825
1621787062110.607,-0.28873813813813815,0.06773693693693694,0.2800006006006006,-1.952,-6.541,-4.286
1621787062112.019,-0.265,0.066,0.269,-1.8675646608501604,-6.526031102295092,-4.3668499744301
1621787062116.897,-0.178,0.061,0.241,-1.5758948689736396,-6.474323188023989,-4.64613463713989
1621787062121.773,-0.091,0.082,0.215,-1.2843418617985711,-6.422635977622464,-4.925307474158905
1621787062126.361,-0.0072539054676547254,0.12810740036050472,0.20276742439415182,-1.01,-6.374,-5.188
1621787062126.649,-0.002,0.131,0.202,-0.9877736849448863,-6.380287707548486,-5.182790707408958
1621787062131.525,0.072,0.187,0.199,-0.6112648093887106,-6.486800086817667,-5.094546439700479
1621787062136.4,0.122,0.246,0.213,-0.2348313411779298,-6.593291133745717,-5.0063198455885765
1621787062141.273,0.154,0.29,0.232,0.14145131234206154,-6.699739515991504,-4.918128598669829
1621787062142.109,0.1545145261470647,0.2908575435784412,0.23268603486275297,0.206,-6.718,-4.903
1621787062146.147,0.157,0.295,0.236,-0.46568815052662604,-6.438600307133882,-5.187274434982239
1621787062151.02,0.126,0.264,0.211,-1.2762622426978145,-6.10142873097864,-5.530328710813285
1621787062155.892,0.073,0.166,0.152,-2.086673895171173,-5.764324724277537,-5.87331423829246
1621787062157.848,0.04248955149085442,0.1246503132047106,0.11747501879228264,-2.412,-5.629,-6.011
1621787062160.764,-0.003,0.063,0.066,-2.8229289095113206,-5.561716646751191,-6.418221837706978
1621787062165.635,-0.082,-0.044,-0.014,-3.509370101956889,-5.449322351371064,-7.098470506991108
1621787062170.504,-0.169,-0.138,-0.117,-4.1955016527258335,-5.336978755101724,-7.77841232793805
1621787062173.58,-0.22015276663993585,-0.21188732959101847,-0.17446792301523656,-4.629,-5.266,-8.208
1621787062175.375,-0.25,-0.255,-0.208,-4.561776627287827,-5.690226275672571,-8.322131362839002
1621787062180.243,-0.314,-0.417,-0.26,-4.379463402517969,-6.840749631308506,-8.631661455826878
1621787062185.111,-0.328,-0.583,-0.258,-4.1971410341990465,-7.991330689103808,-8.941207072667153
1621787062189.307,-0.29006751943817405,-0.6985216453473789,-0.2338611487333835,-4.04,-8.983,-9.208
1621787062189.978,-0.284,-0.717,-0.23,-3.8951517687983355,-9.067142606454018,-9.199632698698636
1621787062194.846,-0.15,-0.796,-0.211,-2.8445410441966645,-9.677444327111223,-9.138943131347641
1621787062199.712,0.068,-0.82,-0.218,-1.7943518495512008,-10.287501180234184,-9.078277914091375
1621787062204.578,0.346,-0.785,-0.218,-0.744162654905737,-10.897558033357146,-9.017612696835108
1621787062205.028,0.37135407466880765,-0.7787077478924127,-0.2157792051384986,-0.647,-10.954,-9.012
1621787062209.443,0.62,-0.717,-0.194,0.35036204325130493,-10.626134787472036,-8.518937919463088
1621787062214.307,0.84,-0.614,-0.14,1.4490927790206312,-10.264946401938852,-7.975762583892617
1621787062219.171,0.979,-0.48,-0.042,2.5478786664180957,-9.903739886278897,-7.432559983221476
1621787062220.743,0.9886977759927706,-0.4276320096390381,0.01392384155831116,2.903,-9.787,-7.257
1621787062224.034,1.009,-0.318,0.131,3.3138785128077592,-9.047376771947278,-7.569401765729918
1621787062228.896,0.942,-0.171,0.318,3.9208996984580953,-7.954676728425765,-8.030935976747077
1621787062233.758,0.801,-0.093,0.447,4.527920884108431,-6.861976684904253,-8.492470187764237
1621787062236.45,0.6858112506278252,-0.054788347564038165,0.5162240080361628,4.864,-6.257,-8.748
1621787062238.619,0.593,-0.024,0.572,4.77599309518996,-6.204085330388939,-9.081238075984013
1621787062243.479,0.396,-0.024,0.738,4.578789869835,-6.085515730214764,-9.827947933999969
1621787062248.34,0.309,-0.07,0.874,4.38154701957918,-5.966922305335676,-10.574807831671928
1621787062252.149,0.3772122323851643,-0.09273741079505478,0.9382919891446376,4.227,-5.874,-11.16
1621787062253.198,0.396,-0.099,0.956,3.992946371061844,-5.898267771295216,-11.178384675223649
1621787062258.057,0.586,-0.068,1.004,2.908902777129522,-6.010666464410735,-11.263535200311162
1621787062262.914,0.787,0.002,1.021,1.8252404667444577,-6.123025624270712,-11.34865577596266
1621787062267.772,0.93,0.079,1.011,0.7414147491248544,-6.235401726954493,-11.433789187086736
1621787062267.841,0.9311524886877829,0.07976832579185521,1.010943086978381,0.726,-6.237,-11.435
1621787062272.628,1.011,0.133,1.007,0.8367843567592809,-5.7999663942719275,-11.435
1621787062277.484,1.052,0.148,1.026,0.9491677328975017,-5.356624811269359,-11.435
1621787062282.339,1.07,0.134,1.052,1.0615341583002569,-4.9133500972838355,-11.435
1621787062283.526,1.0673111234033994,0.1271555868450166,1.0490666800764357,1.089,-4.805,-11.435
1621787062287.194,1.059,0.106,1.04,1.2677409298994113,-5.449777490579552,-10.852220345053098
1621787062292.047,1.058,0.096,1.0,1.5042142879387126,-6.302814892093052,-10.081205770608204
1621787062296.901,1.087,0.133,0.958,1.7407233346828188,-7.155981034536452,-9.310074834168978
1621787062299.205,1.109319915467445,0.15437013183053236,0.9470774881755057,1.853,-7.561,-8.944
1621787062301.753,1.134,0.178,0.935,1.744711703851427,-7.773023931197806,-8.513448336033903
1621787062306.605,1.136,0.225,0.915,1.5384907765175122,-8.176795836968715,-7.6935188832107695
1621787062311.457,1.073,0.271,0.878,1.3322698491835971,-8.580567742739623,-6.873589430387636
1621787062314.875,0.9849053611880191,0.29425698464636296,0.8166861313868613,1.187,-8.865,-6.296
1621787062316.307,0.948,0.304,0.791,0.9421831473283871,-8.654373402331816,-6.1301681214539565
1621787062321.157,0.787,0.351,0.679,0.11293649853482157,-7.940936405012781,-5.568460346655028
1621787062326.007,0.602,0.405,0.545,-0.7163101502587441,-7.227499407693746,-5.006752571856101
1621787062330.538,0.4094656796092058,0.49939789494888454,0.4057397391348139,-1.491,-6.561,-4.482
1621787062330.855,0.396,0.506,0.396,-1.4699532109948705,-6.53738307426059,-4.484185628088994
1621787062335.703,0.161,0.681,0.272,-1.1479762546968304,-6.176087778106924,-4.517621696627637
1621787062340.55,-0.07,0.892,0.183,-0.8260479427493413,-5.814847066527386,-4.551052713637568
1621787062345.397,-0.291,1.066,0.133,-0.5041358455853693,-5.45362454980589,-4.584482046804596
1621787062346.197,-0.3238541992039901,1.0886182175424455,0.12920278099652377,-0.451,-5.394,-4.59
1621787062350.243,-0.49,1.203,0.11,-0.36234374171410744,-5.454741168213366,-5.228686921937144
1621787062355.088,-0.656,1.293,0.106,-0.2561777119238867,-5.527478827107541,-5.993515667160571
1621787062359.934,-0.782,1.316,0.101,-0.14998493332293533,-5.600234812446385,-6.758537113000077
1621787062361.85,-0.8088970313996271,1.3029470288795928,0.101,-0.108,-5.629,-7.061
1621787062364.778,-0.85,1.283,0.101,-0.4016396648044693,-5.761128491620111,-7.369237430167598
1621787062369.621,-0.864,1.197,0.093,-0.8873338222901906,-5.9796753846634,-7.879076995100029
1621787062374.464,-0.853,1.101,0.063,-1.3730279797759122,-6.198222277706688,-8.388916560032458
1621787062377.495,-0.8360977712787414,1.0365211274707544,0.037959661153691,-1.677,-6.335,-8.708
1621787062379.306,-0.826,0.998,0.023,-1.737209500913249,-6.3883780383096305,-8.737525812947844
1621787062384.147,-0.775,0.915,-0.026,-1.898176764444167,-6.5310817084783865,-8.816461682563967
1621787062388.989,-0.705,0.838,-0.073,-2.059176499055529,-6.673814165508844,-8.895413475498383
1621787062393.134,-0.6185042622950819,0.7737704918032787,-0.1183888524590164,-2.197,-6.796,-8.963
1621787062393.829,-0.604,0.763,-0.126,-2.193486832239925,-6.790752483598876,-8.95779695407685
1621787062398.668,-0.459,0.667,-0.173,-2.169029162761637,-6.754220774757888,-8.921574835988753
1621787062403.506,-0.297,0.586,-0.216,-2.144575195251484,-6.7176945954389256,-8.885358200562324
1621787062408.345,-0.131,0.515,-0.262,-2.1201175257731957,-6.681162886597938,-8.849136082474226
1621787062408.764,-0.11818433668062775,0.5081592067416865,-0.26563687742847053,-2.118,-6.678,-8.846
1621787062413.183,0.017,0.436,-0.304,-2.1236565625,-6.5365859375,-8.318808375
1621787062418.02,0.134,0.358,-0.344,-2.1298478125,-6.3818046875,-7.741783875
1621787062422.856,0.19,0.272,-0.372,-2.1360378124999997,-6.2270546875,-7.164875875
1621787062424.389,0.2010970006059382,0.2504401131084629,-0.37897525752373257,-2.138,-6.178,-6.982
1621787062427.691,0.225,0.204,-0.394,-2.040535093478397,-6.020491636966173,-6.610956809229038
1621787062432.527,0.227,0.133,-0.426,-1.8977859375976989,-5.789801569436628,-6.06751913337085
1621787062437.361,0.204,0.08,-0.457,-1.7551016382167197,-5.559216313387107,-5.5243283624085535
1621787062440.007,0.181005657708628,0.05645817336835724,-0.4657597494443322,-1.677,-5.433,-5.227
1621787062442.194,0.162,0.037,-0.473,-1.484660619898039,-5.3656181778375505,-5.0663202702280055
1621787062447.028,0.145,0.012,-0.487,-1.0595300409720703,-5.216683138898445,-4.711167485065524
1621787062451.86,0.117,-0.003,-0.487,-0.6345712319769807,-5.0678082757326495,-4.356158195977857
1621787062455.619,0.08043731999393665,-0.01000136425648022,-0.48855585872366225,-0.304,-4.952,-4.08
1621787062456.692,0.07,-0.012,-0.489,-0.23723511006117115,-4.939210844975673,-4.003127552058073
1621787062461.523,0.005,-0.044,-0.489,0.0633664012265524,-4.881629093070918,-3.6570178820069152
1621787062466.353,-0.059,-0.054,-0.482,0.36390714810932595,-4.824058980897699,-3.3109781755033714
1621787062471.183,-0.126,-0.07,-0.478,0.6644478949920996,-4.76648886872448,-2.9649384689998284
1621787062471.224,-0.12658607614136205,-0.07011891399969665,-0.47794054300015165,0.667,-4.766,-2.962
1621787062476.012,-0.195,-0.084,-0.471,0.9709037332707209,-4.7540280347499415,-2.8385966658840105
1621787062480.841,-0.258,-0.093,-0.463,1.2774263911716366,-4.741952899741723,-2.7141298896454567
1621787062485.668,-0.318,-0.093,-0.454,1.5838095797135479,-4.729883258980982,-2.5897197464193473
1621787062486.821,-0.33376562816103583,-0.093,-0.4506557758446288,1.657,-4.727,-2.56
1621787062490.495,-0.384,-0.093,-0.44,1.8511928088198446,-4.840122024555249,-2.53666858243548
1621787062495.322,-0.466,-0.08,-0.424,2.106318466549737,-4.988738912553245,-2.5060163492858933
1621787062500.148,-0.546,-0.073,-0.407,2.3613925081433225,-5.137325732899023,-2.4753703175895763
1621787062502.411,-0.5839896270809088,-0.06830992258260385,-0.3976198451652077,2.481,-5.207,-2.461
1621787062504.973,-0.627,-0.063,-0.387,2.563205301748449,-5.3924551607445,-2.565893965031021
1621787062509.798,-0.691,-0.056,-0.37,2.7180276367738294,-5.74173434856176,-2.7634472645234065
1621787062514.621,-0.749,-0.051,-0.342,2.8727794698251548,-6.09085448392555,-2.960910603496898
1621787062517.994,-0.7636856492027335,-0.03141913439635535,-0.3224191343963554,2.981,-6.335,-3.099
1621787062519.444,-0.77,-0.023,-0.314,2.995616324995298,-6.4117124318224565,-3.277002633063758
1621787062524.268,-0.756,0.01,-0.272,3.04423652122124,-6.666891041314024,-3.8691161055733185
1621787062529.089,-0.717,0.037,-0.243,3.0928271895178985,-6.92191467619585,-4.460869976803963
1621787062533.571,-0.671444343158108,0.03142175630507445,-0.21510878152537222,3.138,-7.159,-5.011
1621787062533.91,-0.668,0.031,-0.213,3.108333322879097,-7.174801913125294,-5.035334075584131
1621787062538.731,-0.604,0.019,-0.194,2.6862671318801943,-7.399614865924415,-5.3815336365061945
1621787062543.551,-0.518,-0.003,-0.195,2.264286435628038,-7.624382280068998,-5.7276630704092835
1621787062548.37,-0.426,-0.03,-0.215,1.842391234122628,-7.84910415555904,-6.0737223772933975
1621787062549.14,-0.41066470767048335,-0.034632536224541495,-0.21947279359610902,1.775,-7.885,-6.129
1621787062553.189,-0.33,-0.059,-0.243,1.4024612162946464,-8.030425405091686,-6.14174748631394
1621787062558.007,-0.22,-0.073,-0.271,0.9591658954369343,-8.203471553387399,-6.156916111119825
1621787062562.824,-0.098,-0.087,-0.307,0.5159828865429563,-8.376473859233581,-6.172080892848739
1621787062564.704,-0.04610068406384596,-0.08778044084114517,-0.3089511021028629,0.343,-8.444,-6.178
1621787062567.642,0.035,-0.089,-0.312,0.2763217912696794,-8.262287714451649,-6.34478996688066
1621787062572.457,0.157,-0.106,-0.302,0.16704577061325718,-7.964487340878056,-6.618134800420663
1621787062577.272,0.262,-0.141,-0.257,0.05776974995683498,-7.666686967304463,-6.891479633960665
1621787062580.258,0.30602316739328805,-0.16704187366926898,-0.22227750177430802,-0.01,-7.482,-7.061
1621787062582.088,0.333,-0.183,-0.201,0.12155935503116512,-7.3263175074183975,-7.049467963512474
1621787062586.902,0.365,-0.201,-0.136,0.4676859623506508,-6.916724035608309,-7.019127706341356
1621787062591.715,0.351,-0.204,-0.075,0.813724804923618,-6.507234421364985,-6.988795142323332
1621787062595.808,0.2957232930912042,-0.21165369787967941,-0.02482575834432383,1.108,-6.159,-6.963
1621787062596.528,0.286,-0.213,-0.016,1.1593207890934223,-6.19123760758937,-6.937571197461834
1621787062601.34,0.176,-0.195,0.04,1.5023295218948296,-6.406701576930326,-6.767614704404096
1621787062606.152,0.072,-0.145,0.073,1.845338254696237,-6.622165546271282,-6.597658211346359
1621787062610.963,0.007,-0.106,0.113,2.1882599736131185,-6.837574857071057,-6.427744832568951
1621787062611.352,0.006433661557202315,-0.1038155517206375,0.1151844482793625,2.216,-6.855,-6.414
1621787062615.773,0.0,-0.079,0.14,1.7974971719457016,-7.022287330316742,-6.815717194570135
1621787062620.583,0.07,-0.07,0.127,1.3421546317244848,-7.204300527903469,-7.2527965057818
1621787062625.391,0.185,-0.094,0.066,0.8869969834087483,-7.386239819004524,-7.689698340874811
1621787062626.891,0.23335829990351903,-0.10554359417051745,0.03168120652008328,0.745,-7.443,-7.826
1621787062630.199,0.34,-0.131,-0.044,0.546671032357473,-7.250848841231408,-8.262494151127322
1621787062635.007,0.497,-0.14,-0.202,0.2583921417565485,-6.971549636803874,-8.896955425930003
1621787062639.814,0.654,-0.065,-0.344,-0.02981355932203389,-6.692321342096161,-9.531255620892425
1621787062642.419,0.7244612414914152,-0.004294930407396119,-0.39494889769379254,-0.186,-6.541,-9.875
1621787062644.62,0.784,0.047,-0.438,-0.5226570826386486,-6.329561200415238,-9.905630972978074
1621787062649.426,0.845,0.12,-0.524,-1.2576942023970556,-5.867918257887949,-9.972508823806978
1621787062654.231,0.831,0.138,-0.649,-1.9925819623140082,-5.406369121394193,-10.039373085029412
1621787062657.941,0.8217327336484219,0.12332682827666819,-0.7463062966915689,-2.56,-5.05,-10.091
1621787062659.035,0.819,0.119,-0.775,-2.512971850709633,-5.11916733801177,-10.142188060546935
1621787062663.838,0.86,0.129,-0.833,-2.3065034773578375,-5.422833716209837,-10.366919753280674
1621787062668.641,0.946,0.152,-0.853,-2.1000246089939267,-5.726515530100387,-10.591662869370928
1621787062673.444,1.004,0.148,-0.878,-1.8935562356421312,-6.030181908298455,-10.816394562104668
1621787062673.457,1.0038895215821853,0.14785179724439473,-0.8781697595200569,-1.893,-6.031,-10.817
1621787062678.246,0.963,0.093,-0.941,-2.1897489334907516,-5.882779929161747,-10.822867044470682
1621787062683.047,0.869,-0.005,-1.021,-2.4872391341991342,-5.734189610389611,-10.828748744588745
1621787062687.847,0.752,-0.098,-1.079,-2.7846536953955137,-5.585637072018891,-10.834628949232586
1621787062688.966,0.7279853517115101,-0.105694013529322,-1.0801657596256549,-2.854,-5.551,-10.836
1621787062692.647,0.649,-0.131,-1.084,-2.4114247559055118,-6.1517056692913386,-10.230783102362205
1621787062697.447,0.59,-0.117,-1.047,-1.8342892598425198,-6.935049448818898,-9.441556503937008
1621787062702.245,0.559,-0.115,-1.004,-1.257388598425197,-7.718074488188976,-8.65265103937008
1621787062704.469,0.5525094666123779,-0.13029911441368078,-0.98684644747557,-0.99,-8.081,-8.287
1621787062707.042,0.545,-0.148,-0.967,-0.5943475171718444,-8.124832251559644,-8.115987806415024
1621787062711.84,0.489,-0.188,-0.927,0.14346045749574654,-8.206570105236626,-7.797086331841956
1621787062716.636,0.374,-0.204,-0.873,0.880930556430777,-8.288270527443444,-7.478330896716869
1621787062719.966,0.2524870698432091,-0.21510975361433515,-0.8243948279372837,1.393,-8.345,-7.257
1621787062721.432,0.199,-0.22,-0.803,1.5656163012467885,-8.363643317623694,-7.293151001686553
1621787062726.227,0.037,-0.244,-0.681,2.1302993080402883,-8.424631559037246,-7.411412464732122
1621787062731.022,-0.082,-0.293,-0.501,2.694953564617058,-8.485616695301294,-7.529667906624844
1621787062735.455,-0.15506856153219234,-0.34664527302363485,-0.32804024042379787,3.217,-8.542,-7.639
1621787062735.815,-0.161,-0.351,-0.314,3.154539220943069,-8.55041488724176,-7.654969689323451
1621787062740.609,-0.218,-0.419,-0.168,2.322463333859013,-8.662514429900646,-7.867711086579404
1621787062745.402,-0.264,-0.497,-0.045,1.4905145718340953,-8.774596845923355,-8.08041998107554
1621787062750.193,-0.302,-0.583,0.038,0.6589471849865949,-8.886627882037534,-8.293031367292226
1621787062750.936,-0.3052565356979055,-0.5992826784895275,0.050560923406207,0.53,-8.904,-8.326
1621787062754.984,-0.323,-0.688,0.119,0.02689394537105705,-8.473102614678176,-8.831460685149828
1621787062759.776,-0.333,-0.827,0.185,-0.5687010872137976,-7.962990800498635,-9.429843213987029
1621787062764.565,-0.344,-0.935,0.222,-1.1639319899641802,-7.453190854149243,-10.027859908793966
1621787062766.408,-0.3386133537206932,-0.9646265545361876,0.2293104485219164,-1.393,-7.257,-10.258
1621787062769.355,-0.33,-1.012,0.241,-1.3274557637365239,-7.103809401291178,-10.173783277824255
1621787062774.144,-0.295,-1.051,0.246,-1.2209429861253611,-6.854866746641832,-10.03692674380061
1621787062778.931,-0.225,-1.033,0.241,-1.114479077549603,-6.606038309156631,-9.900133000805013
1621787062781.875,-0.15428895574138282,-1.0010263104221904,0.2323916989598205,-1.049,-6.453,-9.816
1621787062783.719,-0.11,-0.981,0.227,-0.9180520747805216,-6.347693061959199,-9.55875530537485
1621787062788.506,0.01,-0.918,0.218,-0.5781041179814312,-6.07431050653698,-8.890934045979916
1621787062793.292,0.101,-0.857,0.185,-0.23824284721783617,-5.8009976631086975,-8.223283079643782
1621787062797.337,0.15257683082418985,-0.7952769073743302,0.14695151824445013,0.049,-5.57,-7.659
1621787062798.076,0.162,-0.784,0.14,0.13248827878175157,-5.5432703620624295,-7.528651175281182
1621787062802.862,0.188,-0.719,0.126,0.6731900353848098,-5.370159089473019,-6.6844627511689625
1621787062807.646,0.143,-0.644,0.148,1.2136435612283583,-5.197127290534564,-5.840661885504865
1621787062812.429,0.049,-0.592,0.176,1.7539867622899026,-5.024130813218754,-4.997033268039934
1621787062812.792,0.042472410800877956,-0.5870663570006636,0.17827706599969373,1.795,-5.011,-4.933
1621787062817.212,-0.037,-0.527,0.206,2.0250373923350455,-4.84819990517582,-4.621419502173054
1621787062821.994,-0.119,-0.456,0.227,2.2739184354010273,-4.672063943105492,-4.284315701303832
1621787062826.775,-0.169,-0.365,0.246,2.5227486527064404,-4.495963951007507,-3.9472807427894114
1621787062828.24,-0.18554434063409406,-0.3392643590136315,0.2582550671363659,2.599,-4.442,-3.844
1621787062831.557,-0.223,-0.281,0.286,2.624131415019763,-4.461117059288537,-3.728223652173913
1621787062836.337,-0.304,-0.19,0.33,2.660348695652174,-4.488666956521739,-3.56137652173913
1621787062841.116,-0.393,-0.103,0.374,2.696558577075099,-4.516211225296442,-3.39456347826087
1621787062843.682,-0.4321863731549109,-0.05790883089023954,0.39225118749680776,2.716,-4.531,-3.305
1621787062845.896,-0.466,-0.019,0.408,2.5402664272833686,-4.567581274320605,-3.3795971084184884
1621787062850.673,-0.515,0.049,0.44,2.161108987946471,-4.646507924958081,-3.540545572463539
1621787062855.451,-0.541,0.124,0.466,1.781893416432029,-4.7254466765794545,-3.7015187130247718
1621787062859.116,-0.5479048908877192,0.17233423621403382,0.4736721009863546,1.491,-4.786,-3.825
1621787062860.228,-0.55,0.187,0.476,1.3686789359580966,-4.790180684569493,-3.874447407149526
1621787062865.004,-0.529,0.23,0.487,0.8433562894624406,-4.808135141550488,-4.086805294890257
1621787062869.78,-0.494,0.264,0.497,0.3180067887265996,-4.826090516354659,-4.299174038263732
1621787062874.544,-0.4680598220676961,0.2779677881173944,0.497,-0.206,-4.844,-4.511
1621787062874.555,-0.468,0.278,0.497,-0.20692905432149586,-4.844161017083327,-4.510692927597726
1621787062879.329,-0.449,0.297,0.497,-0.6106547711404189,-4.914131885182313,-4.377252909231963
1621787062884.103,-0.447,0.302,0.487,-1.0143598423077533,-4.98409917512389,-4.243819714697361
1621787062888.876,-0.449,0.309,0.483,-1.4179823308687323,-5.054052152435839,-4.110413815487405
1621787062889.964,-0.45014013097308914,0.309,0.48140381663767523,-1.51,-5.07,-4.08
1621787062893.648,-0.454,0.309,0.476,-1.5288830611307365,-5.29970407274225,-3.885432762526336
1621787062898.42,-0.463,0.302,0.476,-1.5533438148494305,-5.597258304687376,-3.633394110285615
1621787062903.191,-0.471,0.298,0.49,-1.5777995627861294,-5.894751643512285,-3.381407036608741
1621787062905.376,-0.48245204217422455,0.29250301975637216,0.49961971542634864,-1.589,-6.031,-3.266
1621787062907.961,-0.496,0.286,0.511,-1.7140108559565128,-6.1593668520895735,-3.302076958430403
1621787062912.731,-0.508,0.274,0.531,-1.944692958683973,-6.396241762943945,-3.3686496457947035
1621787062917.501,-0.501,0.243,0.538,-2.175375061411433,-6.633116673798317,-3.435222333159004
1621787062920.781,-0.47692293906810035,0.21479544290834615,0.5269933435739887,-2.334,-6.796,-3.481
1621787062922.269,-0.466,0.202,0.522,-2.4634321398190395,-6.73133106488284,-3.6400327894207716
1621787062927.049,-0.403,0.154,0.468,-2.8792076714871238,-6.523594710385894,-4.150894640785709
1621787062932.011,-0.318,0.099,0.4,-3.3108038666769777,-6.307953785476761,-4.6811952826540875
1621787062936.566,-0.22618405511811024,0.05768282480314961,0.3247109251968504,-3.707,-6.11,-5.168
1621787062936.972,-0.218,0.054,0.318,-3.672727269957807,-6.105516427777186,-5.1727115504714325
1621787062941.933,-0.124,0.037,0.255,-3.253932232563099,-6.050729493838632,-5.230284260711946
1621787062946.895,-0.035,0.061,0.201,-2.8350753682350613,-5.995934471675984,-5.287865470442187
1621787062951.855,0.037,0.098,0.176,-2.416383375729235,-5.94116101811092,-5.345424014866491
1621787062952.594,0.04221382874015748,0.10440556102362204,0.17421240157480314,-2.354,-5.933,-5.354
1621787062956.816,0.072,0.141,0.164,-2.0697654272091643,-6.018349399058601,-5.131933508004936
1621787062961.778,0.061,0.185,0.168,-1.735695705820525,-6.118663198622937,-4.870931862842171
1621787062966.738,0.023,0.197,0.164,-1.401773911983792,-6.218932578792633,-4.610045790363611
1621787062968.621,0.007813939751919668,0.18902731836975784,0.16134243945658594,-1.275,-6.257,-4.511
1621787062971.698,-0.017,0.176,0.157,-1.7494798884724378,-6.087446887284029,-4.7840515586433865
1621787062976.658,-0.079,0.103,0.119,-2.5143401133558827,-5.814127753908036,-5.224209891214919
1621787062981.619,-0.141,0.007,0.044,-3.27935093091995,-5.540754806959807,-5.664454886187038
1621787062984.645,-0.2050584239799183,-0.04607697986907516,-0.01700802283801743,-3.746,-5.374,-5.933
1621787062986.579,-0.246,-0.08,-0.056,-3.70459750114277,-5.517279201584641,-6.217144263294225
1621787062991.539,-0.394,-0.175,-0.141,-3.5984206308090814,-5.884719274721926,-6.945833338412312
1621787062996.5,-0.543,-0.305,-0.154,-3.492222855401493,-6.252231692823404,-7.674665884504038
1621787063000.668,-0.6203249310752265,-0.41846593146908234,-0.12290192989365892,-3.403,-6.561,-8.287
1621787063001.459,-0.635,-0.44,-0.117,-3.3758938465758437,-6.684927950992045,-8.357209381000276
1621787063006.419,-0.588,-0.567,-0.106,-3.205928225290299,-7.462002102953278,-8.79744820334644
1621787063011.379,-0.415,-0.663,-0.129,-3.0359626040047547,-8.23907625491451,-9.237687025692603
1621787063016.338,-0.145,-0.717,-0.171,-2.8660304471061533,-9.015997409405383,-9.67783916979062
1621787063016.689,-0.12263850204222232,-0.7174245854042616,-0.1736182766596132,-2.854,-9.071,-9.709
1621787063021.299,0.171,-0.723,-0.208,-2.0075306110010667,-9.181196388846564,-9.460698476306566
1621787063026.258,0.489,-0.684,-0.202,-1.0970033521255522,-9.299732058509829,-9.193606353801615
1621787063031.217,0.775,-0.625,-0.155,-0.18647609325003778,-9.418267728173092,-8.926514231296663
1621787063032.712,0.8440314592359197,-0.5903335466719181,-0.12997986411973217,0.088,-9.454,-8.846
1621787063036.176,1.004,-0.51,-0.072,0.6777126070655651,-8.87488362239766,-8.693327795897217
1621787063041.135,1.122,-0.393,0.073,1.5219047611790166,-8.045860304203371,-8.474772731429269
1621787063046.094,1.119,-0.302,0.202,2.366096915292468,-7.216836986009083,-8.25621766696132
1621787063048.731,1.056784708546672,-0.27434875935407643,0.25038967113036625,2.815,-6.776,-8.14
1621787063051.053,1.002,-0.25,0.293,3.241480140222527,-6.56420955647005,-8.266407437890566
1621787063056.011,0.834,-0.25,0.403,4.152105593659503,-6.111992089620484,-8.5363140984606
1621787063060.969,0.665,-0.295,0.586,5.062731047096479,-5.65977462277092,-8.806220759030635
1621787063064.749,0.5529479617959827,-0.3148187278456085,0.7270178712091375,5.757,-5.315,-9.012
1621787063065.928,0.518,-0.321,0.771,5.686931290961743,-5.436295412284713,-9.082731123304375
1621787063070.886,0.436,-0.304,0.923,5.392262551440329,-5.946394238683128,-9.38018559670782
1621787063075.844,0.407,-0.208,1.04,5.097593811918914,-6.456493065081543,-9.677640070111265
1621787063080.767,0.44968880464749905,-0.05511451358802677,1.121406557699882,4.805,-6.963,-9.973
1621787063080.803,0.45,-0.054,1.122,4.800693407514671,-6.962758006249524,-9.978494154408963
1621787063085.761,0.545,0.087,1.216,4.205739120493865,-6.929326651932017,-10.737509717247162
1621787063090.718,0.656,0.169,1.297,3.6109020196631354,-6.89590188247847,-11.496375779285117
1621787063095.677,0.747,0.187,1.3,3.015830546452252,-6.862463943297005,-12.255540842923558
1621787063096.784,0.7646411544523246,0.1885631402679275,1.2852618203309694,2.883,-6.855,-12.425
1621787063100.634,0.826,0.194,1.234,2.567109576511479,-7.333643708649654,-12.274026494710204
1621787063105.591,0.927,0.202,1.148,2.1603981523826947,-7.949901277477972,-12.079646909966767
1621787063110.548,1.08,0.269,1.049,1.7536867282539101,-8.56615884630629,-11.88526732522333
1621787063112.799,1.1562733897971242,0.3075907031711641,1.0004211148315933,1.569,-8.846,-11.797
1621787063115.506,1.248,0.354,0.942,1.6038206167965,-9.043260484473375,-11.250012058478285
1621787063120.463,1.393,0.492,0.866,1.6675799045688064,-9.40445994481455,-10.248434120462827
1621787063125.419,1.456,0.588,0.85,1.7313297711785598,-9.765606033812523,-9.24700417702029
1621787063128.814,1.434087847153831,0.6229224935985819,0.840413433129801,1.775,-10.013,-8.561
1621787063130.377,1.424,0.639,0.836,1.434209496652994,-9.773636403836477,-8.143675622512617
1621787063135.333,1.312,0.7,0.794,0.35360230859547737,-9.01464218294933,-6.8203883899300095
1621787063140.291,1.127,0.759,0.723,-0.7274307345115201,-8.255348851039173,-5.496579664841951
