time,gyro_x,gyro_y,gyro_z,acc_x,acc_y,acc_z
1621787317234.856,,,,2.922,-3.579,-8.022
1621787317253.479,,,,2.864,-3.501,-7.983
1621787317271.064,0.033,-0.161,0.141,2.8816500509434206,-3.5195790009930743,-7.964420999006926
1621787317272.409,0.03345468801584681,-0.16168203202377024,0.14190937603169362,2.883,-3.521,-7.963
1621787317276.98,0.035,-0.164,0.145,2.871356195504563,-3.5114948534731125,-7.963
1621787317282.923,0.033,-0.183,0.14,2.8562173217753295,-3.4991365892043507,-7.963
1621787317288.897,0.035,-0.185,0.14,2.8410000888426343,-3.486714358238885,-7.963
1621787317291.645,0.03820501138952164,-0.1914100227790433,0.141373576309795,2.834,-3.481,-7.963
1621787317294.899,0.042,-0.199,0.143,2.834,-3.4778361819090455,-7.972824487756122
1621787317300.93,0.049,-0.211,0.141,2.834,-3.471972151424288,-7.991033845577212
1621787317306.991,0.054,-0.218,0.143,2.834,-3.4660789230384808,-8.009333870564717
1621787317311.186,0.061577189817598715,-0.22282184806574465,0.143,2.834,-3.462,-8.022
1621787317313.081,0.065,-0.225,0.143,2.837019959277368,-3.4639126408756664,-8.022
1621787317319.201,0.075,-0.236,0.141,2.846772770306198,-3.4700894211939253,-8.022
1621787317324.829,0.08,-0.251,0.143,2.8557419948902174,-3.4757699300971376,-8.022
1621787317330.011,0.0864385075403016,-0.2629572282891316,0.1475989339573583,2.864,-3.481,-8.022
1621787317330.463,0.087,-0.264,0.148,2.864966294992437,-3.4814955358935573,-8.020538169114005
1621787317336.102,0.094,-0.269,0.145,2.877024361840256,-3.4876791599180796,-8.002296478241664
1621787317341.749,0.099,-0.279,0.143,2.8890991339499643,-3.4938713507435715,-7.984029515306464
1621787317347.4,0.106,-0.295,0.147,2.901182258690618,-3.5000678249695474,-7.965749916339834
1621787317348.25,0.10705169140490162,-0.295450724887815,0.14745072488781497,2.903,-3.501,-7.963
1621787317353.058,0.113,-0.298,0.15,2.923491322617221,-3.5319996931901554,-7.957745814713533
1621787317358.721,0.119,-0.314,0.161,2.9476253851797507,-3.568510198092443,-7.9515575935436535
1621787317364.391,0.127,-0.318,0.166,2.9717906623090773,-3.6050679250316815,-7.9453613686386975
1621787317366.552,0.1296655050765789,-0.3218078643951127,0.16714235931853383,2.981,-3.619,-7.943
1621787317370.066,0.134,-0.328,0.169,2.9922889275886364,-3.6226354173590525,-7.950653510229584
1621787317375.748,0.145,-0.337,0.178,3.010543530569108,-3.628514018318865,-7.963029512250242
1621787317381.435,0.155,-0.34,0.185,3.0288138202411496,-3.634397670925116,-7.975416149316033
1621787317384.917,0.1635613583740674,-0.3442806791870337,0.1892806791870337,3.04,-3.638,-7.983
1621787317387.129,0.169,-0.347,0.192,3.047082532826309,-3.638,-7.989962489897049
1621787317392.828,0.176,-0.349,0.202,3.065330608297007,-3.638,-8.00790127595299
1621787317398.534,0.192,-0.356,0.213,3.0836013541266416,-3.638,-8.025862348124495
1621787317403.343,0.19789432736288634,-0.3602102338306331,0.2172102338306331,3.099,-3.638,-8.041
1621787317404.245,0.199,-0.361,0.218,3.0970969454459016,-3.6403910172602774,-8.042951850824716
1621787317409.962,0.209,-0.377,0.227,3.085036884434056,-3.655543401608494,-8.055321144170199
1621787317415.685,0.222,-0.368,0.23,3.072963432510598,-3.6707126104354026,-8.067704171784001
1621787317421.415,0.234,-0.377,0.237,3.060875559605404,-3.685899937931672,-8.080101990148304
1621787317421.83,0.23450668483351786,-0.377,0.23765145192880865,3.06,-3.687,-8.081
1621787317427.149,0.241,-0.377,0.246,3.0430809508766385,-3.7039190491233613,-8.081
1621787317432.891,0.258,-0.391,0.253,3.0248152740483336,-3.7221847259516663,-8.081
1621787317438.637,0.267,-0.394,0.26,3.006537948191439,-3.740462051808561,-8.081
1621787317440.378,0.2697230260087403,-0.394,0.2648409351266494,3.001,-3.746,-8.081
1621787317444.391,0.276,-0.394,0.276,2.971455033257678,-3.758723744801438,-8.076686866169004
1621787317450.149,0.29,-0.398,0.276,2.929066148013067,-3.7769788121695553,-8.070498707739134
1621787317455.915,0.309,-0.403,0.284,2.886616152604857,-3.795260197053383,-8.064301628117498
1621787317458.987,0.31751857493441654,-0.403,0.28879169840060925,2.864,-3.805,-8.061
1621787317461.685,0.325,-0.403,0.293,2.859664914482975,-3.80210994298865,-8.046838720644384
1621787317467.462,0.34,-0.408,0.291,2.8503827867566294,-3.795921857837753,-8.01651710340499
1621787317473.244,0.358,-0.408,0.304,2.841092421151734,-3.7897282807678225,-7.98616857576233
1621787317477.658,0.36867296340023614,-0.4179106088716478,0.31162354528588293,2.834,-3.785,-7.963
1621787317479.034,0.372,-0.421,0.314,2.8326044959927024,-3.7792710888121457,-7.9558021372255165
1621787317484.828,0.38,-0.421,0.321,2.826728324754024,-3.755147859516518,-7.925493464520754
1621787317490.629,0.389,-0.429,0.33,2.8208449729588843,-3.7309951521469995,-7.895147755261615
1621787317496.392,0.3929703977798335,-0.429,0.3329777983348751,2.815,-3.707,-7.865
1621787317496.435,0.393,-0.429,0.333,2.814730142023675,-3.706887940331865,-7.864910809651893
1621787317502.246,0.394,-0.433,0.34,2.778234917293624,-3.6917331436219283,-7.852848828597045
1621787317508.062,0.393,-0.435,0.347,2.741709026884445,-3.676565612858795,-7.8407767122753675
1621787317513.885,0.398,-0.44,0.349,2.7051386712405305,-3.6613796177185254,-7.828689899816785
1621787317515.181,0.398,-0.4411118093083658,0.3505565330317121,2.697,-3.658,-7.826
1621787317519.713,0.398,-0.445,0.356,2.6544452661572335,-3.6839656003108403,-7.821191555497992
1621787317525.548,0.401,-0.443,0.356,2.599653438673747,-3.7173979018261885,-7.815000388550706
1621787317531.388,0.405,-0.447,0.361,2.5448180546561328,-3.7508567802098174,-7.808804299961145
1621787317534.031,0.4081648360826895,-0.447,0.36280847776153685,2.52,-3.766,-7.806
1621787317537.234,0.412,-0.447,0.365,2.4951017623136016,-3.7825988251242655,-7.802612484668517
1621787317543.086,0.408,-0.454,0.36,2.449609670131044,-3.8129268865793042,-7.79642308437157
1621787317548.944,0.421,-0.463,0.361,2.404070131043832,-3.8432865793041118,-7.790227228713446
1621787317552.941,0.4264538186058133,-0.46709036395435993,0.3623634546514533,2.373,-3.864,-7.786
1621787317554.807,0.429,-0.469,0.363,2.3614933087989294,-3.873638083228247,-7.786
1621787317560.677,0.438,-0.482,0.361,2.325294580127133,-3.9039583858764186,-7.786
1621787317566.552,0.447,-0.482,0.361,2.2890657410505186,-3.9343039092055485,-7.786
1621787317571.914,0.45520433320881587,-0.4947622961026024,0.36008840742124265,2.256,-3.962,-7.786
1621787317572.434,0.456,-0.496,0.36,2.2554536149909574,-3.964130901535265,-7.787611835776675
1621787317578.321,0.461,-0.501,0.361,2.249268177562302,-3.9882541075070224,-7.805858876191209
1621787317584.214,0.463,-0.496,0.353,2.2430763271640566,-4.012402324060179,-7.824124834866033
1621787317590.112,0.478,-0.513,0.353,2.2368793463901397,-4.036570549078457,-7.8424059281490885
1621787317590.949,0.47927535033690216,-0.5132834111859783,0.3524331776280435,2.236,-4.04,-7.845
1621787317596.018,0.487,-0.515,0.349,2.2046748494495803,-4.073979824325879,-7.86066257527521
1621787317601.928,0.49,-0.503,0.342,2.168153734033984,-4.113595949522458,-7.878923132983008
1621787317607.845,0.496,-0.511,0.335,2.1315888663009983,-4.1532595348599335,-7.8972055668495
1621787317610.044,0.4978565774827885,-0.5117426309931155,0.33165816053098074,2.118,-4.168,-7.904
1621787317613.767,0.501,-0.513,0.326,2.100898140714404,-4.217556524066215,-7.9498640771750075
1621787317619.695,0.504,-0.517,0.309,2.0736686164315477,-4.2964602592040375,-8.02288871047903
1621787317625.629,0.517,-0.517,0.291,2.046412177747193,-4.375441984937111,-8.095985523314345
1621787317629.202,0.5296293404561332,-0.5176013971645778,0.28318183686048903,2.03,-4.423,-8.14
1621787317631.57,0.538,-0.518,0.278,2.020389940302299,-4.4507213260510605,-8.182259621491173
1621787317637.515,0.548,-0.518,0.258,1.9962657182776578,-4.520310428045217,-8.288344341420045
1621787317643.467,0.567,-0.515,0.241,1.9721117744189,-4.589985266099327,-8.394559761209196
1621787317648.423,0.5861352459016393,-0.5208237704918033,0.22020081967213115,1.952,-4.648,-8.483
1621787317649.424,0.59,-0.522,0.216,1.9387623039035693,-4.653087428303726,-8.494680320085086
1621787317655.388,0.618,-0.518,0.202,1.8598914648197622,-4.683398574304562,-8.56427223692374
1621787317661.357,0.639,-0.511,0.182,1.7809528229022904,-4.713735777865002,-8.633923979792097
1621787317667.333,0.67,-0.51,0.164,1.7019205485002342,-4.74410896567442,-8.703658339558617
1621787317667.705,0.6716177022944395,-0.5091911488527803,0.16281783293867885,1.697,-4.746,-8.708
1621787317673.313,0.696,-0.497,0.145,1.6372668652797415,-4.78021606746112,-8.6653748990103
1621787317679.301,0.717,-0.501,0.129,1.5734847758028683,-4.816751439103212,-8.619860495354473
1621787317685.293,0.73,-0.496,0.117,1.509661078569986,-4.85331064431428,-8.574316400727126
1621787317687.045,0.7330163934426229,-0.49690491803278686,0.11338032786885247,1.491,-4.864,-8.561
1621787317691.101,0.74,-0.499,0.105,1.3941125829562098,-4.9047716279867535,-8.48800563376565
1621787317696.83,0.747,-0.487,0.094,1.2572665417650706,-4.962358423601124,-8.384906693230246
1621787317702.558,0.754,-0.475,0.096,1.1204438272663702,-5.0199354030055545,-8.281825326877152
1621787317705.549,0.760264893889031,-0.4666468081479587,0.09338962754623711,1.049,-5.05,-8.228
1621787317708.287,0.766,-0.459,0.091,0.9779702855333298,-5.089214321528474,-8.197516414208053
1621787317714.015,0.778,-0.466,0.086,0.8293810629651132,-5.171247954821344,-8.13374687285586
1621787317719.743,0.796,-0.466,0.079,0.6807855069404127,-5.25328508470998,-8.06997461339526
1621787317724.052,0.8132994971448052,-0.45923063155203275,0.08953012869683798,0.569,-5.315,-8.022
1621787317725.472,0.819,-0.457,0.093,0.5546510633806533,-5.340628581983219,-8.002433268246346
1621787317731.201,0.84,-0.454,0.098,0.4967569528735025,-5.444033036044119,-7.923486753918413
1621787317736.929,0.866,-0.447,0.103,0.43887271096100056,-5.547419863845058,-7.844553696765001
1621787317742.557,0.877788289440041,-0.4420882127333163,0.10791178726668371,0.382,-5.649,-7.767
1621787317742.658,0.878,-0.442,0.108,0.3817869724117003,-5.65033825023419,-7.765230232343357
1621787317748.386,0.883,-0.435,0.119,0.3697143799559326,-5.726178895148629,-7.664934848864671
1621787317754.115,0.876,-0.428,0.124,0.35763972926259685,-5.8020324700170205,-7.564622366181573
1621787317759.842,0.852,-0.415,0.133,0.34556919504439726,-5.8778601849775045,-7.4643440819073
1621787317761.061,0.8471061535839086,-0.41095725730844623,0.13512775931134408,0.343,-5.894,-7.443
1621787317765.571,0.829,-0.396,0.143,0.35981934181357544,-6.025385873007495,-7.476638683627151
1621787317771.299,0.787,-0.386,0.155,0.38118108043914284,-6.192255106618811,-7.519362160878286
1621787317777.027,0.735,-0.372,0.164,0.40254281906471023,-6.359124340230127,-7.562085638129421
1621787317779.563,0.7124205276842419,-0.3680153872383956,0.16798461276160437,0.412,-6.433,-7.581
1621787317782.755,0.684,-0.363,0.173,0.3290151227236738,-6.581889707046714,-7.699352652414886
1621787317788.484,0.63,-0.354,0.169,0.18006888361045129,-6.849125890736342,-7.911779097387173
1621787317794.211,0.583,-0.353,0.152,0.031173423066772232,-7.116270968593296,-8.124133122195829
1621787317798.064,0.562151027017813,-0.3516549049688911,0.13989414472002046,-0.069,-7.296,-8.267
1621787317799.94,0.552,-0.351,0.134,-0.15597816687703092,-7.400208717136182,-8.336850793565539
1621787317805.667,0.531,-0.356,0.11,-0.42150833848054353,-7.718340951204447,-8.550093885114268
1621787317811.228,0.52,-0.36,0.082,-0.6793413271745843,-8.027251174906679,-8.757155490506754
1621787317816.246,0.5326425025262511,-0.3753516102104477,0.04226642063178244,-0.912,-8.306,-8.944
1621787317816.785,0.534,-0.377,0.038,-0.9281967867111445,-8.328988018244944,-8.953135107903874
1621787317822.339,0.562,-0.394,0.012,-1.0951550548029139,-8.565951051807474,-9.047300810130029
1621787317827.89,0.599,-0.391,-0.012,-1.2620105793450882,-8.802768261964735,-9.141408564231737
1621787317833.438,0.649,-0.391,-0.028,-1.4287853768125809,-9.039470896589284,-9.235470787664237
1621787317834.177,0.6560649550819094,-0.3912666020785626,-0.029866214549938347,-1.451,-9.071,-9.248
1621787317838.982,0.702,-0.393,-0.042,-1.506303314691038,-9.134357195471287,-9.118869444823352
1621787317844.524,0.764,-0.394,-0.049,-1.5700899740826628,-9.207433174191788,-8.969930691583684
1621787317850.061,0.819,-0.394,-0.044,-1.6338204337743827,-9.280444768790069,-8.821123161915155
1621787317852.075,0.8361012747562966,-0.3936361430902916,-0.03672286180583124,-1.657,-9.307,-8.767
1621787317855.596,0.866,-0.393,-0.024,-1.5777571586730998,-9.177294055738557,-8.469346541284528
1621787317861.127,0.894,-0.387,-0.012,-1.453277435315665,-8.973543662780367,-8.001773451061329
1621787317866.656,0.901,-0.379,0.017,-1.3288416686029823,-8.769865218758115,-7.534365471618168
1621787317869.937,0.897437483432005,-0.37484373067067245,0.031843819033312716,-1.255,-8.649,-7.257
1621787317872.182,0.895,-0.372,0.042,-1.1932995768456514,-8.54536847294688,-7.077942853621462
1621787317877.703,0.864,-0.363,0.073,-1.0415547841091162,-8.290499157799596,-6.637573271435027
1621787317883.221,0.81,-0.337,0.101,-0.8898905139476603,-8.03576508771209,-6.197437369048108
1621787317887.765,0.7622220058422591,-0.3081684518013632,0.12571275559883155,-0.765,-7.826,-5.835
1621787317888.737,0.752,-0.302,0.131,-0.7451654042483122,-7.8018487842362365,-5.795330808496624
1621787317894.25,0.688,-0.272,0.157,-0.6326880042812448,-7.664892831659257,-5.57037600856249
1621787317899.758,0.611,-0.258,0.194,-0.5203102255886711,-7.528058181019815,-5.345620451177342
1621787317905.264,0.513,-0.253,0.208,-0.4079772764696196,-7.3912781162522645,-5.1209545529392395
1621787317905.557,0.5079948972800284,-0.2521480676221325,0.20863894928340063,-0.402,-7.384,-5.109
1621787317910.766,0.419,-0.237,0.22,-0.3731240091694976,-7.363963598199243,-5.120491465738669
1621787317916.266,0.333,-0.227,0.244,-0.34263620294418207,-7.3428087938796365,-5.13262436821609
1621787317921.698,0.251,-0.234,0.264,-0.31252597564006956,-7.321915983097191,-5.1446070096942575
1621787317923.236,0.22776844898142734,-0.23654980438008724,0.26881629716238703,-0.304,-7.316,-5.148
1621787317927.127,0.169,-0.243,0.281,-0.40642088020855116,-7.29422723153918,-5.287523455034642
1621787317932.551,0.101,-0.257,0.284,-0.549200869892518,-7.263874869307013,-5.482026347706077
1621787317937.971,0.044,-0.272,0.279,-0.6918716072100707,-7.233545732089833,-5.6763804106896405
1621787317940.749,0.022452750225428312,-0.281747565374211,0.2764348512173129,-0.765,-7.218,-5.776
1621787317943.386,0.002,-0.291,0.274,-0.7591132383973616,-7.211962295792166,-5.872301382114957
1621787317948.798,-0.023,-0.286,0.271,-0.7470312338415529,-7.1995704962477465,-6.069950584848442
1621787317954.205,-0.035,-0.284,0.271,-0.734960674706877,-7.187190435596797,-6.267412552231089
1621787317958.219,-0.035,-0.27954243108901944,0.2717429281518301,-0.726,-7.178,-6.414
1621787317959.608,-0.035,-0.278,0.272,-0.7118908910030965,-7.158470442348919,-6.431935308046911
1621787317965.006,-0.024,-0.267,0.271,-0.657054099118665,-7.082566408384593,-6.50164309434068
1621787317970.401,-0.017,-0.244,0.271,-0.6022520281915118,-7.0067104345023745,-6.5713067438243495
1621787317975.643,-0.009218175228775934,-0.243027271903597,0.271,-0.549,-6.933,-6.639
1621787317975.79,-0.009,-0.243,0.271,-0.5478414620441648,-6.928441956509524,-6.636429229645446
1621787317981.176,0.007,-0.234,0.274,-0.5053854722706075,-6.7614070770354555,-6.542220318031129
1621787317986.557,0.017,-0.234,0.271,-0.4629698966117885,-6.594531199078497,-6.448101084452436
1621787317991.934,0.019,-0.223,0.276,-0.42058318817778273,-6.4277688936337585,-6.354045906613474
1621787317993.023,0.017581102576921328,-0.22381079852747354,0.27660809889560517,-0.412,-6.394,-6.335
1621787317997.306,0.012,-0.227,0.279,-0.3902553383289199,-6.265508817398163,-6.240608400473266
1621787318002.675,-0.002,-0.216,0.284,-0.36299611245703983,-6.104431573609781,-6.1222785790748775
1621787318008.039,-0.017,-0.201,0.295,-0.33576291622063215,-5.943508141303735,-6.004061749957744
1621787318010.356,-0.023916279493486382,-0.19624505784822813,0.2962968024050287,-0.324,-5.874,-5.953
1621787318013.399,-0.033,-0.19,0.298,-0.3463706948939358,-5.8412366200765975,-5.925344888989387
1621787318018.754,-0.049,-0.178,0.309,-0.38573837957009005,-5.783580011023332,-5.876677751240125
1621787318024.106,-0.068,-0.161,0.319,-0.42508452635000493,-5.7259549456606225,-5.828037239079128
1621787318027.631,-0.07594260829704333,-0.14577666743066697,0.32959014439605777,-0.451,-5.688,-5.796
1621787318029.432,-0.08,-0.138,0.335,-0.47773337407791694,-5.681814631095698,-5.8124593714911095
1621787318034.754,-0.096,-0.12,0.339,-0.5567410776468582,-5.663534417328766,-5.861103330159047
1621787318040.071,-0.112,-0.084,0.337,-0.635676293758972,-5.645270975169493,-5.90970265929474
1621787318044.808,-0.1128914361848755,-0.060822659193237164,0.3494801065882569,-0.706,-5.629,-5.953
1621787318045.385,-0.113,-0.058,0.351,-0.7195386523003249,-5.632300467476198,-5.962564620033065
1621787318050.692,-0.119,-0.037,0.361,-0.8440793569351804,-5.662661136765292,-6.050548600421869
1621787318055.996,-0.122,-0.028,0.365,-0.9685570377971611,-5.693006442050054,-6.138488056553219
1621787318061.294,-0.129,-0.01,0.351,-1.0928857533778007,-5.723315432415484,-6.226322273530585
1621787318061.938,-0.12924325695052793,-0.0076890589699847856,0.3496620867720964,-1.108,-5.727,-6.237
1621787318066.589,-0.131,0.009,0.34,-1.278983078945864,-5.783086806151032,-6.30098252158006
1621787318071.879,-0.12,0.005,0.326,-1.4734448064940262,-5.8468752072257475,-6.373750843194421
1621787318077.164,-0.108,0.0,0.305,-1.66773600868919,-5.910607671640085,-6.44645535357
1621787318079.021,-0.10448375017336231,-0.001758124913318848,0.29726425038139703,-1.736,-5.933,-6.472
1621787318082.445,-0.098,-0.005,0.283,-1.7713785956916197,-5.956719740293245,-6.501549167992433
1621787318087.72,-0.079,-0.01,0.264,-1.8258805520918433,-5.99326082469794,-6.547070688394892
1621787318092.991,-0.066,-0.016,0.243,-1.8803421478837912,-6.02977484914936,-6.592558498516576
1621787318096.055,-0.05785442744552619,-0.028800185442744555,0.2296179879462216,-1.912,-6.051,-6.619
1621787318098.257,-0.052,-0.038,0.22,-1.9310588032369809,-6.072522185968292,-6.608887165629357
1621787318103.52,-0.037,-0.047,0.201,-1.9766076526138765,-6.1239583015911805,-6.584718388408963
1621787318108.776,-0.026,-0.068,0.176,-2.022095226459301,-6.175325221715944,-6.560582124735881
1621787318113.04,-0.018695785511825658,-0.08260842897634868,0.1524641977603271,-2.059,-6.217,-6.541
1621787318114.03,-0.017,-0.086,0.147,-2.063617918408534,-6.218169093267983,-6.539304814761425
1621787318119.277,-0.003,-0.115,0.119,-2.088093455384172,-6.224365431742828,-6.530320123972899
1621787318124.521,0.009,-0.131,0.093,-2.1125541876892027,-6.230558022199798,-6.521340867810292
1621787318129.76,0.021,-0.147,0.063,-2.1369921435779156,-6.236744846475422,-6.512369972610638
1621787318129.976,0.021495174150230802,-0.14790781927542312,0.061762064624423,-2.138,-6.237,-6.512
1621787318134.996,0.033,-0.169,0.033,-2.099965143501257,-6.27770918234631,-6.430284487990982
1621787318140.228,0.044,-0.178,0.007,-2.060324691465071,-6.320136853666291,-6.345119454319489
1621787318145.455,0.056,-0.195,-0.012,-2.020721234717766,-6.36252492846614,-6.2600339027139515
1621787318146.87,0.05789686287343962,-0.19743882369442237,-0.017690588620318855,-2.01,-6.374,-6.237
1621787318150.677,0.063,-0.204,-0.033,-1.9568941754467324,-6.36970633758931,-6.150674787321923
1621787318155.896,0.056,-0.208,-0.054,-1.8840895059491891,-6.363820002608658,-6.032328473500384
1621787318161.109,0.056,-0.204,-0.07,-1.8113699801452152,-6.357940551586209,-5.914120563470095
1621787318163.716,0.045487202325145325,-0.19949451528220513,-0.07600731295705981,-1.775,-6.355,-5.855
1621787318166.317,0.035,-0.195,-0.082,-1.7096536717251003,-6.333630821559393,-5.832082330368045
1621787318171.522,0.016,-0.192,-0.086,-1.5788751380894237,-6.290864381650096,-5.786216873074016
1621787318176.721,-0.01,-0.182,-0.098,-1.4482499563928135,-6.248148090005233,-5.740405197976626
1621787318180.512,-0.03481094036373889,-0.1688647962780206,-0.10164866770054984,-1.353,-6.217,-5.707
1621787318181.916,-0.044,-0.164,-0.103,-1.3259248338386194,-6.210461724580224,-5.705407343166978
1621787318187.106,-0.075,-0.147,-0.117,-1.2258441726912312,-6.186293639225746,-5.699520245452425
1621787318192.292,-0.112,-0.129,-0.12,-1.1258388380363806,-6.162143744169776,-5.693637578708022
1621787318197.262,-0.14845972569166233,-0.11268907008530896,-0.13055413112127068,-1.03,-6.139,-5.688
1621787318197.472,-0.15,-0.112,-0.131,-1.0272843296346652,-6.139,-5.688867505811149
1621787318202.649,-0.18,-0.098,-0.131,-0.9603241085917285,-6.139,-5.710257576422086
1621787318207.82,-0.206,-0.091,-0.14,-0.893439673698522,-6.139,-5.731623437568527
1621787318212.988,-0.234,-0.075,-0.14,-0.8265962896364194,-6.139,-5.752976185255032
1621787318213.962,-0.23890628695775581,-0.07235815317659303,-0.14,-0.814,-6.139,-5.757
1621787318218.149,-0.26,-0.061,-0.14,-0.8484433042585942,-6.121652642380709,-5.786415084658799
1621787318223.308,-0.281,-0.056,-0.145,-0.8908838818441691,-6.100277460968996,-5.822659957487356
1621787318228.46,-0.309,-0.058,-0.154,-0.9332642087517408,-6.078932624789269,-5.8588533753573255
1621787318230.616,-0.3198869606448554,-0.05130033191085823,-0.154,-0.951,-6.07,-5.874
1621787318233.609,-0.335,-0.042,-0.154,-0.9686191886897603,-6.062988282052034,-5.9392629132079895
1621787318238.768,-0.363,-0.049,-0.157,-0.9989910538820285,-6.050901519373478,-6.051762781216086
1621787318243.924,-0.393,-0.051,-0.168,-1.0293442348869268,-6.038822192238876,-6.164193441468924
1621787318247.263,-0.4040217123352612,-0.05164833601972124,-0.1667033279605575,-1.049,-6.031,-6.237
1621787318249.074,-0.41,-0.052,-0.166,-1.0576135371499962,-6.049208363342397,-6.2743980157272
1621787318254.22,-0.435,-0.068,-0.176,-1.0820886161534504,-6.1009468214889395,-6.380663232159918
1621787318259.363,-0.459,-0.075,-0.176,-1.106549761152348,-6.152655824208129,-6.486867950319689
1621787318263.873,-0.4739280315634358,-0.08465931454104672,-0.17951247801492606,-1.128,-6.198,-6.58
1621787318264.499,-0.476,-0.086,-0.18,-1.1309480821958193,-6.209867920634453,-6.594097880244111
1621787318269.633,-0.489,-0.094,-0.171,-1.1551271853533418,-6.307204310268581,-6.709723591497391
1621787318274.76,-0.501,-0.113,-0.176,-1.1792729443674637,-6.4044064683510715,-6.825189849346974
1621787318279.884,-0.503,-0.131,-0.169,-1.203404905805006,-6.501553082343229,-6.940590126477786
1621787318280.435,-0.5018159011780416,-0.13304526160156438,-0.16921529069490152,-1.206,-6.512,-6.953
1621787318285.003,-0.492,-0.15,-0.171,-1.1844258999186932,-6.596083672111759,-7.0722107325005545
1621787318290.118,-0.482,-0.164,-0.166,-1.1602677507576318,-6.690238509867691,-7.205699992608471
1621787318295.228,-0.463,-0.178,-0.154,-1.1361326631680093,-6.784303466627245,-7.339061822751128
1621787318296.95,-0.45456904465908005,-0.18373304963182557,-0.1516393325045424,-1.128,-6.816,-7.384
1621787318300.334,-0.438,-0.195,-0.147,-1.115876736291267,-6.840041048371555,-7.424479372044414
1621787318305.435,-0.408,-0.209,-0.138,-1.097602191025394,-6.876280400847947,-7.4854977689491085
1621787318310.532,-0.372,-0.222,-0.129,-1.0793425144907125,-6.912490267874349,-7.546466519412367
1621787318313.419,-0.3532904540442058,-0.23050433907081555,-0.12729913218583688,-1.069,-6.933,-7.581
1621787318315.624,-0.339,-0.237,-0.126,-1.0347578686014183,-6.930448625503635,-7.575628685270811
1621787318320.712,-0.297,-0.244,-0.126,-0.9557492306091196,-6.924561707378719,-7.563235173428882
1621787318325.795,-0.265,-0.239,-0.119,-0.8768164166456044,-6.9186804388873195,-7.550853555552252
1621787318329.84,-0.23633391003460208,-0.2461665224913495,-0.10864835640138408,-0.814,-6.914,-7.541
1621787318330.875,-0.229,-0.248,-0.106,-0.8034440600629259,-6.9065413119007495,-7.525513740810879
1621787318335.949,-0.195,-0.239,-0.103,-0.7516903210414088,-6.86997280169393,-7.449587596737397
1621787318341.019,-0.164,-0.241,-0.093,-0.6999764251524686,-6.833432444119708,-7.373719905163801
1621787318346.085,-0.133,-0.227,-0.091,-0.6483048625918912,-6.796921998717624,-7.297914319371338
1621787318346.213,-0.13231737913731545,-0.22682302422078549,-0.09077245971243848,-0.647,-6.796,-7.296
1621787318351.145,-0.106,-0.22,-0.082,-0.6173977870813397,-6.718973833732058,-7.162790041866029
1621787318356.202,-0.08,-0.204,-0.077,-0.5870468002392345,-6.63999932715311,-7.0262106010765555
1621787318361.254,-0.065,-0.182,-0.079,-0.5567251196172249,-6.561101076555024,-6.889763038277512
1621787318362.541,-0.061430429946317165,-0.1791953378149635,-0.07721521497315859,-0.549,-6.541,-6.855
1621787318366.302,-0.051,-0.171,-0.072,-0.5217430987689493,-6.5116641825733605,-6.7395046558006335
1621787318371.344,-0.049,-0.154,-0.066,-0.48520239612541427,-6.472336477185827,-6.584671170022942
1621787318376.383,-0.038,-0.131,-0.061,-0.4486829257321078,-6.433031623457438,-6.429927651407237
1621787318378.823,-0.035576507105097244,-0.12227542557835007,-0.05954590426305834,-0.431,-6.414,-6.355
1621787318381.417,-0.033,-0.113,-0.058,-0.4404275423346467,-6.379485607724005,-6.303228411586008
1621787318386.447,-0.038,-0.091,-0.051,-0.4587085451318916,-6.3125585466357865,-6.20283781995368
1621787318391.472,-0.047,-0.068,-0.04,-0.47697091466899266,-6.245699702228773,-6.102549553343159
1621787318395.057,-0.05485546153097948,-0.045861881139966934,-0.03857173426709464,-0.49,-6.198,-6.031
1621787318396.492,-0.058,-0.037,-0.038,-0.4917730988507134,-6.194542457241109,-6.013623631263008
1621787318401.509,-0.073,-0.017,-0.033,-0.49797200687762055,-6.18245458658864,-5.952874332599318
1621787318406.52,-0.091,0.003,-0.035,-0.5041633736538867,-6.170381421374921,-5.8921989381919095
1621787318411.244,-0.1117556682432103,0.01998191038080843,-0.023678726412794383,-0.51,-6.159,-5.835
1621787318411.527,-0.113,0.021,-0.023,-0.5124032906874755,-6.163122432931071,-5.837403290687475
1621787318416.53,-0.129,0.044,-0.019,-0.5548586637631189,-6.235947342951335,-5.879858663763119
1621787318421.528,-0.148,0.063,-0.019,-0.5972726007924266,-6.308701176541754,-5.922272600792427
1621787318426.521,-0.161,0.087,-0.012,-0.6396430299730818,-6.3813803798808335,-5.964643029973082
1621787318427.388,-0.16065252703165517,0.09030099319927588,-0.012,-0.647,-6.394,-5.972
1621787318431.511,-0.159,0.106,-0.012,-0.656989261989262,-6.544607334607335,-6.049865016531683
1621787318436.495,-0.147,0.131,-0.012,-0.6690647465647466,-6.726668486668487,-6.143991870658537
1621787318441.476,-0.122,0.154,-0.009,-0.6811325416325417,-6.908613704613705,-6.238058786058786
1621787318443.485,-0.10948103253668351,0.16005756490160475,-0.01021151298032095,-0.686,-6.982,-6.276
1621787318446.451,-0.091,0.169,-0.012,-0.7095063340891913,-7.052335359032502,-6.378656568405139
1621787318451.423,-0.04,0.187,-0.012,-0.7489144671201814,-7.170251882086168,-6.550759274376417
1621787318456.389,0.014,0.202,-0.019,-0.788272290249433,-7.2880178684807255,-6.722642267573696
1621787318459.635,0.052658531935176354,0.20770371782650143,-0.02470371782650143,-0.814,-7.365,-6.835
1621787318461.511,0.075,0.211,-0.028,-0.8452173142266213,-7.309262904417197,-6.885174737775151
1621787318466.63,0.138,0.213,-0.042,-0.9303986556359876,-7.1571754912099275,-7.022084384694933
1621787318471.746,0.194,0.204,-0.052,-1.0155353080218643,-7.00516786822278,-7.158922204166052
1621787318476.161,0.23459131722227528,0.21004551533097715,-0.06754561085108415,-1.089,-6.874,-7.277
1621787318476.858,0.241,0.211,-0.07,-1.0976630402605092,-6.836727797513321,-7.255025458851391
1621787318481.969,0.278,0.213,-0.087,-1.1611869449378331,-6.5634200710479575,-7.093891651865009
1621787318487.076,0.286,0.206,-0.108,-1.224659265837774,-6.290334280639431,-6.932888691533451
1621787318492.179,0.281,0.211,-0.138,-1.2880830373001777,-6.017457371225577,-6.772008880994671
1621787318492.655,0.2779207579672696,0.210533448176859,-0.1401461383864485,-1.294,-5.992,-6.757
1621787318497.281,0.248,0.206,-0.161,-1.294,-5.992,-6.481361053443265
1621787318502.379,0.204,0.201,-0.176,-1.294,-5.992,-6.177602512011388
1621787318507.475,0.154,0.206,-0.201,-1.294,-5.992,-5.873945800462661
1621787318509.119,0.13914969313387035,0.21116532412734942,-0.20261416378979671,-1.294,-5.992,-5.776
1621787318512.567,0.108,0.222,-0.206,-1.3063779226952672,-6.084519727264625,-5.784182016696872
1621787318517.657,0.07,0.234,-0.206,-1.3246507620547254,-6.2211014587480316,-5.796260673222615
1621787318522.743,0.031,0.236,-0.201,-1.3429087019816395,-6.357571823286491,-5.808329480970914
1621787318525.554,0.018835766423357665,0.23102372262773724,-0.20155291970802922,-1.353,-6.433,-5.815
1621787318527.827,0.009,0.227,-0.202,-1.4440340670625529,-6.427596151270259,-5.98487483442723
1621787318532.907,-0.003,0.201,-0.209,-1.647496673661651,-6.415518462294057,-6.364547826345791
1621787318537.986,-0.014,0.176,-0.215,-1.8509201678796265,-6.403443095057374,-6.744147832298969
1621787318541.958,-0.01947962276860896,0.15173309916758887,-0.2259592455372179,-2.01,-6.394,-7.041
1621787318543.06,-0.021,0.145,-0.229,-2.0113460964990755,-6.388682918828652,-7.134082572911075
1621787318548.133,-0.017,0.106,-0.255,-2.017542494185006,-6.364207147969226,-7.562563472893183
1621787318553.203,-0.005,0.075,-0.265,-2.023735015208445,-6.339746689926642,-7.990776301663983
1621787318558.268,0.017,0.049,-0.278,-2.0299218703405497,-6.315308612154828,-8.418597334049025
1621787318558.332,0.017429466782373927,0.04853263908976955,-0.2780631568797609,-2.03,-6.315,-8.424
1621787318563.332,0.051,0.012,-0.283,-1.9639127836622494,-6.369154802276768,-8.510892451110745
1621787318568.392,0.084,-0.03,-0.302,-1.8970317462688797,-6.423960096807446,-8.598828629905732
1621787318573.45,0.105,-0.087,-0.33,-1.830179751109252,-6.47874159284103,-8.686726623541539
1621787318574.674,0.1120241051156949,-0.10104821023138978,-0.3329065262547703,-1.814,-6.492,-8.708
1621787318578.504,0.134,-0.145,-0.342,-1.7057700769253794,-6.503503831302942,-8.56079791373582
1621787318583.556,0.157,-0.176,-0.335,-1.5630020653117422,-6.518678739261876,-8.366621030261307
1621787318588.605,0.173,-0.197,-0.319,-1.4203168457601245,-6.533844847196863,-8.172556751174833
1621787318590.987,0.1763045771240565,-0.2088020611573447,-0.31427917553706214,-1.353,-6.541,-8.081
1621787318593.651,0.18,-0.222,-0.309,-1.1749974509304104,-6.484883387563539,-7.946189245925237
1621787318598.693,0.176,-0.251,-0.304,-0.838063471832781,-6.378662473197283,-7.691011305873356
1621787318603.734,0.173,-0.248,-0.302,-0.5012273770073922,-6.272472417567588,-7.435907498762951
1621787318607.269,0.17510546723536252,-0.24519271035284992,-0.2935781310585498,-0.265,-6.198,-7.257
1621787318608.771,0.176,-0.244,-0.29,-0.1011104023773432,-6.228746611835687,-7.1646678323252635
1621787318613.805,0.169,-0.239,-0.272,0.44818082216452293,-6.33179674015819,-6.855207987512944
1621787318618.836,0.164,-0.211,-0.236,0.997152366086839,-6.4347868945954465,-6.545928244458119
1621787318623.536,0.164,-0.1737369949189451,-0.1978054197919187,1.51,-6.531,-6.257
1621787318623.881,0.164,-0.171,-0.195,1.5249732867363621,-6.525188837725548,-6.257
1621787318628.924,0.166,-0.134,-0.148,1.7437061091029085,-6.4402981956172844,-6.257
1621787318633.963,0.161,-0.082,-0.11,1.962258913170644,-6.355477418967767,-6.257
1621787318639.0,0.168,-0.026,-0.068,2.1807375920565164,-6.270685410448321,-6.257
1621787318639.813,0.16848459859325735,-0.01760029105020616,-0.06315401406742663,2.216,-6.257,-6.257
1621787318644.033,0.171,0.026,-0.038,2.216,-6.178030357679591,-6.35623159002104
1621787318649.064,0.182,0.07,0.0,2.216,-6.083883558761647,-6.474534475503456
1621787318654.093,0.187,0.12,0.037,2.216,-5.989773309287647,-6.592791433724076
1621787318656.058,0.1881734376518612,0.13721041889396443,0.04912552240256585,2.216,-5.953,-6.639
1621787318659.117,0.19,0.164,0.068,2.1069767252800196,-5.884530365530531,-6.664841156810791
1621787318664.14,0.204,0.199,0.099,1.9279484824762134,-5.772095673250632,-6.707275186679514
1621787318669.159,0.202,0.227,0.133,1.7490594664579069,-5.659748419246055,-6.7496762164277975
1621787318672.275,0.19578929440389295,0.237558199513382,0.14604248175182483,1.638,-5.59,-6.776
1621787318674.176,0.192,0.244,0.154,1.6114552776856013,-5.52892364777218,-6.74499200579203
1621787318679.189,0.162,0.265,0.171,1.5414613412169296,-5.3678756523575375,-6.6632291773507495
1621787318684.2,0.127,0.278,0.187,1.4714946755558236,-5.206890403933754,-6.581498205074059
1621787318688.461,0.08445868473650855,0.2950165261053966,0.21167396285282503,1.412,-5.07,-6.512
1621787318689.208,0.077,0.298,0.216,1.4065438885447044,-5.085859713806495,-6.502891068163616
1621787318694.213,0.016,0.314,0.25,1.3699915078801432,-5.192109430483991,-6.441867178410069
1621787318699.215,-0.044,0.325,0.269,1.3334587406881337,-5.298302135118392,-6.380876033182732
1621787318704.215,-0.096,0.335,0.291,1.2969420208827573,-5.404448193535714,-6.319911678931383
1621787318704.618,-0.10091863363143234,0.3372577334701657,0.2922901334115232,1.294,-5.413,-6.315
1621787318709.211,-0.157,0.363,0.307,1.2635264544257232,-5.63656760070848,-6.516353240383306
1621787318714.205,-0.206,0.382,0.321,1.2303915557775862,-5.879660081444813,-6.735291309020997
1621787318719.195,-0.239,0.401,0.321,1.1972841939537067,-6.122550539685424,-6.954047428735789
1621787318720.745,-0.24241627941104535,0.40317399598884707,0.31944714572225213,1.187,-6.198,-7.022
1621787318724.186,-0.25,0.408,0.316,1.1199365661463858,-6.394918745264435,-7.279574844673435
1621787318729.176,-0.236,0.405,0.307,1.0226817396575238,-6.680488649795424,-7.653107713289892
1621787318734.161,-0.202,0.415,0.288,0.925526837399606,-6.965765146234278,-8.026256796484315
1621787318736.856,-0.1722540296898731,0.4144591641761795,0.27123408946156485,0.873,-7.12,-8.228
1621787318739.144,-0.147,0.414,0.257,0.807390876510964,-7.182762740691247,-8.321503674907367
1621787318744.125,-0.077,0.403,0.223,0.6645657231367308,-7.319391575047075,-8.525052754661969
1621787318749.103,0.012,0.384,0.188,0.521824576322663,-7.455940047378971,-8.728482111401323
1621787318752.933,0.08900387768124478,0.36936926324056346,0.1602786040347519,0.412,-7.561,-8.885
1621787318754.077,0.112,0.365,0.152,0.40572824631860777,-7.548385222709018,-8.835396129974443
1621787318759.049,0.199,0.358,0.105,0.37846452476572956,-7.493547964585615,-8.619764877692589
1621787318764.018,0.284,0.337,0.072,0.3512182061579652,-7.438745710113181,-8.404271266885726
1621787318768.982,0.3419771878072763,0.3250047197640118,0.03301533923303835,0.324,-7.384,-8.189
1621787318768.984,0.342,0.325,0.033,0.323992805536079,-7.3839139103130815,-8.188830137487425
1621787318773.946,0.387,0.311,0.007,0.305714370636832,-7.165192299484803,-7.757273191476389
1621787318778.907,0.417,0.297,-0.016,0.2874404322775356,-6.946524494710849,-7.325822409535713
1621787318783.863,0.412,0.291,-0.047,0.26918448007804163,-6.728071914154193,-6.894796283876475
1621787318784.999,0.4051222901064249,0.28870743003547494,-0.052960681907765074,0.265,-6.678,-6.796
1621787318788.818,0.382,0.281,-0.073,0.28841086999679305,-6.554017943588412,-6.5358526793213505
1621787318793.77,0.34,0.274,-0.093,0.31876583235343525,-6.3932605409037455,-6.198540903746011
1621787318798.718,0.291,0.264,-0.112,0.349096849564009,-6.2326299497579525,-5.8614952124979
1621787318800.986,0.2639448640110568,0.2580386988498939,-0.1188784244039686,0.363,-6.159,-5.707
1621787318803.664,0.232,0.251,-0.127,0.3777685434516524,-6.162188662790697,-5.651114488984088
1621787318808.607,0.161,0.237,-0.14,0.40502753977968176,-6.168074127906976,-5.54796396878825
1621787318813.547,0.096,0.237,-0.147,0.4322717258261934,-6.173956395348837,-5.444869492044063
1621787318816.943,0.04646149280308651,0.22530340802295099,-0.1518162437552555,0.451,-6.178,-5.374
1621787318818.483,0.024,0.22,-0.154,0.4443495881534912,-6.18561423965035,-5.42787797423476
1621787318823.434,-0.024,0.211,-0.155,0.4229653559912588,-6.210097635894066,-5.601121246389657
1621787318828.381,-0.07,0.195,-0.168,0.4015990494674267,-6.234560508580772,-5.774219294894325
1621787318832.919,-0.0892754074074074,0.17939609876543208,-0.17442513580246913,0.382,-6.257,-5.933
1621787318833.325,-0.091,0.178,-0.175,0.381516392188074,-6.264737724990816,-5.949468118648218
1621787318838.267,-0.113,0.168,-0.185,0.37562963756581363,-6.358925798946982,-6.149927604995715
1621787318843.206,-0.117,0.138,-0.194,0.3697466634014938,-6.453053385576099,-6.350258356801763
1621787318848.141,-0.12,0.117,-0.208,0.36386834210848534,-6.547106526264234,-6.550430666095261
1621787318848.87,-0.11793141669553169,0.11389712504329755,-0.208,0.363,-6.561,-6.58
1621787318853.075,-0.106,0.096,-0.208,0.3862414892964485,-6.633365546218488,-6.678512221676992
1621787318858.006,-0.077,0.073,-0.22,0.413497577133043,-6.718231092436975,-6.794040866711648
1621787318862.933,-0.044,0.061,-0.225,0.4407307244065509,-6.803025210084034,-6.909472275041404
1621787318864.791,-0.02928703152885187,0.04930507634344636,-0.22650902240729726,0.451,-6.835,-6.953
1621787318867.858,-0.005,0.03,-0.229,0.48882979181070907,-6.808557747560882,-6.95859726511485
1621787318872.779,0.038,0.005,-0.237,0.5495315203195821,-6.7661284781439655,-6.967578643312591
1621787318877.699,0.08,-0.021,-0.248,0.6102181915956058,-6.723709733425521,-6.976557793654452
1621787318880.681,0.10001698450536353,-0.03252493047278506,-0.2540657528804132,0.647,-6.698,-6.982
1621787318882.615,0.113,-0.04,-0.258,0.6984518507118123,-6.668128664871104,-6.928231596767988
1621787318887.529,0.14,-0.061,-0.258,0.8291792997306656,-6.592232397075799,-6.7916183147364375
1621787318892.44,0.15,-0.075,-0.258,0.9598223162754905,-6.516385148133898,-6.655093266641016
1621787318896.544,0.1541818000895567,-0.08838176028658142,-0.2571636399820887,1.069,-6.453,-6.541
1621787318897.347,0.155,-0.091,-0.257,1.0844175044717201,-6.446001264417443,-6.51315720409548
1621787318902.252,0.152,-0.101,-0.241,1.1785960032073028,-6.40324918275458,-6.343078270523654
1621787318907.154,0.127,-0.108,-0.227,1.2727182507864059,-6.360522636156172,-6.173100922099549
1621787318912.054,0.101,-0.112,-0.218,1.3667983099981496,-6.3178152408561035,-6.003199762536236
1621787318912.377,0.09961459060536552,-0.11186805624813005,-0.21674653435723545,1.373,-6.315,-5.992
1621787318916.95,0.08,-0.11,-0.199,1.3954886172980128,-6.30952200347869,-5.963745070574292
1621787318921.869,0.042,-0.105,-0.188,1.419678498314529,-6.30362959656441,-5.933352655963797
1621787318926.784,0.005,-0.119,-0.166,1.4438491695784015,-6.297741868948851,-5.9029843766835475
1621787318928.238,-0.003582985489962235,-0.1172242098986285,-0.16333631484794275,1.451,-6.296,-5.894
1621787318931.697,-0.024,-0.113,-0.157,1.4767433402112655,-6.321743340211266,-5.968830217732746
1621787318936.606,-0.037,-0.117,-0.138,1.5132778787225525,-6.358277878722553,-6.075028071201996
1621787318941.514,-0.049,-0.113,-0.126,1.5498051492100644,-6.394805149210065,-6.18120479812756
1621787318944.093,-0.049,-0.113,-0.11495804091384201,1.569,-6.414,-6.237
1621787318946.419,-0.049,-0.113,-0.105,1.5819341088261158,-6.4441305944244744,-6.301817522639967
1621787318951.321,-0.04,-0.113,-0.089,1.6091938937657169,-6.507633502522408,-6.438426217621377
1621787318956.22,-0.024,-0.117,-0.075,1.6364360295592342,-6.571095296132307,-6.5749464663138895
1621787318959.918,-0.005872544130846712,-0.12228717462850304,-0.06291502942056447,1.657,-6.619,-6.678
1621787318961.116,0.0,-0.124,-0.059,1.657,-6.624990341971474,-6.6943786565296
1621787318966.011,0.023,-0.122,-0.047,1.657,-6.649466876825367,-6.761301840433916
1621787318970.902,0.045,-0.122,-0.031,1.657,-6.67392387928237,-6.828171619303695
1621787318975.717,0.0715914606741573,-0.1269243445692884,-0.012287490636704118,1.657,-6.698,-6.894
1621787318975.791,0.072,-0.127,-0.012,1.655667884454627,-6.697263584011889,-6.893817068639896
1621787318980.676,0.087,-0.136,-0.009,1.5676998978296541,-6.648633394222732,-6.881736957800551
1621787318985.56,0.103,-0.131,0.0,1.4797494968884486,-6.600012926096784,-6.869659261896653
1621787318990.441,0.12,-0.133,0.007,1.3918562494194866,-6.551424053376266,-6.857589414532958
1621787318991.488,0.12150287831005656,-0.13407348450718326,0.009146969014366523,1.373,-6.541,-6.855
1621787318995.318,0.127,-0.138,0.017,1.303905944202348,-6.524213063908317,-6.8119378595909
1621787319000.194,0.14,-0.138,0.019,1.215944031760309,-6.502842035885427,-6.757116526836531
1621787319005.066,0.148,-0.14,0.026,1.1280569917652714,-6.481489198703534,-6.702341857543849
1621787319007.231,0.15066680032076984,-0.14311126704089816,0.030889133921411387,1.089,-6.472,-6.678
1621787319009.937,0.154,-0.147,0.037,1.0399275627980675,-6.455125968962143,-6.654410793345036
1621787319014.803,0.15,-0.162,0.04,0.9516866077392696,-6.424783465117363,-6.611993211439579
1621787319019.668,0.148,-0.169,0.044,0.8634633619685272,-6.39444705078216,-6.569584142419959
1621787319022.947,0.1412558373085614,-0.17169766507657544,0.044,0.804,-6.374,-6.541
1621787319024.53,0.138,-0.173,0.044,0.7822030068166963,-6.381972048432782,-6.5469538083232175
1621787319029.389,0.126,-0.188,0.049,0.7152992809786162,-6.406441466679117,-6.5652284371401
1621787319034.246,0.112,-0.18,0.047,0.648419086749463,-6.430902278457372,-6.583496638341582
1621787319038.634,0.10386414847600844,-0.18903983502665728,0.047,0.588,-6.453,-6.6
1621787319039.1,0.103,-0.19,0.047,0.5824639922667956,-6.4556191864544195,-6.611369650290774
1621787319043.951,0.091,-0.194,0.045,0.5248448525857903,-6.482879854690594,-6.729705732861442
1621787319048.799,0.08,-0.192,0.038,0.46725761237312713,-6.5101254307051875,-6.847976301470244
1621787319053.646,0.08,-0.197,0.026,0.4096848719188014,-6.537364146619062,-6.966217091005473
1621787319054.293,0.07986638430897998,-0.19726723138204005,0.023461301870619674,0.402,-6.541,-6.982
1621787319058.488,0.079,-0.199,0.007,0.3966320738507677,-6.598973602411709,-7.045341528560941
1621787319063.329,0.077,-0.197,-0.007,0.3904375439308977,-6.665874525546305,-7.118436981615408
1621787319068.167,0.086,-0.194,-0.026,0.3842470751784571,-6.732731588072664,-7.191484512894206
1621787319069.923,0.09326418905271662,-0.19145753383154918,-0.028542466168450818,0.382,-6.757,-7.218
1621787319073.002,0.106,-0.187,-0.033,0.4189025428370237,-6.795678601048431,-7.2217494562240825
1621787319077.834,0.131,-0.182,-0.051,0.47681826148188716,-6.856381707221657,-7.227633941006181
1621787319082.665,0.152,-0.175,-0.059,0.5347222752523276,-6.917072545184258,-7.233517236522964
1621787319085.525,0.16148166135478323,-0.17085177315728234,-0.06966686902413112,0.569,-6.953,-7.237
1621787319087.491,0.168,-0.168,-0.077,0.5912151724137931,-6.913366112852665,-7.2395244514106585
1621787319092.316,0.18,-0.157,-0.082,0.6457337931034483,-6.816099937304076,-7.245719749216301
1621787319097.138,0.194,-0.143,-0.093,0.7002193103448275,-6.718892821316615,-7.251911285266457
1621787319101.101,0.20057905668980192,-0.12984188662039617,-0.10533573129337859,0.745,-6.639,-7.257
1621787319101.957,0.202,-0.127,-0.108,0.7606911118090453,-6.620115609296483,-7.248356124371859
1621787319106.774,0.215,-0.131,-0.119,0.8489927763819096,-6.513843781407036,-7.199712751256281
1621787319111.587,0.218,-0.122,-0.126,0.9372228329145729,-6.40765813442211,-7.151108825376884
1621787319116.399,0.213,-0.11,-0.126,1.025434987437186,-6.301494032663316,-7.102514761306533
1621787319116.648,0.21315537727226566,-0.10974103787955723,-0.126,1.03,-6.296,-7.1
1621787319121.207,0.216,-0.105,-0.126,1.07024948868821,-6.212269311852994,-6.935770334476574
1621787319126.013,0.211,-0.106,-0.113,1.1126780623643058,-6.124005490701992,-6.76264936597338
1621787319130.815,0.204,-0.108,-0.112,1.1550721500267456,-6.035813410528303,-6.589669110474812
1621787319132.166,0.1961204169844902,-0.10603010424612255,-0.10890444952962115,1.167,-6.011,-6.541
1621787319135.616,0.176,-0.101,-0.101,1.1496277365360064,-5.98494160480401,-6.460152158494492
1621787319140.415,0.143,-0.098,-0.089,1.1254619603763771,-5.948692940564566,-6.347688354059294
1621787319145.209,0.105,-0.108,-0.075,1.1013220010402383,-5.912483001560358,-6.235344697148801
1621787319147.656,0.0810044315403423,-0.1069789119804401,-0.06683129584352078,1.089,-5.894,-6.178
1621787319150.002,0.058,-0.106,-0.059,0.9981300895154797,-5.911749214568763,-6.195900917257385
1621787319154.791,0.017,-0.115,-0.049,0.8126264820574352,-5.947982807344374,-6.232444198860138
1621787319159.579,-0.021,-0.131,-0.042,0.6271607015992802,-5.984209011540709,-6.268980028733364
1621787319163.12,-0.0432056647103853,-0.14284302117887215,-0.04348037764735902,0.49,-6.011,-6.296
1621787319164.363,-0.051,-0.147,-0.044,0.4561002609727165,-6.029197959667853,-6.336260972716489
1621787319169.145,-0.061,-0.15,-0.037,0.32567516014234876,-6.099212384341637,-6.491160142348755
1621787319173.923,-0.065,-0.161,-0.042,0.19535659944642153,-6.16916961644919,-6.645932779754844
1621787319178.556,-0.05821108044567107,-0.17748737606051312,-0.04393969130123684,0.069,-6.237,-6.796
1621787319178.7,-0.058,-0.178,-0.044,0.06753198941346139,-6.23681299228197,-6.80086220066879
1621787319183.473,-0.044,-0.182,-0.051,0.018888587774766645,-6.23061638060825,-6.961974104185487
1621787319188.245,-0.026,-0.195,-0.052,-0.029747349403318593,-6.224420719821233,-7.123061284647934
1621787319193.013,-0.005,-0.206,-0.063,-0.07833849981774671,-6.218230764354427,-7.2840001267848935
1621787319193.961,-0.0012208277840385206,-0.20838684561008092,-0.06399451900420039,-0.088,-6.217,-7.316
1621787319197.779,0.014,-0.218,-0.068,-0.1319402352492976,-6.156178770417639,-7.332880994333063
1621787319202.542,0.033,-0.241,-0.082,-0.18675384542121054,-6.080306824134483,-7.353939330444307
1621787319207.302,0.052,-0.262,-0.093,-0.2415337397018906,-6.004481546740322,-7.374984713557788
1621787319209.341,0.061856637077325666,-0.264142747190723,-0.09728549438144594,-0.265,-5.972,-7.384
1621787319212.06,0.075,-0.267,-0.103,-0.27881564005916315,-5.918154428487364,-7.319881260238243
1621787319216.814,0.075,-0.278,-0.115,-0.3029709909823942,-5.824010496684003,-7.207775657235556
1621787319221.567,0.068,-0.29,-0.134,-0.3271213798368243,-5.729885904225711,-7.095693083321406
1621787319224.692,0.06207772979642196,-0.29460621015833843,-0.13860621015833846,-0.343,-5.668,-7.022
1621787319226.316,0.059,-0.297,-0.141,-0.3544455773642621,-5.638962146316595,-6.993915944430283
1621787319231.063,0.044,-0.307,-0.15,-0.3879013510068825,-5.554083609482539,-6.911825388733113
1621787319235.807,0.026,-0.304,-0.154,-0.4213347565638542,-5.469261821310222,-6.829789717690542
1621787319240.016,0.007360121499176277,-0.2960114806425041,-0.16908942545304778,-0.451,-5.394,-6.757
1621787319240.549,0.005,-0.295,-0.171,-0.45647039200663986,-5.394,-6.7508327427695844
1621787319245.289,-0.002,-0.29,-0.188,-0.5051225499585009,-5.394,-6.6959828576900975
1621787319250.025,-0.021,-0.291,-0.204,-0.5537321075145247,-5.394,-6.641180999808466
1621787319254.759,-0.033,-0.276,-0.22,-0.602324123731086,-5.394,-6.586398917831833
1621787319255.312,-0.03487054815732425,-0.27459708888200685,-0.22140291111799318,-0.608,-5.394,-6.58
1621787319259.489,-0.049,-0.264,-0.232,-0.5973311534648715,-5.468955485913466,-6.5504555019027215
1621787319264.218,-0.068,-0.244,-0.237,-0.5852523903936554,-5.5538165392856005,-6.517006619551662
1621787319268.943,-0.082,-0.218,-0.241,-0.5731836046176969,-5.638607495762847,-6.483585366633623
1621787319270.581,-0.0875489273714138,-0.20655533729645903,-0.2416936159214267,-0.569,-5.668,-6.472
1621787319273.666,-0.098,-0.185,-0.243,-0.5034099713228344,-5.753428987968407,-6.493863342892389
1621787319278.386,-0.113,-0.166,-0.236,-0.4030576427049456,-5.884134798699114,-6.527314119098352
1621787319283.104,-0.129,-0.141,-0.225,-0.30274683990451623,-6.014786523334241,-6.560751053365161
1621787319285.82,-0.13994696773525298,-0.1271722512817857,-0.2111722512817857,-0.245,-6.09,-6.58
1621787319287.818,-0.148,-0.117,-0.201,-0.1728994800693241,-6.172475640284999,-6.6212378201424995
1621787319292.531,-0.175,-0.099,-0.187,-0.0028324667822068605,-6.367014956030554,-6.718507478015277
1621787319297.241,-0.202,-0.073,-0.15,0.16712882726747536,-6.561433339752231,-6.815716669876116
1621787319301.034,-0.2261792903091928,-0.05365656775264578,-0.12179082797260843,0.304,-6.718,-6.894
1621787319301.947,-0.232,-0.049,-0.115,0.319934595967716,-6.76279726036207,-6.930559374899515
1621787319306.652,-0.248,-0.031,-0.075,0.402044631660182,-6.993634907874851,-7.118947683205247
1621787319311.353,-0.26,-0.03,-0.023,0.48408223737097655,-7.224268931476896,-7.307169812534165
1621787319316.052,-0.265,-0.024,0.019,0.5660857583845139,-7.4548071320621245,-7.495313739991639
1621787319316.219,-0.26396875487392774,-0.024391161944372238,0.020173485833116712,0.569,-7.463,-7.502
1621787319320.748,-0.236,-0.035,0.052,0.5397166535122335,-7.624058405682716,-7.639751252355717
1621787319325.442,-0.19,-0.031,0.089,0.5093677979479084,-7.790977111286504,-7.7825147463879
1621787319330.133,-0.127,-0.033,0.12,0.4790363062352012,-7.957800315706393,-7.925196559444615
1621787319331.376,-0.1071153525674409,-0.032204614102697635,0.1274236017081554,0.471,-8.002,-7.963
1621787319334.821,-0.052,-0.03,0.148,0.4284208606974005,-7.948491455956627,-7.940685798654253
1621787319339.507,0.026,-0.033,0.171,0.37050405821890176,-7.875708308456909,-7.910333677569264
1621787319344.189,0.11,-0.024,0.185,0.31263855227276394,-7.802989624513901,-7.880008439158988
1621787319346.506,0.15060003130053734,-0.020039021336532944,0.18846585633053367,0.284,-7.767,-7.865
1621787319348.869,0.192,-0.016,0.192,0.25646167526231545,-7.681099202948928,-7.6946066156855775
1621787319353.546,0.253,0.0,0.197,0.20195127156322246,-7.511063909592098,-7.357323492797439
1621787319358.222,0.295,0.019,0.201,0.1474522496887782,-7.341064119767837,-7.020110794949315
1621787319361.607,0.3051452986985836,0.032043955469607484,0.20969597031307166,0.108,-7.218,-6.776
1621787319362.893,0.309,0.037,0.213,0.10962121187579973,-7.175336529584217,-6.679836537682826
1621787319367.563,0.304,0.054,0.23,0.11550779896013864,-7.020426343154246,-6.330668977469671
1621787319372.23,0.269,0.087,0.25,0.12139069307892904,-6.865613340028183,-5.981720468423525
1621787319376.68,0.215570770519263,0.11371461474036851,0.270990054438861,0.127,-6.718,-5.649
1621787319376.894,0.213,0.115,0.272,0.12197604712679119,-6.711994028009932,-5.646480907482839
1621787319381.556,0.154,0.136,0.295,0.012589068661657557,-6.5812254588533134,-5.5916324791872904
1621787319386.214,0.098,0.157,0.319,-0.09671198130507455,-6.4505596144171635,-5.536827136852697
1621787319390.871,0.037,0.182,0.333,-0.20598438843900618,-6.319928011554503,-5.482036156505088
1621787319391.724,0.02709782722787866,0.1842004828382492,0.33428361498897874,-0.226,-6.296,-5.472
1621787319395.523,-0.017,0.194,0.34,-0.33250083727584584,-6.296,-5.578753808385765
1621787319400.175,-0.056,0.211,0.344,-0.4629232957778537,-6.296,-5.709486058950723
1621787319404.822,-0.087,0.218,0.346,-0.5932020192167,-6.296,-5.840074233039068
1621787319406.741,-0.09278244876510772,0.21593483972674724,0.34723909616395165,-0.647,-6.296,-5.894
1621787319409.468,-0.101,0.213,0.349,-0.7130300942889247,-6.328014591170388,-5.984950543097693
1621787319414.11,-0.122,0.213,0.353,-0.8254290390346377,-6.382511049228915,-6.1397700262185095
1621787319418.751,-0.131,0.211,0.347,-0.9377984268894426,-6.43699317667367,-6.294548797368378
1621787319421.733,-0.12842768388353604,0.209713841941768,0.34249844679618807,-1.01,-6.472,-6.394
1621787319423.388,-0.127,0.209,0.34,-1.043624565582731,-6.476424284945097,-6.429836708055279
1621787319428.023,-0.127,0.194,0.328,-1.1377921976211065,-6.488814762844883,-6.530199579043548
1621787319432.655,-0.122,0.197,0.325,-1.2319003083750755,-6.50119740899672,-6.630499012873436
1621787319436.696,-0.11152405063291139,0.19438101265822785,0.3136510548523207,-1.314,-6.512,-6.718
1621787319437.284,-0.11,0.194,0.312,-1.3186452287923622,-6.506567444293678,-6.7249284768428454
1621787319441.911,-0.094,0.176,0.298,-1.3552051856332457,-6.4638108845984075,-6.7794585819614515
1621787319446.535,-0.084,0.182,0.286,-1.3917419934934363,-6.421081397439879,-6.8339541597868205
1621787319451.156,-0.068,0.182,0.272,-1.428255652372934,-6.378378982818094,-6.888415210318953
1621787319451.63,-0.06707644726407613,0.18210261697065822,0.2705633624107851,-1.432,-6.374,-6.894
1621787319455.774,-0.059,0.183,0.258,-1.3419375081881304,-6.300615747412551,-6.904840855495873
1621787319460.391,-0.049,0.201,0.248,-1.241592165596751,-6.218852875671427,-6.916919461548539
1621787319465.004,-0.054,0.206,0.241,-1.1413423293593608,-6.137167823922442,-6.928986571466003
1621787319466.538,-0.05566357812251813,0.20666543124900724,0.24033456875099274,-1.108,-6.11,-6.933
1621787319469.615,-0.059,0.208,0.239,-0.9965367386453138,-6.1362631432134425,-6.916869880546075
1621787319474.223,-0.072,0.22,0.232,-0.8296115942504594,-6.175594299684957,-6.892713737201365
1621787319478.828,-0.075,0.229,0.234,-0.66279258007351,-6.2149004495930695,-6.868572952218431
1621787319481.417,-0.081749761323857,0.23462480110321418,0.23287503977935717,-0.569,-6.237,-6.855
1621787319483.431,-0.087,0.239,0.232,-0.5250631925036988,-6.255578217984547,-6.882935130692093
1621787319488.031,-0.08,0.239,0.234,-0.42470468518822946,-6.298013759658064,-6.946743317442052
1621787319492.628,-0.073,0.237,0.229,-0.32441542002301493,-6.34042002301496,-7.010507479861911
1621787319496.268,-0.05636025933995854,0.24730079183716852,0.22186868257426795,-0.245,-6.374,-7.061
1621787319497.222,-0.052,0.25,0.22,-0.23238577099840216,-6.379084306587378,-7.06222280791342
1621787319501.815,-0.028,0.246,0.206,-0.17164569160063914,-6.403566277365049,-7.068110876834632
1621787319506.403,0.002,0.251,0.201,-0.11097018465745301,-6.428022221490108,-7.073992686181166
1621787319510.99,0.033,0.257,0.188,-0.05031082082791111,-6.452471658952016,-7.079872930634029
1621787319511.089,0.03334589989350373,0.25710809371671994,0.18804323748668797,-0.049,-6.453,-7.08
1621787319515.575,0.049,0.262,0.19,0.0222523102310231,-6.458760825082509,-6.999954851485149
1621787319520.156,0.056,0.271,0.194,0.09501699669966997,-6.46464392739274,-6.918210693069307
1621787319524.734,0.054,0.276,0.204,0.16773127062706272,-6.47052295379538,-6.836523168316831
1621787319525.884,0.052743331199317116,0.2772566688006829,0.20676467136150234,0.186,-6.472,-6.816
1621787319529.31,0.049,0.281,0.215,0.131467315992261,-6.412826236502241,-6.806717841019959
1621787319533.884,0.033,0.286,0.222,0.058662510541894725,-6.3338252773965245,-6.794325533709259
1621787319538.454,0.019,0.283,0.23,-0.014080118399947078,-6.254891786417079,-6.781943809634051
1621787319540.648,0.013236664885088189,0.28059861036878675,0.23096055585248532,-0.049,-6.217,-6.776
1621787319543.022,0.007,0.278,0.232,-0.1422723025694548,-6.193319467223299,-6.788726272716731
1621787319547.587,-0.003,0.271,0.232,-0.3216229312658416,-6.147784851647533,-6.813197256597585
1621787319552.149,-0.012,0.264,0.225,-0.5008584563391482,-6.102279459271408,-6.837652535493597
1621787319555.385,-0.012,0.24767785630153122,0.22783863368669025,-0.628,-6.07,-6.855
1621787319556.709,-0.012,0.241,0.229,-0.6879514972445389,-6.057667634951199,-6.862021346524136
1621787319561.267,-0.03,0.234,0.209,-0.8943491468030011,-6.015210460792776,-6.886194044220171
1621787319565.822,-0.035,0.213,0.201,-1.1006030808047276,-5.972782849744373,-6.910349910364518
1621787319570.093,-0.04156928276380023,0.18953827584357064,0.17941521377608496,-1.294,-5.933,-6.933
1621787319570.373,-0.042,0.188,0.178,-1.300561588478872,-5.933,-6.930005321537259
1621787319574.922,-0.056,0.169,0.159,-1.4071545075083565,-5.933,-6.881356809073221
1621787319579.468,-0.07,0.148,0.148,-1.5136730580546456,-5.933,-6.832742238039013
1621787319584.012,-0.096,0.126,0.133,-1.6201458433805065,-5.933,-6.7841485540385476
1621787319584.774,-0.09767759621586755,0.12482568264889271,0.1296448075682649,-1.638,-5.933,-6.776
1621787319588.554,-0.106,0.119,0.113,-1.6681822922741132,-5.933,-6.776
1621787319593.092,-0.126,0.108,0.091,-1.704417417817691,-5.933,-6.776
1621787319597.627,-0.147,0.094,0.072,-1.7406272013862276,-5.933,-6.776
1621787319599.427,-0.15454332023046685,0.08804474718647354,0.06286861235259275,-1.755,-5.933,-6.776
1621787319602.161,-0.166,0.079,0.049,-1.6652604514491784,-5.982543709095766,-6.801800120208361
1621787319606.692,-0.185,0.068,0.026,-1.5165306531320955,-6.064654951916656,-6.844559937224522
1621787319611.219,-0.199,0.054,0.007,-1.367929077066916,-6.146695405369307,-6.887282890343261
1621787319614.05,-0.1921195857381736,0.046494093532552995,-0.0005059064674470043,-1.275,-6.198,-6.914
1621787319615.745,-0.188,0.042,-0.005,-1.1736364031640383,-6.23666446477248,-6.9071495392745454
1621787319620.267,-0.185,0.052,-0.012,-0.9032264160409385,-6.3398105423349,-6.888874408415138
1621787319624.787,-0.171,0.054,-0.019,-0.6329332240747864,-6.44291206916735,-6.870607170928308
1621787319628.649,-0.15902768016435098,0.06939298264583446,-0.023275828512731793,-0.402,-6.531,-6.855
1621787319629.303,-0.157,0.072,-0.024,-0.3694097421203439,-6.528351480420248,-6.854102196752627
1621787319633.818,-0.145,0.091,-0.024,-0.14442869351028004,-6.510067896580036,-6.847904371722047
1621787319638.329,-0.133,0.113,-0.019,0.08034554868546723,-6.491801119321704,-6.841712243837866
1621787319642.839,-0.12,0.145,-0.012,0.30507113054843404,-6.473538296553227,-6.835521456458721
1621787319643.219,-0.11932567713976164,0.14811874322860238,-0.01140996749729144,0.324,-6.472,-6.835
1621787319647.346,-0.112,0.182,-0.005,0.5019278807413377,-6.483351060972335,-6.779379801235563
1621787319651.849,-0.115,0.206,0.002,0.6960759971796938,-6.495736905721192,-6.718689161966156
1621787319656.35,-0.119,0.262,0.017,0.8901293815471394,-6.508116706956755,-6.658028135911899
1621787319657.762,-0.11711659338869891,0.2739282418715736,0.026417033056505456,0.951,-6.512,-6.639
1621787319660.848,-0.113,0.3,0.047,1.0239222592256199,-6.539000370033976,-6.65983493120732
1621787319665.344,-0.117,0.332,0.079,1.1301672217176304,-6.578338883842971,-6.690190634776466
1621787319669.837,-0.117,0.368,0.106,1.2363371850506275,-6.617649628284052,-6.720524910014465
1621787319672.277,-0.11863006251698831,0.3804971459635771,0.12447404185920087,1.294,-6.639,-6.737
1621787319674.328,-0.12,0.391,0.14,1.3023515890937278,-6.621022850594857,-6.813438273061238
1621787319678.815,-0.124,0.401,0.168,1.3206246671834452,-6.581689275723771,-6.980683394560345
1621787319683.3,-0.141,0.401,0.199,1.3388897913787874,-6.542372821947356,-7.1478557177041555
1621787319686.765,-0.15491220999891078,0.4025458011109901,0.22991602221980176,1.353,-6.512,-7.277
1621787319687.783,-0.159,0.403,0.239,1.3261035880118193,-6.5022834951456305,-7.30389641198818
1621787319692.262,-0.164,0.387,0.274,1.2077722752216125,-6.459535533980582,-7.422227724778388
1621787319696.74,-0.169,0.377,0.295,1.0894667623469818,-6.416796893203883,-7.540533237653018
1621787319701.214,-0.157,0.367,0.318,0.9712644491346559,-6.374095533980582,-7.658735550865344
1621787319701.224,-0.15696418627504505,0.3669529944859966,0.3180179068624775,0.971,-6.374,-7.659
1621787319705.686,-0.141,0.346,0.326,0.8284723664845296,-6.307528327102329,-7.652816588567658
1621787319710.154,-0.106,0.33,0.337,0.6857497673946509,-6.24096572665911,-7.6466247187589875
1621787319714.621,-0.075,0.312,0.342,0.5430583627966776,-6.174417674623179,-7.640434202290528
1621787319715.656,-0.06688375273522976,0.31037675054704594,0.34153621444201315,0.51,-6.159,-7.639
1621787319719.084,-0.04,0.305,0.34,0.45621856515770387,-6.077137992983408,-7.478131637374371
1621787319723.545,-0.014,0.297,0.333,0.38623107299628834,-5.970608358897005,-7.268788519227836
1621787319728.004,-0.003,0.283,0.318,0.31627422334457567,-5.864125366506788,-7.059537057437757
1621787319730.061,-0.0016147523016220957,0.28115300306882945,0.3106120122753178,0.284,-5.815,-6.963
1621787319732.459,0.0,0.279,0.302,0.2644841043407377,-5.777469431424496,-6.868089362135724
1621787319736.913,-0.012,0.269,0.288,0.22823405339311187,-5.707757794986754,-6.691796379322057
1621787319741.362,-0.031,0.264,0.279,0.19202572855104952,-5.6381264010597105,-6.515706320902113
1621787319744.437,-0.05173933805368022,0.262617377463088,0.26448246336242387,0.167,-5.59,-6.394
1621787319745.81,-0.061,0.262,0.258,0.1256618345158491,-5.605980263045956,-6.375244721215524
1621787319750.256,-0.093,0.248,0.25,-0.008194732275024236,-5.6577257414118725,-6.314513501097443
1621787319754.697,-0.131,0.241,0.232,-0.14189694247358484,-5.709411549521039,-6.253852313136985
1621787319758.786,-0.16967898383371824,0.22442329264269217,0.2163442208292093,-0.265,-5.757,-6.198
1621787319759.137,-0.173,0.223,0.215,-0.27436456468743076,-5.7656536422373375,-6.206408496564892
1621787319763.574,-0.202,0.206,0.195,-0.3927175539985339,-5.875021718747337,-6.312678327281406
1621787319768.008,-0.236,0.19,0.169,-0.510992396733664,-5.9843175812748255,-6.418877989737296
1621787319772.439,-0.251,0.162,0.148,-0.6291825806781568,-6.0935352119879305,-6.525001636577508
1621787319773.107,-0.2531109947643979,0.1570240837696335,0.14332565445026177,-0.647,-6.11,-6.541
1621787319776.869,-0.265,0.129,0.117,-0.6727922046867527,-6.215800676368108,-6.628640858782537
1621787319781.294,-0.272,0.106,0.091,-0.7031305595408895,-6.340249846279975,-6.731729350276696
1621787319785.719,-0.279,0.082,0.059,-0.7334689143950263,-6.464699016191842,-6.834817841770854
1621787319787.401,-0.2805220945647371,0.07058429076447194,0.047203767123287665,-0.745,-6.512,-6.874
1621787319790.139,-0.283,0.052,0.028,-0.6998943179873353,-6.559025072736607,-6.932349478007873
1621787319794.557,-0.276,0.028,-0.009,-0.6271138969707342,-6.6349025329454046,-7.026499469450624
1621787319798.972,-0.264,0.005,-0.042,-0.5543817388327914,-6.710729676536026,-7.120587027212048
1621787319801.666,-0.25423451327433627,-0.004155143805309733,-0.05786891592920354,-0.51,-6.757,-7.178
1621787319803.386,-0.248,-0.01,-0.068,-0.4614346223098688,-6.738032924633456,-7.202886735831261
1621787319807.796,-0.236,-0.019,-0.105,-0.33691561347852184,-6.6894023664580295,-7.266694984137872
1621787319812.203,-0.216,-0.037,-0.138,-0.21247932778873357,-6.640804115579182,-7.3304608419789075
1621787319815.903,-0.20592007980934435,-0.05127988693676218,-0.16319980047663915,-0.108,-6.6,-7.384
1621787319816.608,-0.204,-0.054,-0.168,-0.06762168384879724,-6.590773505154639,-7.380626872852234
1621787319821.01,-0.19,-0.068,-0.188,0.18456446735395188,-6.533148659793814,-7.35955972508591
1621787319825.41,-0.183,-0.077,-0.202,0.43662474226804127,-6.475552577319587,-7.3385030927835055
1621787319829.806,-0.176,-0.084,-0.208,0.688461237113402,-6.418007628865979,-7.317465154639175
1621787319830.112,-0.17613931785357181,-0.08365170536607044,-0.20820897678035774,0.706,-6.414,-7.316
1621787319834.201,-0.178,-0.079,-0.211,0.8559450767032248,-6.357193884402816,-7.253715121984814
1621787319838.593,-0.18,-0.08,-0.206,1.0170097966632805,-6.296175134725641,-7.186811315232175
1621787319842.981,-0.183,-0.086,-0.209,1.1779223153871317,-6.235214045901413,-7.119970730531499
1621787319844.292,-0.18448072574863508,-0.08540770970054597,-0.209,1.226,-6.217,-7.1
1621787319847.408,-0.188,-0.084,-0.209,1.2899020492311508,-6.184158699156746,-7.096043216765873
1621787319852.406,-0.183,-0.079,-0.206,1.3924016772073413,-6.131480871775794,-7.089696490575396
1621787319857.404,-0.183,-0.079,-0.204,1.4949013051835318,-6.078803044394841,-7.083349764384921
1621787319860.042,-0.18035986903191126,-0.07952802619361775,-0.20030381664467575,1.549,-6.051,-7.08
1621787319862.4,-0.178,-0.08,-0.197,1.5877237680238452,-6.0423784818362005,-7.077223578896404
1621787319867.398,-0.178,-0.077,-0.194,1.6698062881091795,-6.024103505666258,-7.071338417078964
1621787319872.395,-0.178,-0.077,-0.185,1.7518727701874632,-6.005832100222414,-7.065454405156371
1621787319876.178,-0.1764856333072713,-0.06791379984362783,-0.17818534988272086,1.814,-5.992,-7.061
1621787319877.391,-0.176,-0.065,-0.176,1.8243757357502761,-5.993428543327936,-7.074232822406149
1621787319882.388,-0.168,-0.056,-0.171,1.8671127419086384,-5.999312623885972,-7.128737989680582
1621787319887.384,-0.166,-0.037,-0.164,1.9098434837870144,-6.005195841970676,-7.183235167728366
1621787319892.313,-0.15909373014709477,-0.01628119044128427,-0.15512051018912182,1.952,-6.011,-7.237
1621787319892.38,-0.159,-0.016,-0.155,1.9511043176899676,-6.010270184784418,-7.2373275875115395
1621787319897.375,-0.141,-0.002,-0.148,1.8842223466561738,-5.955773763942068,-7.26178904913964
1621787319902.371,-0.131,0.0,-0.143,1.8173272999682188,-5.901266688862993,-7.286255293067179
1621787319907.366,-0.124,0.01,-0.136,1.7504485978479651,-5.846772931579824,-7.31071555912042
1621787319908.445,-0.12140813135261923,0.01,-0.13340813135261925,1.736,-5.835,-7.316
1621787319912.362,-0.112,0.01,-0.124,1.7168155839438155,-5.756319610098686,-7.296815583943816
1621787319917.357,-0.106,0.007,-0.112,1.6923519858327785,-5.655987891263547,-7.2723519858327785
1621787319922.351,-0.099,0.017,-0.094,1.6678919749349155,-5.555670884543198,-7.247891974934916
1621787319924.575,-0.10211662349088421,0.015664304218192482,-0.08776675301823159,1.657,-5.511,-7.237
1621787319927.346,-0.106,0.014,-0.08,1.6418804117468968,-5.494162276718135,-7.200060096881623
1621787319932.339,-0.117,0.009,-0.063,1.6146358462004238,-5.463821737814109,-7.1334966696942175
1621787319937.333,-0.129,0.007,-0.047,1.5873872842870118,-5.433476748410536,-7.0669234786557675
1621787319940.703,-0.13507318504033244,0.0022764116352969937,-0.035528428257149844,1.569,-5.413,-7.022
1621787319942.327,-0.138,0.0,-0.03,1.551276639871626,-5.420955371875804,-7.023913317286586
1621787319947.321,-0.155,-0.012,-0.012,1.49677437667469,-5.445419455924429,-7.029797084336256
1621787319952.314,-0.161,-0.024,0.0,1.4422854353058723,-5.469877560288841,-7.035679413234026
1621787319956.83,-0.17004503447264194,-0.030331524130849347,0.015376558603491273,1.393,-5.492,-7.041
1621787319957.307,-0.171,-0.031,0.017,1.38572548603961,-5.497795954212343,-7.047387378111562
1621787319962.3,-0.176,-0.037,0.026,1.309546090485131,-5.558491732784204,-7.11427660347647
1621787319967.292,-0.176,-0.037,0.035,1.2333853188783235,-5.619172672763612,-7.181149476106838
1621787319972.285,-0.175,-0.035,0.04,1.157209648113379,-5.679865483616982,-7.248035430924838
1621787319972.954,-0.17352547926447573,-0.03526809467918623,0.04067023669796557,1.147,-5.688,-7.257
1621787319977.277,-0.164,-0.037,0.045,1.0998035013857128,-5.7746163014341745,-7.333157986400327
1621787319982.269,-0.15,-0.04,0.047,1.0453037664127456,-5.874635701412973,-7.4211007405612515
1621787319987.261,-0.138,-0.037,0.054,0.9908040314397782,-5.974655101391771,-7.509043494722176
1621787319989.075,-0.1303675585775082,-0.03372895367607494,0.05327310081690554,0.971,-6.011,-7.541
1621787319992.252,-0.117,-0.028,0.052,0.926453832172069,-6.040171826719176,-7.571945789154802
1621787319997.244,-0.087,-0.04,0.049,0.8564595577097849,-6.086008785216601,-7.620570130263557
1621787320002.234,-0.063,-0.038,0.044,0.7864926688882157,-6.131827809754619,-7.669175446834293
1621787320005.193,-0.047584914889454114,-0.04333599099980434,0.037478233222461355,0.745,-6.159,-7.698
1621787320007.225,-0.037,-0.047,0.033,0.7228103764295993,-6.147779110808149,-7.6881659622813
1621787320012.215,-0.021,-0.056,0.026,0.668318760887677,-6.120223691585246,-7.664016269029767
1621787320017.206,0.0,-0.073,0.019,0.6138164811027796,-6.0926628796485645,-7.639861849579641
1621787320021.31,0.008224472821566613,-0.06724286902490337,0.005840843485493418,0.569,-6.07,-7.62
1621787320022.196,0.01,-0.066,0.003,0.5522873914953568,-6.072199027434822,-7.610269303600915
1621787320027.186,0.019,-0.082,0.0,0.4581598066988835,-6.084584235960674,-7.555464755874021
1621787320032.176,0.026,-0.087,-0.012,0.36403222190241025,-6.0969694444865254,-7.500660208147127
1621787320037.165,0.035,-0.101,-0.021,0.2699230582781658,-6.1093522291739255,-7.445866385905379
1621787320037.426,0.03562762366064876,-0.10246445520818044,-0.02262136112334263,0.265,-6.11,-7.443
1621787320042.155,0.047,-0.129,-0.052,0.13262830517463445,-6.1041298583226,-7.365220622774452
1621787320047.143,0.056,-0.155,-0.075,-0.006994105614061663,-6.0979381771346315,-7.283180847033866
1621787320052.132,0.059,-0.171,-0.101,-0.1466438518069551,-6.091745283733616,-7.201125009470414
1621787320053.538,0.060127502324898434,-0.17945626743673831,-0.10832876511183985,-0.186,-6.09,-7.178
1621787320057.12,0.063,-0.201,-0.127,-0.23625114418209922,-6.050644015397205,-7.101733882944867
1621787320062.109,0.065,-0.244,-0.15,-0.3062369593550147,-5.995832115903373,-6.995516473191283
1621787320067.096,0.066,-0.276,-0.176,-0.3761987997454005,-5.9410389931197525,-6.889335449943927
1621787320069.648,0.062419329581600194,-0.29083420601908494,-0.18520743821874236,-0.412,-5.913,-6.835
1621787320072.085,0.059,-0.305,-0.194,-0.4653990937608923,-5.837363889857094,-6.805350644823981
1621787320077.073,0.038,-0.342,-0.222,-0.5746955157834119,-5.682553093791202,-6.744664812766151
1621787320082.06,0.019,-0.368,-0.253,-0.6839705396517496,-5.527772606725567,-6.683990861836422
1621787320085.758,-0.003987075928917609,-0.3798642972536349,-0.2715379644588045,-0.765,-5.413,-6.639
1621787320087.047,-0.012,-0.384,-0.278,-0.7666006305514294,-5.374584866765696,-6.65316558038015
1621787320092.034,-0.059,-0.387,-0.284,-0.772792766847546,-5.225973595658896,-6.707965986600782
1621787320097.021,-0.11,-0.403,-0.302,-0.7789852062933883,-5.0773550489586805,-6.762769075696487
1621787320101.865,-0.1605181413112667,-0.4214585516329628,-0.32045855163296283,-0.785,-4.933,-6.816
1621787320102.007,-0.162,-0.422,-0.321,-0.7841264441007915,-4.933344128081506,-6.816344128081506
1621787320106.994,-0.208,-0.435,-0.344,-0.7534679341399072,-4.945421722914582,-6.828421722914582
1621787320111.98,-0.244,-0.438,-0.353,-0.7228139270444829,-4.957497543891567,-6.840497543891567
1621787320116.966,-0.278,-0.422,-0.372,-0.6921599199490586,-4.969573364868553,-6.852573364868553
1621787320117.968,-0.2824211144843796,-0.41898560376065025,-0.37300479874644993,-0.686,-4.972,-6.855
1621787320121.952,-0.3,-0.407,-0.377,-0.55265956156575,-5.066501015736334,-6.869595706618963
1621787320126.937,-0.326,-0.4,-0.377,-0.38580832903793094,-5.184751796488888,-6.887859570661896
1621787320131.922,-0.346,-0.375,-0.374,-0.21895709651011191,-5.303002577241442,-6.9061234347048295
1621787320134.072,-0.3503137062800039,-0.36550984618399135,-0.37098040560399725,-0.147,-5.354,-6.914
1621787320136.906,-0.356,-0.353,-0.367,-0.06761852918877938,-5.476680454890069,-6.943218013646701
1621787320141.892,-0.367,-0.33,-0.351,0.0720444427596664,-5.692523229719485,-6.994623896891585
1621787320146.875,-0.374,-0.305,-0.339,0.21161851402577705,-5.908228612585292,-7.045997058377559
1621787320150.173,-0.37135364121651404,-0.2871370782114697,-0.32841456486605614,0.304,-6.051,-7.08
1621787320151.86,-0.37,-0.278,-0.323,0.35639850160001213,-6.150661950043223,-7.1160501691008085
1621787320156.845,-0.356,-0.258,-0.288,0.5112281116823635,-6.4451478684198555,-7.222572940837466
1621787320161.828,-0.328,-0.223,-0.258,0.6659970577975947,-6.739518403931025,-7.3290539757647455
1621787320166.271,-0.3110624050942934,-0.18734190546167034,-0.23036497673279452,0.804,-7.002,-7.424
1621787320166.812,-0.309,-0.183,-0.227,0.8198331335993083,-7.03168292349934,-7.4421190212527115
1621787320171.795,-0.271,-0.147,-0.18,0.9656608667951032,-7.305071221613749,-7.609000439920512
1621787320176.779,-0.223,-0.129,-0.138,1.111524324570319,-7.578526493833528,-7.77592274085648
1621787320181.761,-0.175,-0.098,-0.094,1.2573234781025773,-7.851861212663643,-7.942771453709744
1621787320182.365,-0.1666361587457129,-0.0965454189122979,-0.08939382655561,1.275,-7.885,-7.963
1621787320186.744,-0.106,-0.086,-0.056,1.2910558345597718,-7.954393861232912,-8.08845321579754
1621787320191.727,-0.033,-0.073,-0.012,1.3093272238996192,-8.033363425328863,-8.231217800300414
1621787320196.709,0.042,-0.061,0.024,1.3275941373712241,-8.112313644570545,-8.373947412341257
1621787320198.456,0.0707558561207488,-0.05679182593354896,0.03767656571596589,1.334,-8.14,-8.424
1621787320201.691,0.124,-0.049,0.063,1.21557435508346,-8.031426403641882,-8.424
1621787320206.672,0.213,-0.044,0.086,1.033216737481032,-7.8642394537177545,-8.424
1621787320211.654,0.295,-0.035,0.106,0.8508323065250379,-7.697027921092564,-8.424
1621787320214.545,0.33852882070385254,-0.033839231447897265,0.11354499558866778,0.745,-7.6,-8.424
1621787320216.635,0.37,-0.033,0.119,0.6571722185968161,-7.50320754860152,-8.306809676293385
1621787320221.617,0.435,-0.03,0.131,0.44782591474056427,-7.272493056925621,-8.027474815230752
1621787320226.598,0.49,-0.037,0.145,0.23852064710970822,-7.0418237900839245,-7.748194709604966
1621787320230.632,0.5118721443278753,-0.03537984116089813,0.1433798411608981,0.069,-6.855,-7.522
1621787320231.578,0.517,-0.035,0.143,0.04359363614282245,-6.808833343453972,-7.467776232693709
1621787320236.559,0.518,-0.024,0.154,-0.09021277629341753,-6.565689746781637,-7.182198658003401
1621787320241.539,0.496,-0.012,0.157,-0.22398639786252128,-6.322605735365558,-6.8966910675248965
1621787320246.519,0.457,-0.007,0.169,-0.357760019431625,-6.079521723949478,-6.611183477046392
1621787320246.714,0.4552373271889401,-0.006725806451612903,0.169352534562212,-0.363,-6.07,-6.6
1621787320251.499,0.412,0.0,0.178,-0.4242877831076568,-5.956349839091627,-6.486052325581395
1621787320256.479,0.356,0.023,0.192,-0.4880741089319327,-5.838066458194183,-6.367459302325581
1621787320261.458,0.307,0.033,0.201,-0.5518479264071893,-5.719806272390552,-6.248889534883721
1621787320262.797,0.2935524173776601,0.03595846817691478,0.20046209669510642,-0.569,-5.688,-6.217
1621787320266.437,0.257,0.044,0.199,-0.6289864111868575,-5.6923009125001895,-6.248238206580326
1621787320271.416,0.213,0.051,0.202,-0.7110417381534397,-5.698184124622322,-6.290968905151603
1621787320276.394,0.178,0.047,0.201,-0.7930809711066911,-5.704066182834064,-6.333691222689523
1621787320278.877,0.1685251544571933,0.05248543689320388,0.2000026478375993,-0.834,-5.707,-6.355
1621787320281.373,0.159,0.058,0.199,-0.8369497084548104,-5.738981049562682,-6.395985422740525
1621787320286.351,0.131,0.061,0.197,-0.8428323918853255,-5.802761722546161,-6.477723760932944
1621787320291.329,0.12,0.056,0.185,-0.8487150753158406,-5.866542395529641,-6.559462099125365
1621787320294.955,0.11489997547216091,0.059642874662742214,0.178442825607064,-0.853,-5.913,-6.619
1621787320296.306,0.113,0.061,0.176,-0.8472857403216743,-5.919638625214525,-6.643789803016266
1621787320301.284,0.113,0.056,0.166,-0.8262277690870707,-5.944103032972373,-6.735144237048737
1621787320306.262,0.12,0.058,0.164,-0.8051697978524672,-5.968567440730222,-6.826498671081208
1621787320311.03,0.1286220935936427,0.051293927204944564,0.14867183361130187,-0.785,-5.992,-6.914
1621787320311.239,0.129,0.051,0.148,-0.7853770867828227,-5.990465646883687,-6.913739940149777
1621787320316.216,0.14,0.049,0.134,-0.7943575671036441,-5.953924382129999,-6.9075465054457625
1621787320321.192,0.157,0.058,0.12,-0.803335844814753,-5.917392079719281,-6.901354589782929
1621787320326.169,0.164,0.056,0.108,-0.8123163251355744,-5.880850814965593,-6.895161155078914
1621787320327.102,0.164375036797174,0.056937591992934945,0.10518722402119517,-0.814,-5.874,-6.894
1621787320331.145,0.166,0.061,0.093,-0.791863316674515,-5.827211101152952,-6.8545061445215785
1621787320336.121,0.157,0.059,0.082,-0.7646175510018076,-5.769623460072002,-6.805897221673679
1621787320341.096,0.138,0.059,0.066,-0.7373784691102976,-5.712049946074038,-6.757300223299054
1621787320343.174,0.1300651555293887,0.059835246786380136,0.06265901285447945,-0.726,-5.688,-6.737
1621787320346.072,0.119,0.061,0.058,-0.6764116851747763,-5.691426101751561,-6.747638947544321
1621787320351.048,0.087,0.063,0.059,-0.5912634937031918,-5.69730906770778,-6.765907104987315
1621787320356.022,0.063,0.068,0.056,-0.506152900785392,-5.7031894359457365,-6.784167195831498
1621787320359.245,0.044863605141791774,0.06929545677558631,0.05794318516337945,-0.451,-5.707,-6.796
1621787320360.998,0.035,0.07,0.059,-0.451,-5.718783011700349,-6.831349035101049
1621787320365.972,0.012,0.075,0.063,-0.451,-5.752216897128096,-6.931650691384288
1621787320370.947,-0.009,0.075,0.065,-0.451,-5.785658987995745,-7.031976963987236
1621787320375.312,-0.030066129903284403,0.06710020128626835,0.06763326623791055,-0.451,-5.815,-7.12
1621787320375.92,-0.033,0.066,0.068,-0.45470862336241225,-5.8246499893613795,-7.135931943220159
1621787320380.895,-0.042,0.063,0.072,-0.4850597586552783,-5.903624882215265,-7.266317942794614
1621787320385.868,-0.044,0.051,0.075,-0.5153974892853886,-5.982564895589532,-7.396646357032129
1621787320390.842,-0.042,0.03,0.072,-0.5457426669503633,-6.061524286452476,-7.5270067631235
1621787320391.376,-0.0412484167116697,0.0282820953409593,0.07157052383523982,-0.549,-6.07,-7.541
1621787320395.815,-0.035,0.014,0.068,-0.5326935214179309,-6.121683245675372,-7.600698294469948
1621787320400.788,-0.016,0.0,0.065,-0.5144247408263156,-6.179585990940321,-7.6675806098562
1621787320405.761,0.005,-0.017,0.063,-0.4961568570820539,-6.237485893655185,-7.7344596418690905
1621787320407.437,0.011404861281610605,-0.02070807758409035,0.06131451018904984,-0.49,-6.257,-7.757
1621787320410.733,0.024,-0.028,0.058,-0.4358210452707427,-6.244891824511265,-7.740992581557265
1621787320415.706,0.049,-0.045,0.056,-0.35407102246815236,-6.226621933051595,-7.716839165729227
1621787320420.679,0.068,-0.045,0.049,-0.2723250129214678,-6.208352938493813,-7.692686935635888
1621787320423.497,0.0821729286380826,-0.044433082854476696,0.049,-0.226,-6.198,-7.679
1621787320425.65,0.093,-0.044,0.049,-0.18645258981102816,-6.186202806452104,-7.619745914225337
1621787320430.622,0.105,-0.047,0.045,-0.09511412803867611,-6.158956078872555,-7.482893032518966
1621787320435.593,0.12,-0.04,0.047,-0.003798090517962177,-6.131716040561291,-7.346073749182845
1621787320439.556,0.1255793763810459,-0.0328265160815124,0.04859410753744169,0.069,-6.11,-7.237
1621787320440.565,0.127,-0.031,0.049,0.0800612207657918,-6.102583954259299,-7.209284100240261
1621787320445.536,0.129,-0.014,0.056,0.13455372403515709,-6.066049207749156,-7.072743225570998
1621787320450.507,0.129,-0.003,0.058,0.1890489036221526,-6.029512666889693,-6.936195644901311
1621787320455.477,0.119,0.021,0.063,0.2435307016209969,-5.992985097776832,-6.7996815942337525
1621787320455.611,0.11889212555877585,0.021458466375202635,0.06337756054428452,0.245,-5.992,-6.796
1621787320460.447,0.115,0.038,0.077,0.26880008821426943,-6.009774749425847,-6.736951679873458
1621787320465.418,0.099,0.054,0.084,0.2932646275988988,-6.028045734535887,-6.676254847982479
1621787320470.387,0.082,0.084,0.096,0.317719554670033,-6.046309540829519,-6.615581864362956
1621787320471.663,0.07789173257356193,0.09016240113965712,0.09908120056982857,0.324,-6.051,-6.6
1621787320475.357,0.066,0.108,0.108,0.29223749543629063,-6.080230710721675,-6.613579621516368
1621787320480.326,0.051,0.124,0.119,0.24951031398320556,-6.1195521023487895,-6.631847039673847
1621787320485.296,0.042,0.148,0.122,0.2067747353048558,-6.158881221857126,-6.650118047949373
1621787320487.712,0.03665054793847364,0.15140419676642586,0.12394525529510049,0.186,-6.178,-6.659
1621787320490.264,0.031,0.155,0.126,0.13621396290153232,-6.193587960497283,-6.696379293029201
1621787320495.234,0.03,0.169,0.127,0.039256691571435104,-6.223945189220445,-6.769174688436782
1621787320500.203,0.026,0.173,0.134,-0.05768152837165422,-6.254296452972595,-6.8419557800873445
1621787320503.756,0.026,0.1679924797247481,0.1304231998033915,-0.127,-6.276,-6.894
1621787320505.17,0.026,0.166,0.129,-0.14779670095562725,-6.2777624322843755,-6.912153052529065
1621787320510.139,0.031,0.162,0.122,-0.22088861160143647,-6.283956662000122,-6.975953618601253
1621787320515.106,0.042,0.166,0.113,-0.29395179256193316,-6.290148456996774,-7.039729107066772
1621787320519.8,0.046724310776942356,0.16222055137844613,0.10166165413533836,-0.363,-6.296,-7.1
1621787320520.074,0.047,0.162,0.101,-0.36383670177147376,-6.294651031837828,-7.101007457235039
1621787320525.041,0.052,0.159,0.094,-0.3790084464600962,-6.270190463870457,-7.1192754763499115
1621787320530.009,0.056,0.152,0.087,-0.3941831740427345,-6.245725086747428,-7.13754708711268
1621787320534.976,0.054,0.141,0.079,-0.4093549187313569,-6.221264518780057,-7.155815106227552
1621787320535.842,0.054,0.1383848611452445,0.07743091668714672,-0.412,-6.217,-7.159
1621787320539.943,0.054,0.126,0.07,-0.4094430711154408,-6.189640860935216,-7.168972022649781
1621787320544.91,0.054,0.12,0.061,-0.4063463833414515,-6.156506301753532,-7.18104910496834
1621787320549.875,0.042,0.11,0.058,-0.4032507610813444,-6.123383143570385,-7.1931220317827576
1621787320551.881,0.04280776603588105,0.10555728680265422,0.05274952076677317,-0.402,-6.11,-7.198
1621787320554.842,0.044,0.099,0.045,-0.3802146108294896,-6.095414866572286,-7.20169243884246
1621787320559.807,0.04,0.082,0.04,-0.3436852841332907,-6.070958791919746,-7.2078838501469
1621787320564.773,0.037,0.07,0.033,-0.3071469759936673,-6.046496704266946,-7.214076783729887
1621787320567.919,0.034465506220189804,0.06683188277523726,0.026663765550474505,-0.284,-6.031,-7.218
1621787320569.738,0.033,0.065,0.023,-0.27072705542021924,-6.015458176004872,-7.222424314859927
1621787320574.704,0.037,0.051,0.017,-0.23449232643118148,-5.9730294762484775,-7.234502557856272
1621787320579.669,0.037,0.035,0.009,-0.19826650426309378,-5.930611205846529,-7.246577831912302
1621787320583.954,0.04304259086214528,0.03154709093591698,0.0038206364038754735,-0.167,-5.894,-7.257
1621787320584.633,0.044,0.031,0.003,-0.167,-5.893153102398173,-7.253654754472782
1621787320589.598,0.049,0.033,-0.003,-0.167,-5.886960182717929,-7.22919272173582
1621787320594.562,0.045,0.024,-0.005,-0.167,-5.880768176627331,-7.20473429767796
1621787320599.527,0.051,0.016,-0.005,-0.167,-5.8745749524172055,-7.1802710620479635
1621787320599.988,0.050628492719401806,0.015164108618654073,-0.0054643841007477375,-0.167,-5.874,-7.178
1621787320604.49,0.047,0.007,-0.01,-0.19985886169451256,-5.841141138305487,-7.189233798869918
1621787320609.454,0.042,0.0,-0.023,-0.23609092432111362,-5.804909075678886,-7.201620828827731
1621787320614.418,0.038,-0.003,-0.031,-0.2723212050137833,-5.768678794986216,-7.214007249577362
1621787320616.018,0.03703257232828183,-0.003,-0.033902283015154494,-0.284,-5.757,-7.218
1621787320619.38,0.035,-0.003,-0.04,-0.30455536938309213,-5.750707539984767,-7.23037517136329
1621787320624.344,0.035,-0.012,-0.049,-0.3349077532368621,-5.741415993907083,-7.24864854531607
1621787320629.306,0.037,-0.023,-0.066,-0.3652467022086824,-5.732128560548363,-7.2669138309215535
1621787320632.046,0.037,-0.02741654778887304,-0.0731768901569187,-0.382,-5.727,-7.277
1621787320634.269,0.037,-0.031,-0.079,-0.373955217742304,-5.7419799393763995,-7.2660424517524485
1621787320639.231,0.03,-0.035,-0.087,-0.35599978675115385,-5.775414190187507,-7.241585916436916
1621787320644.193,0.021,-0.037,-0.093,-0.3380434723004981,-5.808850086061142,-7.217128177788609
1621787320648.074,0.019435740995866955,-0.039346388506199564,-0.09925703601653219,-0.324,-5.835,-7.198
1621787320649.155,0.019,-0.04,-0.101,-0.31738842673004847,-5.8429608739372885,-7.192737727397386
1621787320654.116,0.021,-0.045,-0.108,-0.2870480543620684,-5.879493159033428,-7.168589267757565
1621787320659.078,0.012,-0.054,-0.112,-0.2567017094798428,-5.916032635524271,-7.144436054483957
1621787320664.039,0.016,-0.061,-0.113,-0.22635984398330133,-5.952566718469086,-7.120286406435689
1621787320664.098,0.016011860236220473,-0.061023720472440944,-0.11307116141732283,-0.226,-5.953,-7.12
1621787320669.0,0.017,-0.063,-0.119,-0.226,-5.953,-7.125812817113864
1621787320673.96,0.016,-0.066,-0.124,-0.226,-5.953,-7.1316942450975915
1621787320678.921,0.017,-0.07,-0.131,-0.226,-5.953,-7.1375768310706835
1621787320680.121,0.0140964217158045,-0.07120982428508146,-0.13269375399911404,-0.226,-5.953,-7.139
1621787320683.881,0.005,-0.075,-0.138,-0.19830247054699526,-5.971308536418088,-7.120691463581912
1621787320688.841,-0.002,-0.08,-0.141,-0.16176568667794494,-5.995459969823053,-7.096540030176946
1621787320693.802,-0.007,-0.082,-0.141,-0.12522170911252345,-6.019616158383247,-7.072383841616753
1621787320696.14,-0.010300118156754629,-0.08530011815675463,-0.1461858999606144,-0.108,-6.031,-7.061
1621787320698.761,-0.014,-0.089,-0.152,-0.07903861980674856,-6.048671350626391,-7.064108848721309
1621787320703.72,-0.009,-0.089,-0.157,-0.02424506964976987,-6.082104703264547,-7.0699906422409855
1621787320708.679,-0.005,-0.106,-0.152,0.030548480507208833,-6.115538055902704,-7.075872435760661
1621787320712.159,0.0006140212682158325,-0.10249123670736511,-0.152,0.069,-6.139,-7.08
1621787320713.638,0.003,-0.101,-0.152,0.07075465715418154,-6.139,-7.064669837495045
1621787320718.596,0.002,-0.089,-0.161,0.07663672672947346,-6.139,-7.013279124363548
1621787320723.555,0.003,-0.086,-0.166,0.08251995487667307,-6.139,-6.961878288972224
1621787320728.174,0.0002055927530523827,-0.086,-0.16879440724694764,0.088,-6.139,-6.914
1621787320728.514,0.0,-0.086,-0.169,0.09050416965224947,-6.1387877822328605,-6.916695165642675
1621787320733.471,-0.002,-0.087,-0.166,0.12703050630402635,-6.135692329974235,-6.956007409327214
1621787320738.43,-0.005,-0.082,-0.162,0.16357123473541382,-6.13259565807327,-6.995335142469471
1621787320743.387,-0.002,-0.079,-0.162,0.2000975713871907,-6.129500205814645,-7.034647386154011
1621787320744.188,-0.002,-0.079,-0.16264637509850277,0.206,-6.129,-7.041
1621787320748.344,-0.002,-0.079,-0.166,0.18055727554179565,-6.108749668288367,-7.030874834144184
1621787320753.302,0.002,-0.084,-0.162,0.15020476139639158,-6.084591544784883,-7.0187957723924415
1621787320758.259,-0.01,-0.096,-0.166,0.11985822568591864,-6.060438179627568,-7.006719089813783
1621787320760.196,-0.008827718676122932,-0.0952184791174153,-0.16678152088258472,0.108,-6.051,-7.002
1621787320763.216,-0.007,-0.094,-0.168,0.1191315661033494,-6.054584741626503,-6.992755140015862
1621787320768.171,-0.016,-0.093,-0.159,0.1373947135623208,-6.060466094198036,-6.97758744127875
1621787320773.128,-0.014,-0.089,-0.159,0.15566595997803673,-6.066350054908182,-6.962413016289427
1621787320776.203,-0.019585090658257785,-0.08775886874260938,-0.1577588687426094,0.167,-6.07,-6.953
1621787320778.083,-0.023,-0.087,-0.157,0.16465045078028467,-6.072349549219716,-6.958756395588303
1621787320783.04,-0.024,-0.089,-0.154,0.15845576861470873,-6.078544231385291,-6.973933366893964
1621787320787.995,-0.031,-0.093,-0.148,0.15226352722224765,-6.084736472777752,-6.989104358305493
1621787320792.207,-0.03865055432372506,-0.093,-0.14544981522542497,0.147,-6.09,-7.002
1621787320792.95,-0.04,-0.093,-0.145,0.14792853655559624,-6.094085560844623,-7.0074783656780175
1621787320797.905,-0.049,-0.087,-0.138,0.15412162821921152,-6.12133516416453,-7.044017606493348
1621787320802.86,-0.054,-0.087,-0.133,0.1603147198828268,-6.148584767484438,-7.080556847308678
1621787320807.815,-0.054,-0.086,-0.129,0.1665075064079092,-6.1758330281948,-7.1170942878066645
1621787320808.209,-0.05415907746895328,-0.0863976936723832,-0.1286023063276168,0.167,-6.178,-7.12
1621787320812.769,-0.056,-0.091,-0.124,0.17241573068001464,-6.211634537907459,-7.159050268587474
1621787320817.724,-0.049,-0.091,-0.119,0.17830060432181663,-6.248182700524967,-7.201483304846783
1621787320822.678,-0.044,-0.087,-0.11,0.18418402820168478,-6.284721859357832,-7.243905887559516
1621787320824.207,-0.03906072555205047,-0.08916093257097792,-0.10876518138801262,0.186,-6.296,-7.257
1621787320827.631,-0.028,-0.094,-0.106,0.19456122573556342,-6.296,-7.240091579172262
1621787320832.585,-0.019,-0.089,-0.105,0.20694738127212794,-6.296,-7.215628921987547
1621787320837.538,-0.01,-0.089,-0.099,0.21933170553046027,-6.296,-7.191169881577341
1621787320840.205,-0.005696671262556628,-0.08039334252511325,-0.10115166436872168,0.226,-6.296,-7.178
1621787320842.496,-0.002,-0.073,-0.103,0.24281720430107528,-6.290394265232975,-7.178
1621787320847.427,0.003,-0.072,-0.098,0.2790125448028674,-6.278329151732377,-7.178
1621787320852.358,0.009,-0.079,-0.093,0.31520788530465954,-6.26626403823178,-7.178
1621787320856.144,0.009,-0.0736243438645142,-0.0876243438645142,0.343,-6.257,-7.178
1621787320857.288,0.009,-0.072,-0.086,0.3416346153846154,-6.257,-7.172394736842105
1621787320862.219,0.014,-0.07,-0.077,0.33574970862470865,-6.257,-7.148235645933014
1621787320867.148,0.016,-0.072,-0.075,0.3298671328671329,-6.257,-7.124086124401914
1621787320872.064,0.0169971772396375,-0.072,-0.07001411380181252,0.324,-6.257,-7.1
1621787320872.078,0.017,-0.072,-0.07,0.3239825131918027,-6.257016612467787,-7.0999484139158175
1621787320877.007,0.017,-0.063,-0.063,0.317788501656645,-6.262900923426187,-7.081676079887103
1621787320881.935,0.017,-0.058,-0.059,0.3115960240520309,-6.268783777150571,-7.0634082709534916
1621787320886.864,0.016,-0.061,-0.051,0.30540231930298195,-6.274667796662167,-7.045136841943797
1621787320887.98,0.016226500173430455,-0.06054699965313909,-0.05122650017343045,0.304,-6.276,-7.041
1621787320891.791,0.017,-0.059,-0.052,0.3181308150239352,-6.280790106787775,-7.022318583527679
1621787320896.719,0.016,-0.054,-0.049,0.3364031085061986,-6.286984104578372,-6.998161992144348
1621787320901.646,0.021,-0.051,-0.045,0.3546717810236897,-6.293176874923285,-6.97401018779919
1621787320903.892,0.023279823561480895,-0.04780824701392675,-0.04272017643851911,0.363,-6.296,-6.963
1621787320906.572,0.026,-0.044,-0.04,0.3695705318087637,-6.296,-6.948005709462052
1621787320911.499,0.03,-0.044,-0.037,0.3816503261453457,-6.296,-6.920438999309339
1621787320916.424,0.037,-0.035,-0.033,0.39372533190085185,-6.296,-6.89288321694421
1621787320919.799,0.03768513654160678,-0.027463498042325424,-0.03162972691678644,0.402,-6.296,-6.874
1621787320921.35,0.038,-0.024,-0.031,0.402,-6.284491295403605,-6.872146903497191
1621787320926.274,0.038,-0.021,-0.028,0.402,-6.247956185329608,-6.8662641315361235
1621787320931.199,0.038,-0.014,-0.03,0.402,-6.211412017562713,-6.86037990113298
1621787320935.702,0.03525603768906521,-0.0057681130671956345,-0.023597421274485494,0.402,-6.178,-6.855
1621787320936.122,0.035,-0.005,-0.023,0.40147149415756905,-6.176203080135735,-6.85396941360726
1621787320941.046,0.031,0.002,-0.019,0.3952780567199472,-6.15514539284782,-6.8418922106038975
1621787320945.97,0.023,0.012,-0.021,0.3890843121900287,-6.134086661446098,-6.829814408770556
1621787320950.892,0.014,0.014,-0.017,0.382893024398483,-6.113036282954843,-6.817741397577041
1621787320951.602,0.012413608411029557,0.014721087085895656,-0.016278912914104344,0.382,-6.11,-6.816
1621787320955.815,0.003,0.019,-0.012,0.371663891875288,-6.104699431730917,-6.83137164798034
1621787320960.737,-0.007,0.023,-0.016,0.35958772845953,-6.098506527415144,-6.849331070496083
1621787320965.658,-0.021,0.023,-0.007,0.34751455997542624,-6.092315158961757,-6.867286039010905
1621787320967.498,-0.022869573845314285,0.021504340923748574,-0.007,0.343,-6.09,-6.874
1621787320970.579,-0.026,0.019,-0.007,0.32787577782899285,-6.097562111085503,-6.898819236383191
1621787320975.5,-0.038,0.024,-0.005,0.3037201659368518,-6.109639917031574,-6.938459214872858
1621787320980.421,-0.038,0.023,-0.003,0.27956455404471076,-6.121717722977644,-6.978099193362525
1621787320983.388,-0.03498481615640352,0.019381779387684216,-0.003,0.265,-6.129,-7.002
1621787320985.341,-0.033,0.017,-0.003,0.2625410717853356,-6.135024374125927,-7.014048748251856
1621787320990.26,-0.033,0.019,-0.005,0.2563482610767032,-6.150196760362077,-7.044393520724154
1621787320995.179,-0.03,0.016,-0.003,0.2501554503680708,-6.165369146598226,-7.074738293196453
1621787320999.274,-0.024172572960095295,0.014335020845741514,-0.006329958308516974,0.245,-6.178,-7.1
1621787321000.098,-0.023,0.014,-0.007,0.245,-6.177014265291378,-7.103060965674143
1621787321005.016,-0.017,0.009,-0.005,0.245,-6.171130524341691,-7.121331529675802
1621787321009.934,-0.014,0.01,-0.009,0.245,-6.165247075461546,-7.13960118672467
1621787321014.851,-0.009,0.005,-0.01,0.245,-6.1593647948595756,-7.157867215962369
1621787321015.156,-0.00918601072279587,0.004813989277204131,-0.00993799642573471,0.245,-6.159,-7.159
1621787321019.769,-0.012,0.002,-0.009,0.22785864751829754,-6.144763961498247,-7.170330724521803
1621787321024.686,-0.005,-0.002,-0.01,0.2095878436558214,-6.12958990405314,-7.182408035549542
1621787321029.602,-0.003,-0.005,-0.012,0.19132066855280153,-6.1144188603235134,-7.194482947905776
1621787321031.034,-0.00358253873659118,-0.006165077473182359,-0.01258253873659118,0.186,-6.11,-7.198
1621787321034.518,-0.005,-0.009,-0.014,0.2033372854770253,-6.120753506181953,-7.180882173832811
1621787321039.433,-0.005,-0.007,-0.017,0.2277948729777942,-6.135923402226733,-7.156734176047242
1621787321044.348,0.0,-0.007,-0.023,0.2522512456172726,-6.151092544749954,-7.132587377744971
1621787321046.91,0.002606298430359627,-0.00804251937214385,-0.01830866282535267,0.265,-6.159,-7.12
1621787321049.263,0.005,-0.009,-0.014,0.2737478001353763,-6.1618170881791885,-7.105469755707341
1621787321054.177,0.009,-0.01,-0.021,0.2920167066642053,-6.167700295366439,-7.075124792320473
1621787321059.091,0.012,-0.012,-0.023,0.31028561319303427,-6.173583502553689,-7.0447798289336045
1621787321062.78,0.013501764150474582,-0.017256174526661033,-0.02375088207523729,0.324,-6.178,-7.022
1621787321064.004,0.014,-0.019,-0.024,0.3254658120315794,-6.172753935886979,-7.020457039966758
1621787321068.917,0.007,-0.005,-0.024,0.33135011311346746,-6.151694332014959,-7.014263038827929
1621787321073.83,0.012,-0.007,-0.024,0.33723441419535544,-6.1306347281429385,-7.0080690376891
1621787321078.644,0.003179382673095083,-0.01190034295939162,-0.023019931408121676,0.343,-6.11,-7.002
1621787321078.742,0.003,-0.012,-0.023,0.3432407407407408,-6.11,-7.002
1621787321083.654,0.002,-0.01,-0.024,0.3553198023459869,-6.11,-7.002
1621787321088.565,-0.003,-0.009,-0.024,0.36739586219636094,-6.11,-7.002
1621787321093.476,-0.007,-0.009,-0.021,0.37947252239770946,-6.11,-7.002
1621787321094.504,-0.007628014519417235,-0.008162647307443687,-0.020581323653721846,0.382,-6.11,-7.002
1621787321098.386,-0.01,-0.005,-0.019,0.3868972866426438,-6.117101065631834,-6.992450291046844
1621787321103.297,-0.012,-0.003,-0.017,0.3930927346083957,-6.126084465182174,-6.980369167513628
1621787321108.206,-0.014,-0.007,-0.014,0.3992854106994364,-6.135063845514183,-6.968293449136099
1621787321110.358,-0.016191774009051575,-0.0017397423782762218,-0.011808225990948426,0.402,-6.139,-6.963
1621787321113.115,-0.019,0.005,-0.009,0.402,-6.152566209764362,-6.969783104882181
1621787321118.025,-0.019,0.005,-0.007,0.402,-6.176725427383336,-6.981862713691668
1621787321122.933,-0.016,0.0,0.0,0.402,-6.200876235946404,-6.993938117973202
1621787321126.21,-0.016667661543053276,0.008011938516639307,-0.002002984629159827,0.402,-6.217,-7.002
1621787321127.841,-0.017,0.012,-0.003,0.3999412988213543,-6.217,-7.012087635775364
1621787321132.748,-0.01,0.014,-0.002,0.393747939295894,-6.217,-7.042435097450119
1621787321137.656,-0.012,0.017,0.002,0.3875533471997535,-6.217,-7.072788598721208
1621787321142.056,-0.005722119930330928,0.022381040059716348,0.00020631998009455082,0.382,-6.217,-7.1
1621787321142.562,-0.005,0.023,0.0,0.38263893726209375,-6.215754072338917,-7.101245927661083
1621787321147.469,0.0,0.019,0.005,0.3888338239146851,-6.203674043366364,-7.113325956633636
1621787321152.375,0.005,0.017,0.0,0.3950274776926752,-6.191596418499283,-7.125403581500716
1621787321157.281,0.009,0.021,0.003,0.4012211314706653,-6.1795187936322025,-7.137481206367798
1621787321157.898,0.00912577771141307,0.021628888557065355,0.003251555422826141,0.402,-6.178,-7.139
1621787321162.186,0.01,0.026,0.005,0.402,-6.159591652409796,-7.123028051355559
1621787321167.091,0.017,0.03,0.005,0.402,-6.138534825295541,-7.1047581572417196
1621787321171.995,0.021,0.033,0.009,0.402,-6.117482190471787,-7.086491900556403
1621787321173.738,0.021,0.0337107018417123,0.009,0.402,-6.11,-7.08
1621787321176.9,0.021,0.035,0.009,0.3980064754856614,-6.098219102682702,-7.068418778908418
1621787321181.803,0.016,0.035,0.014,0.391813752698119,-6.079950570459451,-7.050459882824545
1621787321186.706,0.009,0.042,0.017,0.3856210299105766,-6.061682038236201,-7.032500986740672
1621787321189.573,0.005490785934854069,0.042,0.01933947604343062,0.382,-6.051,-7.022
1621787321191.608,0.003,0.042,0.021,0.37698696872493986,-6.051,-7.019429214730739
1621787321196.511,0.0,0.044,0.023,0.3649081796311147,-6.051,-7.013234963913392
1621787321201.413,-0.007,0.045,0.026,0.35283179631114675,-6.051,-7.007041946826229
1621787321205.404,-0.011071684766364453,0.048257347813091565,0.02437132609345422,0.343,-6.051,-7.002
1621787321206.314,-0.012,0.049,0.024,0.34075755565497773,-6.051,-7.006484888690045
1621787321211.215,-0.017,0.045,0.028,0.32867892130393866,-6.051,-7.030642157392123
1621787321216.116,-0.021,0.052,0.031,0.3166008886283343,-6.051,-7.054798222743331
1621787321221.017,-0.021,0.052,0.035,0.30452225427729523,-6.051,-7.078955491445409
1621787321221.229,-0.021,0.05230280075750025,0.034913485497857076,0.304,-6.051,-7.08
1621787321225.916,-0.021,0.059,0.033,0.292448322147651,-6.051,-7.103399552572707
1621787321230.816,-0.021,0.052,0.035,0.28037195093728307,-6.051,-7.1278619455372985
1621787321235.714,-0.021,0.054,0.037,0.26829979171488083,-6.051,-7.152315806526267
1621787321237.053,-0.020453512705530644,0.052633781763826604,0.03781973094170404,0.265,-6.051,-7.159
1621787321240.614,-0.019,0.049,0.04,0.23843702446176404,-6.0464978007562316,-7.16327708928158
1621787321245.511,-0.014,0.049,0.033,0.20190883555829925,-6.040306582298017,-7.169158746816884
1621787321250.409,-0.017,0.054,0.035,0.1653733621421406,-6.034114129176634,-7.175041577282197
1621787321252.872,-0.013479762735519889,0.04947398065995414,0.03298843584886851,0.147,-6.031,-7.178
1621787321255.307,-0.01,0.045,0.031,0.15007932195016518,-6.031,-7.171995322197178
1621787321260.204,-0.014,0.044,0.031,0.15627285639299718,-6.031,-7.1599179300336555
1621787321265.101,-0.017,0.047,0.033,0.16246608206996635,-6.031,-7.147841139963566
1621787321268.686,-0.018464738154613466,0.0404086783042394,0.029338154613466335,0.167,-6.031,-7.139
1621787321269.996,-0.019,0.038,0.028,0.16368550603786405,-6.031,-7.139
1621787321274.893,-0.026,0.042,0.035,0.15129599431730442,-6.031,-7.139
1621787321279.788,-0.024,0.038,0.03,0.13891142407115722,-6.031,-7.139
1621787321284.496,-0.030732568578553617,0.03992359102244389,0.03,0.127,-6.031,-7.139
1621787321284.683,-0.031,0.04,0.03,0.12677519655241656,-6.031934709071531,-7.139
1621787321289.578,-0.033,0.033,0.03,0.1208912744628597,-6.056399437759689,-7.139
1621787321294.471,-0.031,0.031,0.031,0.11500940671290218,-6.080855624720038,-7.139
1621787321299.365,-0.031,0.03,0.03,0.10912636505460219,-6.105316692667707,-7.139
1621787321300.302,-0.031,0.03,0.029617004290988923,0.108,-6.11,-7.139
1621787321304.258,-0.031,0.03,0.028,0.1177655185202355,-6.11,-7.148765518520236
1621787321309.151,-0.017,0.026,0.026,0.1298434472208057,-6.11,-7.160843447220806
1621787321314.044,-0.021,0.03,0.024,0.14192197858235595,-6.11,-7.172921978582356
1621787321316.101,-0.01931799580796487,0.027056492663938517,0.024,0.147,-6.11,-7.178
1621787321318.936,-0.017,0.023,0.024,0.147,-6.11,-7.167592409444925
1621787321323.828,-0.017,0.026,0.019,0.147,-6.11,-7.149633669180369
1621787321328.719,-0.017,0.019,0.016,0.147,-6.11,-7.131677617752503
1621787321331.9,-0.016349655585504642,0.01574827792752321,0.013398622342018569,0.147,-6.11,-7.12
1621787321333.61,-0.016,0.014,0.012,0.1491654790794009,-6.112057205125431,-7.111446357636367
1621787321338.501,-0.017,0.014,0.012,0.15535834737313942,-6.117940430004483,-7.0869845278760994
1621787321343.39,-0.021,0.019,0.016,0.16154874260012056,-6.1238213054701145,-7.062532466729524
1621787321347.695,-0.021,0.02076075886170744,0.014239241138292561,0.167,-6.129,-7.041
1621787321348.28,-0.021,0.021,0.014,0.16551803745109864,-6.129370490637225,-7.041740981274451
1621787321353.169,-0.017,0.016,0.017,0.15313226948709624,-6.132466932628226,-7.047933865256452
1621787321358.058,-0.019,0.016,0.014,0.1407458830078397,-6.13556352924804,-7.05412705849608
1621787321362.946,-0.021,0.012,0.009,0.1283625891048538,-6.138659352723787,-7.060318705447573
1621787321363.484,-0.020779931072374008,0.012440137855251986,0.009110034463812996,0.127,-6.139,-7.061
1621787321367.834,-0.019,0.016,0.01,0.127,-6.139,-7.082498020047024
1621787321372.721,-0.012,0.016,0.005,0.127,-6.139,-7.106649208018809
1621787321377.609,-0.01,0.003,0.009,0.127,-6.139,-7.130805222125975
1621787321379.267,-0.008303187768562006,0.005036174677725592,0.007642550214849605,0.127,-6.139,-7.139
1621787321382.495,-0.005,0.009,0.005,0.13907021507040074,-6.136954200835525,-7.139
1621787321387.382,-0.005,0.005,0.005,0.15734350920625098,-6.133857032337923,-7.139
1621787321392.268,-0.003,0.002,0.0,0.17561315178709577,-6.13076048274795,-7.139
1621787321395.046,-0.002431355889849568,-0.0008432205507521618,0.0,0.186,-6.129,-7.139
1621787321397.153,-0.002,-0.003,0.0,0.19655314110600364,-6.129,-7.133790221479315
1621787321402.039,0.0,0.003,0.002,0.22102307656590983,-6.129,-7.121710126758601
1621787321406.924,0.002,0.002,0.0,0.24548812121774932,-6.129,-7.10963244648744
1621787321410.82,-0.0011908022994251435,0.002,0.0,0.265,-6.129,-7.1
1621787321411.808,-0.002,0.002,0.0,0.2674430083893137,-6.127809816425718,-7.097556991610686
1621787321416.691,0.0,0.002,0.0,0.2795161904467077,-6.121928009782373,-7.085483809553292
1621787321421.575,-0.002,0.002,0.0,0.29159239079961613,-6.116044732687366,-7.073407609200384
1621787321426.458,0.0,0.0,0.003,0.30366617651611305,-6.110162631953689,-7.061333823483887
1621787321426.593,-0.00013827074061109168,5.530829624443666e-05,0.0029170375556333453,0.304,-6.11,-7.061
1621787321431.34,-0.005,0.002,0.0,0.3157419095103899,-6.09795701588678,-7.06672041745378
1621787321436.223,-0.009,0.0,0.0,0.32781957821064694,-6.085569663373696,-7.072604409897495
1621787321441.104,-0.012,0.0,0.003,0.3398930197268589,-6.073186646433991,-7.0784863429438545
1621787321442.36,-0.013029154373155974,0.0005145771865779867,0.003,0.343,-6.07,-7.08
1621787321445.986,-0.016,0.002,0.003,0.347601205136546,-6.07,-7.084601205136546
1621787321450.868,-0.019,0.005,0.01,0.35379604070821136,-6.07,-7.090796040708211
1621787321455.748,-0.019,0.01,0.009,0.3599887076537014,-6.07,-7.0969887076537015
1621787321458.121,-0.019,0.007568541124674805,0.011431458875325195,0.363,-6.07,-7.1
1621787321460.628,-0.019,0.005,0.014,0.3598182944967774,-6.073181705503223,-7.109386031234506
1621787321465.508,-0.019,0.007,0.009,0.35362438026772436,-6.079375619732276,-7.127658078210213
1621787321470.387,-0.017,0.01,0.014,0.34743201536936047,-6.085567984630639,-7.145925554660386
1621787321473.879,-0.018431087097903847,0.011431087097903848,0.012568912902096153,0.343,-6.09,-7.159
1621787321475.267,-0.019,0.012,0.012,0.3447624176675707,-6.091762417667571,-7.157237582332429
1621787321480.145,-0.016,0.009,0.014,0.35095536613715617,-6.097955366137156,-7.151044633862844
1621787321485.023,-0.012,0.016,0.016,0.35714831460674157,-6.104148314606742,-7.144851685393259
1621787321489.632,-0.013890168201842211,0.010329495394473368,0.01410983179815779,0.363,-6.11,-7.139
1621787321489.9,-0.014,0.01,0.014,0.36265990823412697,-6.11,-7.139
1621787321494.778,-0.003,0.016,0.016,0.3564654017857143,-6.11,-7.139
1621787321499.655,-0.005,0.014,0.017,0.35027244543650793,-6.11,-7.139
1621787321504.531,-0.002,0.01,0.019,0.3440807291666667,-6.11,-7.139
1621787321505.382,-0.002,0.009476366913679151,0.0186509112757861,0.343,-6.11,-7.139
1621787321509.407,-0.002,0.007,0.017,0.343,-6.099774697244577,-7.134142981191174
1621787321514.283,0.0,0.014,0.021,0.343,-6.087387232326992,-7.128258935355321
1621787321519.159,-0.005,0.01,0.023,0.343,-6.074999767409406,-7.122374889519468
1621787321521.127,-0.002981116008815869,0.011615107192947305,0.023,0.343,-6.07,-7.12
1621787321524.033,0.0,0.014,0.023,0.343,-6.073692512912783,-7.116307487087218
1621787321528.908,-0.005,0.016,0.024,0.343,-6.07988692590467,-7.11011307409533
1621787321533.781,-0.003,0.017,0.024,0.343,-6.086078857160584,-7.103921142839416
1621787321536.867,-0.006798076923076922,0.015100961538461539,0.026532051282051283,0.343,-6.09,-7.1
1621787321538.656,-0.009,0.014,0.028,0.34743397719339075,-6.092273834458149,-7.10443397719339
1621787321543.528,-0.014,0.017,0.023,0.35950882010705143,-6.09846606159336,-7.116508820107051
1621787321548.401,-0.012,0.017,0.028,0.37158547824063304,-6.104659219610581,-7.128585478240633
1621787321552.603,-0.007688376753507014,0.02044929859719439,0.03231162324649299,0.382,-6.11,-7.139
1621787321553.274,-0.007,0.021,0.033,0.3811897327663801,-6.11081026723362,-7.138189732766381
1621787321558.146,0.0,0.019,0.031,0.37530556503926255,-6.1166944349607375,-7.132305565039263
1621787321563.018,-0.005,0.021,0.033,0.369421397312145,-6.122578602687855,-7.1264213973121455
1621787321567.888,-0.003,0.021,0.031,0.3635398832986747,-6.128460116701325,-7.120539883298675
1621787321568.335,-0.0025412407296051313,0.021275255562236924,0.031183503708157947,0.363,-6.129,-7.12
1621787321572.76,0.002,0.024,0.033,0.363,-6.131813479867126,-7.103400468783956
1621787321577.629,0.005,0.014,0.037,0.363,-6.13490916146658,-7.0851359473471796
1621787321582.5,0.003,0.023,0.035,0.363,-6.138006240104312,-7.066863183384558
1621787321584.063,0.003641868859033487,0.023,0.03564186885903349,0.363,-6.139,-7.061
1621787321587.37,0.005,0.023,0.037,0.3547974412321833,-6.132900661429059,-7.056793559606248
1621787321592.238,0.003,0.024,0.038,0.3427237058659131,-6.123922755643885,-7.050601900444058
1621787321597.107,0.0,0.028,0.037,0.33064754836505916,-6.114943048784275,-7.044408999161569
1621787321599.787,-0.001651654964894684,0.02689889669007021,0.037,0.324,-6.11,-7.041
1621787321601.975,-0.003,0.026,0.037,0.324,-6.11,-7.041
1621787321606.843,-0.002,0.024,0.038,0.324,-6.11,-7.041
1621787321611.711,-0.005,0.024,0.037,0.324,-6.11,-7.041
1621787321615.506,-0.00889892149485829,0.024,0.039339352896914974,0.324,-6.11,-7.041
1621787321616.578,-0.01,0.024,0.04,0.324,-6.1112958302262,-7.042364031817052
1621787321621.445,-0.014,0.028,0.037,0.324,-6.117180493412876,-7.048558414118817
1621787321626.311,-0.014,0.031,0.038,0.324,-6.123063680710912,-7.054751242853592
1621787321631.177,-0.014,0.035,0.042,0.324,-6.128946868008948,-7.0609440715883665
1621787321631.221,-0.013981934059316506,0.03491870326692428,0.041963868118633015,0.324,-6.129,-7.061
1621787321636.042,-0.012,0.026,0.038,0.324,-6.138205059278711,-7.061
1621787321640.907,-0.01,0.033,0.044,0.324,-6.14749402551393,-7.061
1621787321645.772,-0.014,0.035,0.037,0.324,-6.156782991749149,-7.061
1621787321646.933,-0.014716157205240176,0.03571615720524018,0.03867103347889374,0.324,-6.159,-7.061
1621787321650.636,-0.017,0.038,0.044,0.3192846994450576,-6.1681948360821375,-7.056284699445057
1621787321655.5,-0.012,0.035,0.045,0.31309079603923456,-6.180272947723493,-7.0500907960392345
1621787321660.363,-0.009,0.042,0.04,0.30689813620183115,-6.19234863440643,-7.043898136201832
1621787321662.639,-0.007128018474823033,0.037788041568351825,0.040935990762588484,0.304,-6.198,-7.041
1621787321665.226,-0.005,0.033,0.042,0.3007042980655595,-6.1947042980655596,-7.0474266187721595
1621787321670.088,-0.005,0.037,0.038,0.2945109784163712,-6.188510978416371,-7.059503592088077
1621787321674.951,0.002,0.031,0.044,0.2883161037506997,-6.1823161037507,-7.071583597686136
1621787321678.339,0.005484308310318855,0.030303138337936228,0.04260627667587246,0.284,-6.178,-7.08
1621787321679.813,0.007,0.03,0.042,0.28033779748016796,-6.174337797480168,-7.076337797480168
1621787321684.674,0.002,0.037,0.04,0.2682592627158189,-6.162259262715819,-7.064259262715819
1621787321689.535,0.005,0.035,0.038,0.2561813345776948,-6.150181334577695,-7.052181334577695
1621787321694.035,0.0031481890792183654,0.035,0.03707409453960918,0.245,-6.139,-7.041
1621787321694.395,0.003,0.035,0.037,0.2445640100188242,-6.13945893682229,-7.040105073196534
1621787321699.256,0.005,0.031,0.038,0.23867858865259262,-6.145654117207798,-7.0280244714447955
1621787321704.115,0.003,0.031,0.035,0.23279582756421227,-6.151846497300829,-7.015949330263383
1621787321708.974,0.0,0.028,0.035,0.226912770889404,-6.15803918853747,-7.003873582351934
1621787321709.728,0.0,0.02629357982517834,0.034224354465990155,0.226,-6.159,-7.002
1621787321713.834,0.0,0.017,0.03,0.21553095334433067,-6.163972797161443,-7.002
1621787321718.692,0.0,0.026,0.031,0.20314463568738522,-6.169856298048492,-7.002
1621787321723.55,-0.005,0.024,0.03,0.19075769553985494,-6.175740094618569,-7.002
1621787321725.416,-0.005768372373579974,0.024768372373579973,0.030384186186789987,0.186,-6.178,-7.002
1621787321728.407,-0.007,0.026,0.031,0.18981354085603114,-6.17437713618677,-7.009436404669261
1621787321733.265,-0.002,0.023,0.026,0.1960074708171206,-6.168492902723735,-7.0215145680933855
1621787321738.122,-0.005,0.021,0.024,0.20220046692607002,-6.162609556420233,-7.033590910505837
1621787321741.102,-0.0019316239316239316,0.021,0.026454700854700856,0.206,-6.159,-7.041
1621787321742.978,0.0,0.021,0.028,0.206,-6.159,-7.041
1621787321747.834,0.0,0.017,0.024,0.206,-6.159,-7.041
1621787321752.689,0.0,0.017,0.024,0.206,-6.159,-7.041
1621787321756.783,0.001686173956762192,0.017,0.024,0.206,-6.159,-7.041
1621787321757.545,0.002,0.017,0.024,0.20697213786229343,-6.159,-7.040076469030821
1621787321762.399,0.0,0.017,0.019,0.21316503916896384,-6.159,-7.034193212789485
1621787321767.254,0.002,0.019,0.024,0.21935918640689,-6.159,-7.028308772913455
1621787321772.107,0.0,0.012,0.024,0.22555084178230467,-6.159,-7.022426700306811
1621787321772.459,0.0,0.012362639573483554,0.02378241625590987,0.226,-6.159,-7.022
1621787321776.961,0.0,0.017,0.021,0.226,-6.1532548252924775,-7.022
1621787321781.815,0.0,0.019,0.024,0.226,-6.1470603804153106,-7.022
1621787321786.667,-0.007,0.021,0.024,0.226,-6.140868428021747,-7.022
1621787321788.131,-0.004888167823724721,0.019793238756414127,0.023698309689103532,0.226,-6.139,-7.022
1621787321791.52,0.0,0.017,0.023,0.2216738141245403,-6.139,-7.026109876581687
1621787321796.371,-0.003,0.017,0.023,0.21548108209187808,-6.139,-7.031992972012716
1621787321801.223,-0.002,0.014,0.023,0.209287415071994,-6.139,-7.037876955681606
1621787321803.798,-0.002530743685216866,0.015061487370433732,0.023,0.206,-6.139,-7.041
1621787321806.075,-0.003,0.016,0.023,0.2003310525413426,-6.1375464237285495,-7.046668947458658
1621787321810.925,-0.002,0.017,0.016,0.18825520971336834,-6.1344500537726585,-7.058744790286632
1621787321815.775,-0.005,0.017,0.021,0.1761799747502299,-6.131353839679546,-7.070820025249771
1621787321819.462,-0.0012053369516056081,0.013205336951605608,0.022517865219357756,0.167,-6.129,-7.08
1621787321820.633,0.0,0.012,0.023,0.167,-6.129727910046888,-7.078616970910912
1621787321825.624,0.0,0.012,0.014,0.167,-6.1328299874053505,-7.072723023929834
1621787321830.614,0.0,0.007,0.012,0.167,-6.13593145779275,-7.0668302301937755
1621787321835.551,0.0019787660844464016,0.005021233915553598,0.013978766084446401,0.167,-6.139,-7.061
1621787321835.604,0.002,0.005,0.014,0.1671282214444798,-6.139065754586913,-7.061062466857567
1621787321840.594,0.0,0.012,0.012,0.17920526339711831,-6.14525910943442,-7.066946153962698
1621787321845.584,0.002,0.009,0.01,0.19128230534975682,-6.151452464281927,-7.07282984106783
1621787321850.575,0.003,0.007,0.012,0.20336171083132584,-6.157647031195552,-7.078714679635774
1621787321851.665,0.004310729487744019,0.006563090170751994,0.01134463525612799,0.206,-6.159,-7.08
1621787321855.565,0.009,0.005,0.009,0.20115990728256095,-6.159,-7.084840092717439
1621787321860.555,0.01,0.0,0.012,0.19496692775008712,-6.159,-7.091033072249913
1621787321865.546,0.01,0.0,0.003,0.18877273622494584,-6.159,-7.0972272637750535
1621787321867.78,0.010895444982631244,0.0,0.007029502421840599,0.186,-6.159,-7.1
1621787321870.536,0.012,0.0,0.012,0.18275096574813288,-6.159,-7.096579963945403
1621787321875.526,0.017,0.0,0.003,0.17686799169835332,-6.159,-7.090387359682477
1621787321880.516,0.023,-0.005,0.005,0.17098472981775764,-6.159,-7.084194452439744
1621787321883.896,0.0236772000195666,-0.005,0.0063544000391332,0.167,-6.159,-7.08
1621787321885.507,0.024,-0.005,0.007,0.168899625774586,-6.156000590882233,-7.078100374225414
1621787321890.497,0.023,-0.007,0.0,0.1747833128797176,-6.146710558610972,-7.0722166871202825
1621787321895.487,0.024,-0.007,0.002,0.18066699998484917,-6.137420526339711,-7.066333000015151
1621787321900.01,0.025812454140781683,-0.0024688646480457857,0.00018754585921831445,0.186,-6.129,-7.061
1621787321900.478,0.026,-0.002,0.0,0.18544819488842093,-6.127867347402548,-7.057863423576287
1621787321905.468,0.024,-0.009,0.0,0.1795648643325708,-6.1157910373142235,-7.0244213341009285
1621787321910.459,0.019,-0.012,-0.003,0.17368038238368658,-6.103712363840199,-6.990972699865166
1621787321915.449,0.017,-0.005,0.0,0.16779705182783644,-6.091636053751874,-6.957530610389807
1621787321916.125,0.015103331865551153,-0.0055419051812710994,-0.00040642888595332456,0.167,-6.09,-6.953
1621787321920.439,0.003,-0.009,-0.003,0.167,-6.095353977608435,-6.942559743663551
1621787321925.429,-0.002,-0.007,-0.002,0.167,-6.1015469571409096,-6.930483433575227
1621787321930.42,-0.007,-0.017,-0.007,0.167,-6.107741148666051,-6.918404760101201
1621787321932.24,-0.009552707528249278,-0.015176637479821944,-0.004447292471750722,0.167,-6.11,-6.914
1621787321935.411,-0.014,-0.012,0.0,0.17467298341286072,-6.127313398470045,-6.910065136711354
1621787321940.401,-0.021,-0.016,-0.003,0.18674783003862758,-6.154559206241006,-6.903872907672499
1621787321945.392,-0.021,-0.01,0.0,0.19882563053851396,-6.181811679163827,-6.897679163826403
1621787321948.357,-0.026347424042272125,-0.0070292088654043735,-0.0017824746807573756,0.206,-6.198,-6.894
1621787321950.382,-0.03,-0.005,-0.003,0.20851287488639805,-6.1930998939715245,-6.901412980914874
1621787321955.373,-0.028,-0.009,-0.005,0.21470584671311724,-6.181023598909421,-6.919682247803696
1621787321960.363,-0.017,-0.023,-0.005,0.2208976067858225,-6.168949666767646,-6.9379479400181765
1621787321964.475,-0.02606290661840239,-0.013937093381597614,-0.009119503008364721,0.226,-6.159,-6.953
1621787321965.354,-0.028,-0.012,-0.01,0.22812678936605318,-6.161126789366053,-6.948691888207226
1621787321970.345,-0.037,-0.019,-0.009,0.24020399909111567,-6.173203999091116,-6.924227796712868
1621787321975.335,-0.038,-0.014,-0.009,0.2522788457168825,-6.185278845716883,-6.899768492009391
1621787321980.326,-0.045,-0.012,-0.012,0.264356055441945,-6.197356055441945,-6.875304400515034
1621787321980.592,-0.045,-0.012,-0.01184001174225745,0.265,-6.198,-6.874
1621787321985.316,-0.045,-0.012,-0.009,0.276431594734211,-6.2152939510081655,-6.8798623562739545
1621787321990.307,-0.049,-0.005,-0.005,0.2885095362894063,-6.233565708745512,-6.886056172456105
1621787321995.297,-0.051,-0.007,-0.007,0.3005857054127342,-6.251834785111572,-6.892249079698838
1621787321996.708,-0.04930386929511324,-0.007,-0.0058692461967421615,0.304,-6.257,-6.894
1621787322000.288,-0.045,-0.007,-0.003,0.29955710411901043,-6.265663646967929,-6.9026636469679294
1621787322005.279,-0.049,-0.005,-0.003,0.293363287936859,-6.277741588523125,-6.914741588523125
1621787322010.269,-0.047,-0.007,-0.003,0.2871706836739331,-6.289817166835831,-6.92681716683583
1621787322012.824,-0.04802382233527369,-0.005976177664726312,-0.003,0.284,-6.296,-6.933
1621787322015.26,-0.049,-0.005,-0.003,0.2811281981367871,-6.290105248807089,-6.952346875710066
1621787322020.25,-0.037,-0.005,-0.002,0.275245580549875,-6.278030402181322,-6.991977141558737
1621787322025.241,-0.031,-0.005,-0.005,0.26936181170946,-6.2659531924562595,-7.03161516322048
1621787322028.941,-0.02877601134862789,-0.013895954605488432,-0.006482659100914738,0.265,-6.257,-7.061
1621787322030.232,-0.028,-0.017,-0.007,0.2633979641299079,-6.252273994183228,-7.061
1621787322035.222,-0.023,-0.016,-0.009,0.25720582888996607,-6.2340071952253995,-7.061
1621787322040.214,-0.017,-0.017,-0.012,0.25101096703829373,-6.215732352762966,-7.061
1621787322045.058,-0.017,-0.017,-0.010058515582954156,0.245,-6.198,-7.061
1621787322045.204,-0.017,-0.017,-0.01,0.24482787717198648,-6.198172122828014,-7.060284331399312
1621787322050.195,-0.005,-0.031,-0.016,0.2389437517989426,-6.2040562482010575,-7.035818757479814
1621787322055.186,-0.012,-0.021,-0.019,0.23305962642589872,-6.209940373574101,-7.011353183560316
1621787322060.176,-0.007,-0.03,-0.017,0.22717665237611914,-6.21582334762388,-6.986892396721759
1621787322061.174,-0.007599911950300837,-0.03019997065010028,-0.01680002934989972,0.226,-6.217,-6.982
1621787322065.167,-0.01,-0.031,-0.016,0.2307071877603575,-6.212292812239642,-6.969860410512762
1621787322070.158,-0.014,-0.028,-0.021,0.23659095660077256,-6.206409043399227,-6.954686480345376
1621787322075.149,-0.019,-0.028,-0.017,0.24247472544118762,-6.200525274558813,-6.93951255017799
1621787322077.291,-0.019,-0.028,-0.015712419899232014,0.245,-6.198,-6.933
1621787322080.14,-0.019,-0.028,-0.014,0.2485346146273494,-6.204892498523332,-6.936534614627349
1621787322085.13,-0.019,-0.031,-0.019,0.25472571826676965,-6.216965150620201,-6.94272571826677
1621787322090.121,-0.026,-0.031,-0.019,0.2609183364381238,-6.229040756054341,-6.948918336438124
1621787322093.411,-0.027318299662476155,-0.02902255050628577,-0.01702255050628577,0.265,-6.237,-6.953
1621787322095.112,-0.028,-0.028,-0.016,0.2670052102265843,-6.239110747606931,-6.953
1621787322100.103,-0.026,-0.03,-0.017,0.2728881770265358,-6.245303344238459,-6.953
1621787322105.094,-0.026,-0.031,-0.016,0.2787711438264873,-6.251495940869987,-6.953
1621787322109.53,-0.024222374406887442,-0.034555251186225114,-0.00977831042410605,0.284,-6.257,-6.953
1621787322110.085,-0.024,-0.035,-0.009,0.2826573315359799,-6.25834266846402,-6.953998394498887
1621787322115.075,-0.024,-0.042,-0.017,0.27058394801811486,-6.270416051981885,-6.9629760386531965
1621787322120.066,-0.023,-0.038,-0.014,0.2585082016872908,-6.2824917983127095,-6.971955439770989
1621787322125.057,-0.024,-0.031,-0.016,0.24643245535646668,-6.294567544643534,-6.980934840888781
1621787322125.649,-0.023406916454705537,-0.03206755038153003,-0.016,0.245,-6.296,-6.982
1621787322130.048,-0.019,-0.04,-0.016,0.23435627953471463,-6.296,-6.982
1621787322135.04,-0.017,-0.044,-0.016,0.22227835332606324,-6.296,-6.982
1621787322140.03,-0.016,-0.044,-0.016,0.2102051526717557,-6.296,-6.982
1621787322141.768,-0.016348236560191753,-0.044,-0.015303526879616496,0.206,-6.296,-6.982
1621787322145.021,-0.017,-0.044,-0.014,0.21003665833522683,-6.291963341664773,-6.976146845413921
1621787322150.013,-0.014,-0.04,-0.017,0.2162313110656669,-6.285768688934333,-6.967164598954783
1621787322155.003,-0.023,-0.04,-0.014,0.2224235401045217,-6.279576459895478,-6.958185866848444
1621787322157.885,-0.021845363849765258,-0.04,-0.015154636150234742,0.226,-6.276,-6.953
1621787322159.995,-0.021,-0.04,-0.016,0.22848742028809887,-6.2682759054211665,-6.950381662854633
1621787322164.985,-0.024,-0.045,-0.014,0.23436968145533862,-6.250009936533422,-6.9441898089943805
1621787322169.977,-0.024,-0.045,-0.012,0.2402542449900786,-6.231736818188703,-6.937995531589391
1621787322174.003,-0.028839798464021914,-0.04258010076798904,-0.01603316538668493,0.245,-6.217,-6.933
1621787322174.968,-0.03,-0.042,-0.017,0.245,-6.218197515904271,-6.9341975159042715
1621787322179.958,-0.031,-0.042,-0.019,0.245,-6.224389275976977,-6.940389275976977
1621787322184.95,-0.031,-0.042,-0.017,0.245,-6.230583459557709,-6.94658345955771
1621787322189.94,-0.03,-0.044,-0.028,0.245,-6.236775219630415,-6.952775219630415
1621787322190.121,-0.029927422115713795,-0.04425402259500171,-0.027927422115713797,0.245,-6.237,-6.953
1621787322194.932,-0.028,-0.051,-0.026,0.28022001242066674,-6.272220012420667,-6.953
1621787322199.923,-0.028,-0.051,-0.03,0.3167608870173738,-6.308760887017374,-6.953
1621787322204.914,-0.017,-0.056,-0.03,0.35329997424983717,-6.345299974249838,-6.953
1621787322206.239,-0.015142074631975352,-0.054938328361128774,-0.03,0.363,-6.355,-6.953
1621787322209.906,-0.01,-0.052,-0.03,0.36732184395444634,-6.355,-6.955274654712866
1621787322214.896,0.0,-0.047,-0.035,0.37320294705597284,-6.355,-6.958369972134722
1621787322219.888,0.002,-0.045,-0.033,0.3790863520717228,-6.355,-6.9614665010903805
