time,gyro_x,gyro_y,gyro_z,acc_x,acc_y,acc_z
1621785337470.894,-0.042,0.082,0.089,,,
1621785337475.895,-0.044,0.082,0.093,,,
1621785337480.896,-0.044,0.089,0.091,,,
1621785337485.896,-0.049,0.084,0.093,,,
1621785337490.898,-0.059,0.087,0.096,,,
1621785337495.899,-0.066,0.089,0.096,,,
1621785337499.11,-0.07049477641085725,0.09349477641085725,0.10242110915836751,0.206,-5.07,-7.62
1621785337500.9,-0.073,0.096,0.106,0.20167865239865784,-5.072216075692996,-7.6308587708956805
1621785337505.902,-0.082,0.106,0.112,0.1896011607871588,-5.07840966113479,-7.661207339560473
1621785337510.903,-0.091,0.112,0.115,0.17752661648680512,-5.084601735134972,-7.691548502161361
1621785337515.263,-0.09274326434986334,0.112,0.112385103475205,0.167,-5.09,-7.718
1621785337515.905,-0.093,0.112,0.112,0.1623100300735972,-5.093895059769385,-7.723842589654078
1621785337520.906,-0.098,0.119,0.119,0.1257817624034698,-5.124232095631016,-7.769348143446525
1621785337525.907,-0.099,0.127,0.12,0.0892534947333424,-5.154569131492647,-7.814853697238972
1621785337530.908,-0.094,0.126,0.12,0.052725227063215,-5.184906167354279,-7.860359251031419
1621785337531.418,-0.09298037875829754,0.125592151503319,0.12,0.049,-5.188,-7.865
1621785337535.91,-0.084,0.122,0.12,0.016191809595768797,-5.1988433849641105,-7.886686769928221
1621785337540.911,-0.077,0.12,0.115,-0.020334250094446546,-5.210915557234605,-7.91083111446921
1621785337545.912,-0.068,0.117,0.105,-0.05686209293539857,-5.22298831885153,-7.93497663770306
1621785337547.574,-0.06567475112238923,0.11401039430021473,0.10533217841108725,-0.069,-5.227,-7.943
1621785337550.915,-0.061,0.108,0.106,-0.09319708029197081,-5.235065693430657,-7.9349343065693425
1621785337555.916,-0.054,0.106,0.098,-0.1294157863716734,-5.2471385954572245,-7.922861404542775
1621785337560.917,-0.045,0.101,0.094,-0.16563449245137596,-5.2592114974837925,-7.9107885025162075
1621785337563.729,-0.04331312243702402,0.10324917008396797,0.09231312243702401,-0.186,-5.266,-7.904
1621785337565.918,-0.042,0.105,0.091,-0.19927874748757007,-5.258005652022789,-7.911994347977211
1621785337570.919,-0.031,0.105,0.086,-0.2296157833492013,-5.239741518187726,-7.930258481812274
1621785337575.921,-0.03,0.096,0.08,-0.2599587432561091,-5.221473817835608,-7.948526182164392
1621785337579.884,-0.03,0.0880756651208201,0.07603783256041005,-0.284,-5.207,-7.963
1621785337580.922,-0.03,0.086,0.075,-0.2877916660369088,-5.205778955005063,-7.966791666036909
1621785337585.923,-0.023,0.082,0.073,-0.30605800825234647,-5.199896573613651,-7.985058008252347
1621785337590.926,-0.026,0.079,0.063,-0.32433148436437287,-5.19401189486571,-8.003331484364374
1621785337595.927,-0.019,0.073,0.065,-0.3425978265798105,-5.188129513474298,-8.02159782657981
1621785337596.037,-0.019110107421874998,0.07304404296875,0.064801806640625,-0.343,-5.188,-8.022
1621785337600.927,-0.024,0.075,0.056,-0.33119598035511905,-5.19375067623725,-8.078296093690971
1621785337605.929,-0.01,0.072,0.058,-0.3191214506989044,-5.1996331394030975,-8.135882312051379
1621785337610.93,-0.003,0.061,0.054,-0.3070492784284095,-5.20551445409898,-8.193457287495278
1621785337612.193,-0.0017370630736184341,0.059231888303065805,0.05324223784417106,-0.304,-5.207,-8.208
1621785337615.931,0.002,0.054,0.051,-0.29497642436149313,-5.211627474686414,-8.212627474686414
1621785337620.933,0.016,0.042,0.047,-0.28290039292730845,-5.217820311319329,-8.218820311319329
1621785337625.934,0.03,0.033,0.044,-0.2708273084479371,-5.2240116366933655,-8.225011636693365
1621785337628.348,0.03579090199140961,0.033,0.042069699336196795,-0.265,-5.227,-8.228
1621785337630.936,0.042,0.033,0.04,-0.24289155370177268,-5.220751960828762,-8.210697737679649
1621785337635.938,0.049,0.024,0.037,-0.20016371220020857,-5.208676701273972,-8.177258557374076
1621785337640.938,0.052,0.017,0.035,-0.15745255474452557,-5.196606156775626,-8.143832434147889
1621785337644.503,0.061267037687951574,0.02127709431751611,0.03214860378832259,-0.127,-5.188,-8.12
1621785337645.939,0.065,0.023,0.031,-0.11571221988848426,-5.186222396832832,-8.114756070656854
1621785337650.941,0.073,0.021,0.031,-0.07639497423654029,-5.18003070460418,-8.09649057858233
1621785337655.942,0.086,0.026,0.03,-0.03708540473564122,-5.173840221218211,-8.078228652593722
1621785337660.66,0.08694318902825907,0.021284054858704674,0.03,0.0,-5.168,-8.061
1621785337660.944,0.087,0.021,0.03,0.001213525927716669,-5.167314094040856,-8.059276441435996
1621785337665.946,0.093,0.019,0.03,0.022573250332406626,-5.155241206333857,-8.028939441556872
1621785337670.947,0.106,0.028,0.03,0.043928804544905116,-5.14317067569201,-7.99860836455941
1621785337675.948,0.105,0.031,0.03,0.06528435875740361,-5.131100145050163,-7.968277287561949
1621785337676.818,0.10621792618629174,0.031,0.029652021089630932,0.069,-5.129,-7.963
1621785337680.949,0.112,0.031,0.028,0.09405909022215506,-5.113913404866254,-7.957885899954662
1621785337685.95,0.115,0.03,0.031,0.12439658455493427,-5.095648995012846,-7.951694574580626
1621785337690.952,0.115,0.033,0.035,0.15474000302251778,-5.0773810185884845,-7.945502040199486
1621785337692.973,0.11702060144503026,0.03461648115602421,0.036212360867018165,0.167,-5.07,-7.943
1621785337695.953,0.12,0.037,0.038,0.19596045095283432,-5.066310770579257,-7.943
1621785337700.954,0.126,0.044,0.042,0.244563993290112,-5.060119236523553,-7.943
1621785337705.955,0.133,0.054,0.051,0.29316516298680695,-5.053928004715057,-7.943
1621785337709.128,0.13173160257661526,0.055268397423384734,0.055439390981846574,0.324,-5.05,-7.943
1621785337710.958,0.131,0.056,0.058,0.3305703707062006,-5.045581992111348,-7.943
1621785337715.958,0.138,0.061,0.059,0.3485214368832268,-5.0335114476130025,-7.943
1621785337720.96,0.141,0.063,0.068,0.3664795151954784,-5.021436188058213,-7.943
1621785337725.283,0.1487798769771529,0.07077987697715289,0.07145772310095684,0.382,-5.011,-7.943
1621785337725.961,0.15,0.072,0.072,0.38120262652823744,-5.006887231566698,-7.9413632860316445
1621785337730.962,0.157,0.072,0.077,0.3753209563101661,-4.976550195705068,-7.9292903840050775
1621785337735.964,0.155,0.077,0.08,0.36943785041785676,-4.94620575478684,-7.917214535068232
1621785337740.965,0.159,0.077,0.08,0.3635561801997854,-4.915868718925209,-7.905141633041665
1621785337741.438,0.1585272842639594,0.07718908629441625,0.07971637055837563,0.363,-4.913,-7.904
1621785337745.967,0.154,0.079,0.077,0.34085373630525123,-4.888330744238761,-7.857184480544012
1621785337750.969,0.161,0.082,0.08,0.3163950736683037,-4.861085651681148,-7.805480725349452
1621785337755.969,0.154,0.091,0.08,0.2919459614658103,-4.8338511975821685,-7.753797159047979
1621785337757.594,0.1517254442491701,0.0903501269283343,0.07967506346416715,0.284,-4.825,-7.737
1621785337760.97,0.147,0.089,0.079,0.2144117513714467,-4.816850024935395,-7.683711701500657
1621785337765.972,0.14,0.091,0.068,0.11130761209593326,-4.804774765380604,-7.604758081334724
1621785337770.973,0.126,0.093,0.052,0.00822360248447207,-4.792701863354037,-7.525819875776397
1621785337773.749,0.1198952120650105,0.09189003855727464,0.05033505783591195,-0.049,-4.786,-7.482
1621785337775.975,0.115,0.091,0.049,-0.06787898801517372,-4.799504677558299,-7.476625689543126
1621785337780.977,0.098,0.101,0.037,-0.11029977178956278,-4.829849471791074,-7.464549700001511
1621785337785.978,0.08,0.11,0.037,-0.1527122734898061,-4.860188341620446,-7.452476068130639
1621785337789.903,0.0721514352665495,0.10450600468658465,0.029936291739894552,-0.186,-4.884,-7.443
1621785337790.979,0.07,0.103,0.028,-0.18992970710032342,-4.88986125804794,-7.4587188284012935
1621785337795.98,0.059,0.108,0.03,-0.20819522111054015,-4.917104736571654,-7.531780884442161
1621785337800.981,0.044,0.105,0.024,-0.22646073512075687,-4.944348215095367,-7.604842940483028
1621785337805.983,0.035,0.103,0.019,-0.24472981591754073,-4.971597013571926,-7.677919263670163
1621785337806.057,0.034837287639132984,0.1027929115407147,0.019,-0.245,-4.972,-7.679
1621785337810.984,0.024,0.089,0.019,-0.22700711749149982,-4.9899928825085,-7.729624042312052
1621785337815.985,0.019,0.091,0.014,-0.2087431960710238,-5.008256803928976,-7.781010668681526
1621785337820.988,0.009,0.07,0.01,-0.1904730336229694,-5.0265269663770304,-7.832414854552323
1621785337822.213,0.009734768599882836,0.06706092560046867,0.007550771333723882,-0.186,-5.031,-7.845
1621785337825.989,0.012,0.058,0.0,-0.1493023681068746,-5.063022774327122,-7.854349715132006
1621785337830.99,0.009,0.052,0.0,-0.10070119841017969,-5.105432712215321,-7.8667321787489985
1621785337835.991,0.01,0.04,-0.002,-0.052100028713484764,-5.14784265010352,-7.879114642365991
1621785337838.368,0.013327084553798087,0.03572231985940246,-0.00342589338019918,-0.029,-5.168,-7.885
1621785337840.992,0.017,0.031,-0.005,0.009163576749316286,-5.174333529758397,-7.878504072042669
1621785337845.993,0.023,0.028,-0.01,0.08189736034933441,-5.186404242781379,-7.86612385355756
1621785337850.995,0.023,0.021,0.0,0.15464889775319945,-5.1984779021803185,-7.853740613148391
1621785337854.526,0.023,0.028060144503026754,0.0,0.206,-5.207,-7.845
1621785337855.996,0.023,0.031,0.0,0.21846866262638476,-5.207,-7.84682024271918
1621785337860.998,0.026,0.031,0.003,0.26088944640077383,-5.207,-7.853013057868726
1621785337866.0,0.026,0.035,0.01,0.30331023017516284,-5.207,-7.859205873018272
1621785337870.68,0.0297439453125,0.03687197265625,0.020295849609375,0.343,-5.207,-7.865
1621785337871.0,0.03,0.037,0.021,0.342227366830374,-5.206623588968643,-7.86460377786173
1621785337876.001,0.031,0.04,0.023,0.33015519455987913,-5.200742274272762,-7.858412920287117
1621785337881.003,0.03,0.044,0.03,0.31808066490366455,-5.194859811106913,-7.852220853796751
1621785337886.004,0.033,0.037,0.033,0.30600849263316965,-5.188978496411031,-7.846029996222138
1621785337886.836,0.0326672524897481,0.037,0.033,0.304,-5.188,-7.845
1621785337891.005,0.031,0.037,0.033,0.28877545901020024,-5.1727754590102,-7.8297754590102
1621785337896.007,0.035,0.035,0.037,0.2705079712882508,-5.1545079712882504,-7.8115079712882505
1621785337901.009,0.026,0.037,0.033,0.25224137514166983,-5.13624137514167,-7.79324137514167
1621785337902.992,0.027586018355789884,0.04017203671157977,0.03379300917789495,0.245,-5.129,-7.786
1621785337906.01,0.03,0.045,0.035,0.22669173807256954,-5.1142412990585,-7.780582249021474
1621785337911.011,0.031,0.047,0.038,0.19635470221093831,-5.08978593341494,-7.771604962899155
1621785337916.012,0.026,0.044,0.038,0.1660176663493071,-5.06533056777138,-7.762627676776836
1621785337919.147,0.024746485747754784,0.044,0.03737324287387739,0.147,-5.05,-7.757
1621785337921.014,0.024,0.044,0.037,0.1379859908419096,-5.04098599084191,-7.750181711021444
1621785337926.015,0.017,0.042,0.04,0.11384018678877453,-5.016840186788775,-7.731917577186381
1621785337931.016,0.005,0.051,0.04,0.08969320397152832,-4.992693203971529,-7.7136525517220536
1621785337935.302,-0.0035701034954110514,0.051,0.032286906854130056,0.069,-4.972,-7.698
1621785337936.017,-0.005,0.051,0.031,0.06811477143936533,-4.972885228560635,-7.701895005666793
1621785337941.02,-0.005,0.052,0.033,0.06192149603324519,-4.979078503966755,-7.729145417453721
1621785337946.021,-0.014,0.065,0.038,0.055730638458632416,-4.985269361541368,-7.756385190782018
1621785337951.021,-0.019,0.051,0.037,0.049540989799773325,-4.991459010200226,-7.783619644880997
1621785337951.458,-0.019349472862163215,0.05143684107770402,0.03621368606013276,0.049,-4.992,-7.786
1621785337956.023,-0.023,0.056,0.028,0.049,-5.003021598174206,-7.797304203255596
1621785337961.024,-0.016,0.054,0.03,0.049,-5.015095959977631,-7.809688164079621
1621785337966.025,-0.023,0.054,0.023,0.049,-5.027170321781056,-7.822072124903647
1621785337967.611,-0.023951290936600127,0.05114612719019962,0.02014612719019962,0.049,-5.031,-7.826
1621785337971.027,-0.026,0.045,0.014,0.05322936251246864,-5.031,-7.821770637487531
1621785337976.028,-0.024,0.042,0.019,0.05942106217694889,-5.031,-7.815578937823051
1621785337981.031,-0.028,0.045,0.014,0.06561518000181363,-5.031,-7.809384819998186
1621785337983.765,-0.028,0.046093554687499996,0.0129064453125,0.069,-5.031,-7.806
1621785337986.031,-0.028,0.047,0.012,0.0661942021976029,-5.028194202197603,-7.806
1621785337991.032,-0.026,0.044,0.014,0.060002221785590136,-5.02200222178559,-7.806
1621785337996.034,-0.031,0.047,0.01,0.05380903223856234,-5.015809032238562,-7.806
1621785337999.918,-0.030223345049794962,0.04467003514938488,0.0061167252489748095,0.049,-5.011,-7.806
1621785338001.035,-0.03,0.044,0.005,0.04630374008311296,-5.011,-7.803303740083113
1621785338006.036,-0.031,0.037,0.0,0.03423156781261806,-5.011,-7.791231567812618
1621785338011.037,-0.035,0.042,0.0,0.022158806195693243,-5.011,-7.779158806195693
1621785338016.04,-0.038,0.033,-0.003,0.01008191915375898,-5.011,-7.7670819191537595
1621785338016.074,-0.038,0.0330475004881859,-0.002993214215973443,0.01,-5.011,-7.767
1621785338021.041,-0.038,0.04,-0.002,0.021990977920841454,-5.011,-7.7789909779208415
1621785338026.042,-0.044,0.042,-0.002,0.03406387994740898,-5.011,-7.7910638799474095
1621785338031.043,-0.047,0.03,-0.007,0.04613678197397652,-5.011,-7.8031367819739765
1621785338032.229,-0.047,0.03,-0.006051357156805312,0.049,-5.011,-7.806
1621785338036.044,-0.047,0.03,-0.003,0.049,-5.0157229148720734,-7.806
1621785338041.046,-0.052,0.035,-0.005,0.049,-5.021915355669402,-7.806
1621785338046.047,-0.058,0.024,-0.005,0.049,-5.028106889725106,-7.806
1621785338048.384,-0.061271040812341346,0.021663542276899043,-0.006869166178480765,0.049,-5.031,-7.806
1621785338051.048,-0.065,0.019,-0.009,0.058730634947024775,-5.037432114625999,-7.812432114626
1621785338056.051,-0.066,0.019,-0.009,0.07700411105905114,-5.0495111920559825,-7.824511192055983
1621785338061.052,-0.068,0.016,-0.012,0.09527045327448877,-5.061585553859408,-7.836585553859408
1621785338064.537,-0.064514892578125,0.01460595703125,-0.009908935546874999,0.108,-5.07,-7.845
1621785338066.052,-0.063,0.014,-0.009,0.10246702233775655,-5.071875585648218,-7.845
1621785338071.054,-0.068,0.017,-0.012,0.08419794154097271,-5.078068494392891,-7.845
1621785338076.055,-0.061,0.01,-0.012,0.06593242753075598,-5.084260194057371,-7.845
1621785338080.691,-0.0656350810388596,0.01185403241554384,-0.012,0.049,-5.09,-7.845
1621785338081.056,-0.066,0.012,-0.012,0.04988117943990207,-5.09,-7.8459037737845145
1621785338086.058,-0.066,0.003,-0.01,0.06195775839920202,-5.09,-7.858290008614566
1621785338091.059,-0.066,0.007,-0.007,0.0740313902700742,-5.09,-7.870673220789819
1621785338096.061,-0.063,0.002,-0.01,0.0861073798116886,-5.09,-7.8830588510889115
1621785338096.845,-0.063,0.0035675649287248584,-0.01,0.088,-5.09,-7.885
1621785338101.062,-0.063,0.012,-0.01,0.09818162719344649,-5.09,-7.889960279914756
1621785338106.063,-0.065,0.01,-0.007,0.11025598899687136,-5.09,-7.895842661306168
1621785338112.998,-0.0648240928993207,0.009899764647585896,-0.00692274350308004,0.127,-5.09,-7.904
1621785338129.151,-0.06441437785337466,0.009666300893927449,-0.006742801084252382,0.167,-5.031,-7.865
1621785338145.304,-0.0640046566148249,0.009432833611600678,-0.006562855945700127,0.088,-4.992,-7.865
1621785338161.458,-0.06359491060586035,0.009199352214600609,-0.006382899928249481,0.127,-5.011,-7.826
1621785338177.611,-0.06318518936731062,0.008965884932273837,-0.006202954789697226,0.186,-4.992,-7.885
1621785338193.765,-0.06277544955094976,0.008732407063942092,-0.006023001491971177,0.284,-4.972,-7.983
1621785338209.919,-0.062365703541985215,0.008498925666942023,-0.005843045474520532,0.324,-4.972,-7.963
1621785338226.073,-0.06195595753302067,0.008265444269941954,-0.005663089457069887,0.324,-4.992,-7.826
1621785338242.228,-0.061546186753641326,0.00803194875826859,-0.005483122560720851,0.265,-5.011,-7.826
1621785338258.38,-0.06113649647811007,0.007798499119283439,-0.005303191020791583,0.284,-4.952,-7.904
1621785338274.534,-0.060726750469145524,0.0075650177222833705,-0.005123235003340938,0.226,-4.913,-7.983
1621785338290.688,-0.06031700446018098,0.007331536325283302,-0.004943278985890292,0.206,-4.844,-7.943
1621785338306.844,-0.05990720891038683,0.007098026698936641,-0.004763301210642865,0.186,-4.825,-7.826
1621785338322.998,-0.059497462901422285,0.006864545301936573,-0.00458334519319222,0.127,-4.825,-7.806
1621785338339.152,-0.05908771689245774,0.006631063904936504,-0.004403389175741575,0.049,-4.844,-7.845
1621785338355.305,-0.05867800184651169,0.006397600151278056,-0.004223446756913917,0.049,-4.864,-7.904
1621785338371.458,-0.058268280607961936,0.0061641328689512834,-0.004043501618361662,0.088,-4.844,-7.963
1621785338387.615,-0.057858460287753,0.005930609127931326,-0.0038635129642158447,0.108,-4.825,-7.983
1621785338403.77,-0.05744868950837366,0.0056971136162579615,-0.0036835460678668083,0.186,-4.825,-7.943
1621785338419.923,-0.05703896826982391,0.005463646333931189,-0.003503600929314553,0.226,-4.805,-8.041
1621785338436.077,-0.05662922845346306,0.005230168465599445,-0.0033236476315885053,0.245,-4.844,-8.022
1621785338452.232,-0.05621945767408372,0.00499667295392608,-0.003143680735239469,0.206,-4.864,-8.022
1621785338468.386,-0.055809711665119166,0.004763191556926011,-0.002963724717788823,0.206,-4.903,-8.1
1621785338484.541,-0.05539994088573982,0.004529696045252647,-0.0027837578214397873,0.226,-4.864,-8.12
1621785338500.694,-0.05499021964719007,0.004296228762925874,-0.0026038126828875326,0.245,-4.825,-8.12
1621785338516.848,-0.054580479830829226,0.00406275089459413,-0.002423859385161484,0.324,-4.746,-7.963
1621785338533.001,-0.054170758592279475,0.0038292836122673585,-0.002243914246609229,0.343,-4.727,-7.924
1621785338549.152,-0.05376108689455932,0.003595844559287179,-0.002063990865853755,0.304,-4.746,-8.002
1621785338565.307,-0.05335132230778367,0.003362352576282138,-0.0018840266892293164,0.304,-4.727,-7.983
1621785338581.462,-0.05294155152840433,0.003128857064608773,-0.0017040597928802805,0.304,-4.648,-7.983
1621785338597.617,-0.05253178074902499,0.0028953615529354083,-0.0015240928965312437,0.324,-4.668,-7.943
1621785338613.771,-0.05212203474006044,0.0026618801559353403,-0.0013441368790805984,0.226,-4.648,-7.963
1621785338629.922,-0.05171236304234028,0.002428441102955161,-0.001164213498325124,0.01,-4.648,-8.002
1621785338646.073,-0.05130269753722383,0.002195005578643305,-0.0009842928372942473,-0.088,-4.727,-8.179
1621785338662.225,-0.050893001069088874,0.001961552410989829,-0.0008043585776403833,-0.069,-4.707,-8.189
1621785338678.378,-0.05048328602314282,0.0017280886573313812,-0.0006244161588127252,0.0,-4.688,-8.267
1621785338694.533,-0.05007351524376348,0.0014945931456580158,-0.0004444492624636892,0.108,-4.727,-8.267
1621785338710.688,-0.04966374446438414,0.0012610976339846522,-0.00026448236611465326,0.167,-4.746,-8.287
1621785338726.843,-0.049253973685004795,0.0010276021223112868,-8.451546976561732e-05,0.186,-4.688,-8.247
1621785338742.998,-0.048844202905625446,0.0007941066106379215,9.54514265834195e-05,0.226,-4.648,-8.189
1621785338759.152,-0.0484344568966609,0.0005606252136378543,0.0002754074440340648,0.186,-4.57,-8.179
1621785338775.306,-0.04802471708030005,0.00032714734530610995,0.0004553607417601127,0.167,-4.57,-8.228
1621785338791.461,-0.04761494630092071,9.365183363274458e-05,0.0006353276381091486,0.206,-4.55,-8.159
1621785338807.616,-0.04720517552154137,-0.00013984367804062078,0.0008152945344581846,0.284,-4.511,-8.12
1621785338823.771,-0.046795404742162025,-0.0003733391897139844,0.0009952614308072214,0.343,-4.511,-8.179
1621785338839.923,-0.04638570827402706,-0.0006067923573674604,0.0011751956904610854,0.304,-4.511,-8.14
1621785338856.076,-0.04597599322808102,-0.0008402561110259082,0.0013551381092887426,0.324,-4.531,-8.081
1621785338872.23,-0.045566247219116465,-0.0010737375080259771,0.0015350941267393897,0.343,-4.55,-8.159
1621785338888.385,-0.04515647643973712,-0.0013072330196993425,0.0017150610230884248,0.324,-4.59,-8.267
1621785338904.54,-0.04474670566035778,-0.0015407285313727079,0.0018950279194374616,0.324,-4.55,-8.189
1621785338920.693,-0.04433698442180803,-0.0017741958136994786,0.002074973057989717,0.343,-4.55,-8.14
1621785338936.845,-0.043927294146276774,-0.00200764545268463,0.002254904597918983,0.304,-4.57,-8.179
1621785338952.999,-0.043517548137312234,-0.002241126849684699,0.00243486061536963,0.304,-4.55,-8.189
1621785338969.151,-0.04310785786178098,-0.0024745764886698503,0.0026147921552988956,0.304,-4.55,-8.208
1621785338985.306,-0.04269808708240164,-0.0027080720003432156,0.0027947590516479324,0.324,-4.57,-8.208
1621785339001.458,-0.042288390614266674,-0.0029415251679966916,0.0029746933113017964,0.324,-4.531,-8.189
1621785339017.611,-0.04187866937571693,-0.003174992450323464,0.003154638449854052,0.324,-4.491,-8.179
1621785339033.763,-0.041468979100185675,-0.0034084420893086154,0.0033345699897833194,0.304,-4.511,-8.189
1621785339049.917,-0.04105923309122113,-0.0036419234863086843,0.0035145260072339648,0.304,-4.491,-8.208
1621785339066.069,-0.04064953662308617,-0.0038753766539621603,0.0036944602668878288,0.304,-4.491,-8.208
1621785339082.223,-0.04023979680672533,-0.004108854522293905,0.0038744135646138775,0.304,-4.491,-8.189
1621785339098.377,-0.03983005079776078,-0.004342335919293972,0.004054369582064523,0.304,-4.482,-8.189
1621785339114.531,-0.03942030478879623,-0.004575817316294041,0.004234325599515168,0.304,-4.482,-8.189
1621785339130.684,-0.03901058355024648,-0.004809284598620813,0.004414270738067424,0.324,-4.442,-8.208
1621785339146.837,-0.03860086850430043,-0.005042748352279261,0.004594213156895081,0.324,-4.442,-8.189
1621785339162.99,-0.03819114726575068,-0.005276215634606033,0.0047741582954473364,0.324,-4.462,-8.208
1621785339179.145,-0.03778137648637134,-0.005509711146279397,0.004954125191796373,0.324,-4.442,-8.179
1621785339195.297,-0.03737168001823638,-0.005743164313932873,0.005134059451450237,0.343,-4.403,-8.1
1621785339211.452,-0.03696191543146074,-0.005976656296937914,0.005314023628074676,0.343,-4.462,-8.179
1621785339227.606,-0.036552169422496186,-0.006210137693937983,0.005493979645525321,0.363,-4.491,-8.404
1621785339243.761,-0.036142398643116844,-0.006443633205611346,0.005673946541874358,0.363,-4.442,-8.345
1621785339259.915,-0.035732652634152304,-0.006677114602611415,0.005853902559325003,0.343,-4.403,-8.12
1621785339276.067,-0.03532296235862105,-0.006910564241596568,0.006033834099254271,0.343,-4.384,-8.041
1621785339292.22,-0.0349132411200713,-0.007144031523923339,0.006213779237806526,0.343,-4.423,-8.159
1621785339308.371,-0.03450356942235114,-0.00737747057690352,0.0063937026185620005,0.343,-4.491,-8.306
1621785339324.524,-0.03409385437640509,-0.007610934330561968,0.006573645037389658,0.382,-4.491,-8.385
1621785339340.677,-0.033684133137855336,-0.007844401612888739,0.006753590175941913,0.304,-4.403,-8.287
1621785339356.828,-0.03327446763273888,-0.008077837137200594,0.006933510836972789,0.382,-4.344,-8.061
1621785339372.981,-0.03286474639418913,-0.008311304419527368,0.007113455975525045,0.363,-4.364,-8.228
1621785339389.135,-0.032455000385224586,-0.008544785816527437,0.00729341199297569,0.324,-4.442,-8.247
1621785339405.287,-0.03204530391708963,-0.00877823898418091,0.007473346252629554,0.324,-4.423,-8.247
1621785339421.441,-0.031635564100728784,-0.009011716852512655,0.007653299550355603,0.363,-4.364,-8.179
1621785339437.596,-0.031225793321349435,-0.009245212364186019,0.007833266446704637,0.343,-4.384,-8.159
1621785339453.75,-0.030816047312384888,-0.009478693761186088,0.008013222464155284,0.343,-4.423,-8.159
1621785339469.906,-0.03040625176259075,-0.00971220338753275,0.00819320023940271,0.363,-4.462,-8.306
1621785339486.059,-0.029996530524041,-0.00994567066985952,0.008373145377954964,0.363,-4.423,-8.306
1621785339502.213,-0.029586790707680152,-0.010179148538191267,0.008553098675681013,0.363,-4.403,-8.228
1621785339518.368,-0.02917701992830081,-0.01041264404986463,0.00873306557203005,0.343,-4.384,-8.208
1621785339534.523,-0.028767249148921467,-0.010646139561537997,0.008913032468379087,0.324,-4.403,-8.267
1621785355610.564,0.379,-0.243,0.188,2.372873297898473,-2.040146118626603,-8.668975141901019
1621785355611.558,0.3786024214020699,-0.24498789298965046,0.18919273579379028,2.373,-2.04,-8.669
1621785355615.565,0.377,-0.253,0.194,2.377958682679961,-2.0593388624518467,-8.678669431225924
1621785355620.589,0.382,-0.257,0.206,2.384176372837828,-2.083587854067528,-8.690793927033765
1621785355625.643,0.382,-0.257,0.211,2.390430923785784,-2.107980602764559,-8.70299030138228
1621785355627.719,0.38567635472713296,-0.25985938700999234,0.21467635472713298,2.393,-2.118,-8.708
1621785355630.725,0.391,-0.264,0.22,2.37830246437907,-2.1326975356209297,-8.737209026487164
1621785355635.836,0.396,-0.283,0.223,2.353314385869483,-2.157685614130517,-8.786868878715078
1621785355640.977,0.405,-0.283,0.225,2.3281782935194837,-2.182821706480516,-8.8368228850309
1621785355643.877,0.4167770538243626,-0.2886081208687441,0.22780406043437207,2.314,-2.197,-8.865
1621785355646.148,0.426,-0.293,0.23,2.2947458564370646,-2.2052919304395124,-8.873291930439512
1621785355651.347,0.433,-0.309,0.236,2.2506674875730885,-2.2242745856437063,-8.892274585643706
1621785355656.575,0.447,-0.319,0.236,2.206342801456479,-2.2433633190807862,-8.911363319080786
1621785355660.036,0.453582160932349,-0.3295314574917584,0.23929108046617448,2.177,-2.256,-8.924
1621785355661.833,0.457,-0.335,0.241,2.167431510392487,-2.2712314732527754,-8.924
1621785355667.121,0.476,-0.353,0.244,2.1392758950007296,-2.3160506161212875,-8.924
1621785355672.438,0.485,-0.356,0.244,2.1109668925999125,-2.3611139260654452,-8.924
1621785355677.783,0.497,-0.374,0.251,2.082508402859758,-2.406415195447732,-8.924
1621785355678.442,0.4985937045784884,-0.3746129632994186,0.2512451853197674,2.079,-2.412,-8.924
1621785355683.158,0.51,-0.379,0.253,2.065783772462615,-2.462437439785532,-8.913480961755958
1621785355688.563,0.518,-0.389,0.255,2.050636800290426,-2.520243231544702,-8.90142520839442
1621785355693.996,0.534,-0.389,0.258,2.0354111478797523,-2.5783492927854343,-8.889306831985925
1621785355695.927,0.538241508759385,-0.39324150875938507,0.2601207543796925,2.03,-2.599,-8.885
1621785355699.459,0.546,-0.401,0.264,2.0027959399363127,-2.630175455693423,-8.89671561710772
1621785355704.951,0.562,-0.407,0.269,1.9604958548369384,-2.678650735697815,-8.914932442077523
1621785355710.472,0.572,-0.414,0.267,1.9179719995607774,-2.727382453058087,-8.933245635225651
1621785355713.714,0.5825114111076909,-0.41808777098632427,0.26816793456752125,1.893,-2.756,-8.944
1621785355716.024,0.59,-0.421,0.269,1.8604476137789592,-2.7584254719145087,-8.962765493233306
1621785355721.604,0.611,-0.428,0.265,1.781807159337768,-2.764284956755225,-9.00809940226411
1621785355727.212,0.63,-0.435,0.262,1.7027744660181074,-2.7701736672378665,-9.053659425471913
1621785355731.808,0.6552665165815222,-0.44641068490778424,0.2579247553900771,1.638,-2.775,-9.091
1621785355732.851,0.661,-0.449,0.257,1.6307445267096567,-2.7727893479818486,-9.094344319719767
1621785355738.52,0.677,-0.461,0.251,1.591308176100629,-2.7607735849056603,-9.112522012578616
1621785355744.216,0.698,-0.473,0.244,1.5516833054693098,-2.7487003821351803,-9.13078660138524
1621785355749.942,0.717,-0.492,0.239,1.5118512326513283,-2.736564047448452,-9.149146697449778
1621785355750.208,0.7180633244263477,-0.4928321669423591,0.23858391652882044,1.51,-2.736,-9.15
1621785355755.698,0.74,-0.51,0.23,1.5446296982668615,-2.741869440384214,-9.100990172791814
1621785355761.484,0.749,-0.513,0.227,1.5811258613489245,-2.748055230737106,-9.049338823345167
1621785355767.297,0.754,-0.522,0.222,1.6177945030277718,-2.7542702547504696,-8.997443372833578
1621785355768.915,0.7553842586790325,-0.522553703471613,0.22006203784935455,1.628,-2.756,-8.983
1621785355773.141,0.759,-0.524,0.215,1.6824570283909241,-2.7800055472090603,-8.974331330174506
1621785355779.013,0.763,-0.534,0.213,1.7581211525867713,-2.8133595284872297,-8.962286836935167
1621785355784.916,0.768,-0.534,0.202,1.8341879630699693,-2.8468910204553333,-8.950178242613353
1621785355787.928,0.7751097847116454,-0.5350156835302351,0.20555489235582267,1.873,-2.864,-8.944
1621785355790.847,0.782,-0.536,0.209,1.9248295312361767,-2.9025321587907436,-8.954275242344199
1621785355796.807,0.794,-0.536,0.211,2.0306561050516287,-2.981207891510686,-8.975255437736184
1621785355802.797,0.812,-0.539,0.215,2.137020221680169,-3.0602832551849652,-8.996342201382658
1621785355807.245,0.8275168511984426,-0.5286554325343716,0.22238897676116315,2.216,-3.119,-9.012
1621785355808.817,0.833,-0.525,0.225,2.2349034898911353,-3.1322965225505444,-9.023053735614308
1621785355814.865,0.853,-0.517,0.23,2.307642874027994,-3.1834606656298603,-9.065587782270606
1621785355820.942,0.88,-0.51,0.244,2.380728734059098,-3.234868516329705,-9.108324429237948
1621785355826.868,0.9081397961223266,-0.5032076354187488,0.244,2.452,-3.285,-9.15
1621785355827.049,0.909,-0.503,0.244,2.4511042952342237,-3.2858957047657764,-9.15
1621785355833.185,0.934,-0.504,0.251,2.420765012379439,-3.316234987620561,-9.15
1621785355839.352,0.949,-0.503,0.257,2.3902724215660913,-3.346727578433909,-9.15
1621785355845.546,0.962,-0.492,0.255,2.3596470443319415,-3.3773529556680586,-9.15
1621785355846.688,0.965019752980161,-0.4915973662693119,0.2556039505960322,2.354,-3.383,-9.15
1621785355851.219,0.977,-0.49,0.258,2.2739798256703705,-3.387939516933928,-9.115917333155899
1621785355856.896,0.988,-0.476,0.264,2.1737206999800387,-3.3941283518530843,-9.073214372213721
1621785355862.578,0.995,-0.482,0.267,2.0733753410073854,-3.400322509814359,-9.030474682280923
1621785355865.034,0.9941361099184199,-0.4772486045513096,0.2700236152855303,2.03,-3.403,-9.012
1621785355868.264,0.993,-0.471,0.274,1.9111192960101933,-3.370338536274588,-8.958617822728359
1621785355873.954,0.991,-0.463,0.274,1.7016897746276975,-3.3127995540336066,-8.864575615194713
1621785355879.649,0.984,-0.463,0.271,1.4920895250988824,-3.255213665684479,-8.770456743914417
1621785355883.428,0.97869624807264,-0.46498890697276,0.2670221860544801,1.353,-3.217,-8.708
1621785355885.349,0.976,-0.466,0.265,1.2876663974151858,-3.19647253634895,-8.657983844911147
1621785355891.053,0.962,-0.476,0.264,1.093691437802908,-3.1355266558966073,-8.509486268174475
1621785355896.761,0.93,-0.476,0.251,0.8995753330331842,-3.074536428401176,-8.360880637728753
1621785355901.865,0.9049799965806121,-0.49208428791246367,0.23848999829030604,0.726,-3.02,-8.228
1621785355902.473,0.902,-0.494,0.237,0.7188965198441524,-3.02,-8.221225384666182
1621785355908.191,0.878,-0.48,0.225,0.6520810143300535,-3.02,-8.157503189592552
1621785355913.913,0.86,-0.503,0.223,0.5852170111602721,-3.02,-8.093734742125074
1621785355919.638,0.84,-0.515,0.216,0.5183216271544608,-3.02,-8.02993636663805
1621785355920.35,0.8356499786962079,-0.5158700042607585,0.2138871325095867,0.51,-3.02,-8.022
1621785355925.368,0.805,-0.522,0.199,0.4596289825282631,-3.057372045220966,-7.95294295991778
1621785355931.104,0.764,-0.529,0.173,0.4020477508103407,-3.100093604237489,-7.874000948691596
1621785355936.843,0.737,-0.539,0.157,0.344437109652937,-3.142836983160724,-7.795018618072575
1621785355938.879,0.7288477918986696,-0.5397088876609852,0.1502655672206401,0.324,-3.158,-7.767
1621785355942.587,0.714,-0.541,0.138,0.30044714293223995,-3.2224709562109024,-7.798337275929139
1621785355948.334,0.695,-0.543,0.115,0.2639423855333018,-3.3223949955317247,-7.8469071650107765
1621785355954.088,0.681,-0.536,0.091,0.22739420701256374,-3.422437890974084,-7.895534826262946
1621785355957.456,0.6687140070395657,-0.536,0.07637381790424494,0.206,-3.481,-7.924
1621785355959.845,0.66,-0.536,0.066,0.1758512540808433,-3.5401428590158774,-7.956714596635681
1621785355965.606,0.651,-0.529,0.037,0.10314609746823825,-3.6827687194346477,-8.035607426151486
1621785355971.371,0.641,-0.518,0.017,0.030388561838706724,-3.825497331882367,-8.114557092472893
1621785355976.077,0.6246887534907337,-0.5098443767453669,-0.006651307438436151,-0.029,-3.942,-8.179
1621785355977.141,0.621,-0.508,-0.012,-0.04353360965468547,-3.9766526849805834,-8.211429897621631
1621785355982.917,0.607,-0.485,-0.042,-0.12241320066421724,-4.164726376485663,-8.387439651678195
1621785355988.696,0.593,-0.468,-0.075,-0.20133613577228326,-4.352903413919797,-8.563546122566388
1621785355994.479,0.585,-0.459,-0.105,-0.28031241746316077,-4.541207646343536,-8.739771629555053
1621785355994.749,0.584720094482875,-0.4591866036780834,-0.10635287666610427,-0.284,-4.55,-8.748
1621785356000.267,0.579,-0.463,-0.134,-0.492106889940921,-4.697384482960992,-8.866497124300638
1621785356006.06,0.576,-0.471,-0.171,-0.7105813738148337,-4.852111454543083,-8.990897609452638
1621785356011.857,0.581,-0.489,-0.204,-0.9292031769631051,-5.006942759888885,-9.115381978950664
1621785356013.469,0.582945246412188,-0.495669416270359,-0.21511569378393164,-0.99,-5.05,-9.15
1621785356017.658,0.588,-0.513,-0.244,-1.1651066706535447,-5.08948265058048,-9.023075547003991
1621785356023.463,0.597,-0.552,-0.276,-1.4077638164822734,-5.144196427410653,-8.847187755951065
1621785356029.273,0.602,-0.588,-0.318,-1.6506352786697693,-5.198958527801974,-8.671144619664842
1621785356032.248,0.6030183428738561,-0.6068393431663394,-0.3358210002924832,-1.775,-5.227,-8.581
1621785356035.116,0.604,-0.625,-0.353,-1.7347991218441272,-5.212133260153678,-8.466465422612513
1621785356040.963,0.599,-0.658,-0.382,-1.6528402531155162,-5.1818239426615875,-8.23295996642345
1621785356046.816,0.59,-0.695,-0.403,-1.5707958287596049,-5.151482985729967,-7.99921075740944
1621785356051.153,0.5811141678129298,-0.7231384685923888,-0.41188583218707014,-1.51,-5.129,-7.826
1621785356052.673,0.578,-0.733,-0.415,-1.480895302117138,-5.133730515633853,-7.7882360531602535
1621785356058.537,0.546,-0.771,-0.422,-1.3686136223149437,-5.1519801550507385,-7.6425482537474885
1621785356064.405,0.506,-0.806,-0.428,-1.2562571472724464,-5.170241951269768,-7.496763405965075
1621785356070.111,0.4690804788826073,-0.8302891586298636,-0.42119903558363814,-1.147,-5.188,-7.355
1621785356070.278,0.468,-0.831,-0.421,-1.1442506132093644,-5.189115565886296,-7.35560609485161
1621785356076.156,0.417,-0.843,-0.417,-1.047475413836058,-5.2283821803285,-7.376939924745406
1621785356082.041,0.37,-0.855,-0.4,-0.9505836468941427,-5.267696092154773,-7.398299451643145
1621785356087.929,0.314,-0.862,-0.377,-0.8536436450962513,-5.307029575312384,-7.419669611783894
1621785356089.122,0.307319898931323,-0.86341699113578,-0.3737611631182172,-0.834,-5.315,-7.424
1621785356093.823,0.281,-0.869,-0.361,-0.7733426815213216,-5.392424382123191,-7.527807849916763
1621785356099.722,0.257,-0.869,-0.344,-0.6972272762197465,-5.489579818158535,-7.658070393136125
1621785356105.626,0.248,-0.869,-0.326,-0.6210457164809835,-5.5868196952234594,-7.78844615187604
1621785356108.187,0.2488665124731538,-0.8677002312902693,-0.31776813150503885,-0.588,-5.629,-7.845
1621785356111.537,0.25,-0.866,-0.307,-0.588,-5.64616914355753,-7.858840432051478
1621785356117.451,0.258,-0.869,-0.291,-0.588,-5.6764772738879525,-7.883272496297431
1621785356123.371,0.278,-0.857,-0.278,-0.588,-5.706817935754048,-7.907730784944589
1621785356127.309,0.2906306462248599,-0.85567045829212,-0.2686932080448401,-0.588,-5.727,-7.924
1621785356129.295,0.297,-0.855,-0.264,-0.5697725490196078,-5.7189219251336905,-7.886405882352942
1621785356135.227,0.311,-0.845,-0.253,-0.5153232492997198,-5.6947909854851035,-7.7741042016806725
1621785356141.162,0.314,-0.824,-0.234,-0.4608470588235294,-5.670648128342246,-7.661747058823529
1621785356146.484,0.31220813810110976,-0.7971220715166462,-0.21070579531442662,-0.412,-5.649,-7.561
1621785356147.102,0.312,-0.794,-0.208,-0.407282926048292,-5.651874466939322,-7.547622673090078
1621785356151.195,0.304,-0.754,-0.18,-0.3760500094604625,-5.670907025485031,-7.45904807370428
1621785356156.867,0.286,-0.716,-0.155,-0.3327691792684879,-5.697281281383265,-7.336306344331728
1621785356162.538,0.26,-0.668,-0.14,-0.28949393802669304,-5.723652131514984,-7.213580464872575
1621785356163.258,0.2587299741602067,-0.6638089147286822,-0.13834896640826874,-0.284,-5.727,-7.198
1621785356168.207,0.25,-0.635,-0.127,-0.3345302327441414,-5.735106454450932,-7.224481084539711
1621785356173.875,0.239,-0.606,-0.12,-0.39240157028979705,-5.7443906262497,-7.254809379082354
1621785356179.543,0.227,-0.571,-0.11,-0.4502729078354528,-5.753674798048468,-7.285137673624997
1621785356181.573,0.227,-0.5620429593243709,-0.1060589021027232,-0.471,-5.757,-7.296
1621785356185.209,0.227,-0.546,-0.099,-0.5137086417777066,-5.811428687660891,-7.307720045883185
1621785356190.874,0.234,-0.522,-0.089,-0.5802507302628946,-5.896231163218759,-7.325980432955864
1621785356196.538,0.248,-0.511,-0.084,-0.6467813479519294,-5.981019020180598,-7.34423767222867
1621785356199.877,0.25507531795645616,-0.5009766328950205,-0.07987273119206725,-0.686,-6.031,-7.355
1621785356202.201,0.26,-0.494,-0.077,-0.6735505525009342,-6.049674171248599,-7.327560401430631
1621785356207.863,0.276,-0.473,-0.061,-0.6432188384134949,-6.095171742379757,-7.260706827523622
1621785356213.523,0.284,-0.449,-0.049,-0.6128988949981317,-6.1406516575028025,-7.193879197138739
1621785356218.171,0.29878424435911816,-0.43175171491436215,-0.03175171491436214,-0.588,-6.178,-7.139
1621785356219.182,0.302,-0.428,-0.028,-0.5934202294613401,-6.181263199369583,-7.127606456438407
1621785356224.842,0.312,-0.422,-0.005,-0.6237661845040136,-6.199532702915682,-7.0638180203282985
1621785356230.498,0.323,-0.414,0.009,-0.6540898879405912,-6.217788810086683,-7.000076358002431
1621785356236.154,0.337,-0.403,0.03,-0.6844135913771687,-6.236044917257684,-6.936334695676564
1621785356236.45,0.33747092345551094,-0.4017442041186375,0.030366273798730734,-0.686,-6.237,-6.933
1621785356241.809,0.346,-0.379,0.037,-0.7637239384302932,-6.214122765292216,-6.938865957617381
1621785356247.463,0.361,-0.382,0.049,-0.8457216135325085,-6.189987600545148,-6.94505446139868
1621785356253.116,0.377,-0.363,0.059,-0.9277086662569145,-6.165855562384757,-6.951242163491088
1621785356254.722,0.38296682648697683,-0.3590221156753488,0.0609889421623256,-0.951,-6.159,-6.953
1621785356258.768,0.398,-0.349,0.066,-1.0103547141191838,-6.101740158143846,-6.939266948497915
1621785356263.704,0.422,-0.326,0.072,-1.0827636690495919,-6.031886813387453,-6.92251350402382
1621785356269.249,0.442,-0.307,0.068,-1.1641046614513841,-5.953416679541018,-6.903693431272033
1621785356272.105,0.4517964562764457,-0.29978155853314525,0.06645319111424541,-1.206,-5.913,-6.894
1621785356274.788,0.461,-0.293,0.065,-1.2090005597040394,-5.87339261190668,-6.836689309652847
1621785356280.325,0.475,-0.271,0.056,-1.2151925245382442,-5.791658676095177,-6.7184227813195365
1621785356285.858,0.48,-0.244,0.049,-1.2213801209506778,-5.709982403451053,-6.600239689842054
1621785356289.989,0.4770118758553706,-0.22308313098759436,0.047505937927685316,-1.226,-5.649,-6.512
1621785356291.388,0.476,-0.216,0.047,-1.2183205054566342,-5.6381860178879135,-6.469684417822269
1621785356296.917,0.463,-0.188,0.047,-1.1879684089603675,-5.595445310576844,-6.302438171822434
1621785356302.44,0.447,-0.152,0.04,-1.157649818112196,-5.552751784688603,-6.135376548781489
1621785356307.841,0.42254280534182365,-0.11384677633324489,0.043913151145308214,-1.128,-5.511,-5.972
1621785356307.961,0.422,-0.113,0.044,-1.1266813012140644,-5.5103406506070325,-5.969954671270794
1621785356313.478,0.393,-0.089,0.044,-1.0659889281701334,-5.479994464085067,-5.8758195620597995
1621785356318.993,0.353,-0.049,0.038,-1.0053207267943765,-5.4496603633971885,-5.781721943599441
1621785356324.505,0.311,-0.005,0.038,-0.9446847543095179,-5.419342377154759,-5.6876743128066
1621785356325.658,0.3028341534778561,0.0008626590415392122,0.03925628408032983,-0.932,-5.413,-5.668
1621785356330.012,0.272,0.023,0.044,-0.932,-5.427443855699539,-5.6633485888425215
1621785356335.517,0.229,0.058,0.04,-0.932,-5.445706416099275,-5.657467425323962
1621785356341.02,0.195,0.093,0.038,-0.932,-5.463961687349001,-5.651588609158797
1621785356343.443,0.1791341030195382,0.10754373889875665,0.03579640319715808,-0.932,-5.472,-5.649
1621785356346.518,0.159,0.126,0.033,-0.942046622290681,-5.472,-5.718633485531962
1621785356352.013,0.133,0.148,0.028,-0.9599997249422378,-5.472,-5.843067059082407
1621785356357.505,0.115,0.175,0.019,-0.9779432555836726,-5.472,-5.967434288700627
1621785356361.195,0.10357114264110662,0.19247942890183695,0.012277142730062713,-0.99,-5.472,-6.051
1621785356362.994,0.098,0.201,0.009,-0.9940690883485896,-5.480036449488465,-6.087926976763451
1621785356368.48,0.082,0.22,0.002,-1.0064790346408208,-5.504546093415621,-6.200547239365448
1621785356373.963,0.068,0.25,-0.003,-1.018881801488354,-5.529041557939499,-6.313102348506813
1621785356378.878,0.05083716965046889,0.2653562166285279,-0.008419841163009825,-1.03,-5.551,-6.414
1621785356379.404,0.049,0.267,-0.009,-1.0270632978279612,-5.558341755430098,-6.430451525433156
1621785356384.841,0.03,0.291,-0.005,-0.9967151041521818,-5.634212239619545,-6.600463345106655
1621785356390.274,0.016,0.314,-0.002,-0.9663900770364603,-5.71002480740885,-6.770345384765136
1621785356395.705,0.005,0.326,0.0,-0.9360745890925273,-5.785813527268682,-6.940173985593904
1621785356396.435,0.0036546681664791905,0.32694173228346457,0.0006726659167604049,-0.932,-5.796,-6.963
1621785356401.131,-0.005,0.333,0.005,-0.9057245089976443,-5.908877364408079,-7.086602054613122
1621785356406.552,-0.019,0.337,0.002,-0.8753932897506307,-6.039177806275352,-7.2292825859689716
1621785356411.971,-0.012,0.335,0.016,-0.8450729987036701,-6.169431301487294,-7.371911710179674
1621785356413.95,-0.007613636363636363,0.3357310606060606,0.01709659090909091,-0.834,-6.217,-7.424
1621785356417.385,0.0,0.337,0.019,-0.8685999720553305,-6.274994271342741,-7.510696520888641
1621785356422.795,0.023,0.337,0.021,-0.9230918541288249,-6.36633009640911,-7.647235839038704
1621785356428.201,0.047,0.335,0.024,-0.977544390107587,-6.45759997205533,-7.783676568394579
1621785356431.423,0.06370104397342613,0.3308247390066435,0.027578795137162743,-1.01,-6.512,-7.865
1621785356433.603,0.075,0.328,0.03,-1.0382622652343805,-6.497243596028066,-7.930028220893265
1621785356439.002,0.112,0.314,0.028,-1.108257979580118,-6.460697161104186,-8.091080306998501
1621785356444.396,0.148,0.302,0.017,-1.1781903894903434,-6.42418377893867,-8.251986736880436
1621785356448.855,0.18108395978625125,0.29621030703740603,0.014518703016031156,-1.236,-6.394,-8.385
1621785356449.787,0.188,0.295,0.014,-1.2354641403508773,-6.3866587228070175,-8.392341277192982
1621785356455.173,0.218,0.274,0.009,-1.2323678596491228,-6.3442396771929825,-8.434760322807017
1621785356460.557,0.255,0.251,0.005,-1.2292728421052632,-6.301837936842105,-8.477162063157895
1621785356465.935,0.274,0.22,0.007,-1.2261810526315788,-6.259480421052631,-8.519519578947369
1621785356466.25,0.27605078125000004,0.21865234375,0.00717578125,-1.226,-6.257,-8.522
1621785356471.31,0.309,0.197,0.01,-1.2344562593207462,-6.191099496327977,-8.559032583921889
1621785356476.681,0.335,0.159,0.009,-1.2434319057936352,-6.1211513548496015,-8.598339725372126
1621785356482.048,0.377,0.126,-0.003,-1.2524014322293817,-6.051250907453783,-8.637620065280396
1621785356483.603,0.38658792938278363,0.11815533050499522,-0.007067606404817299,-1.255,-6.031,-8.649
1621785356487.4,0.41,0.099,-0.017,-1.162377498620719,-5.979298603743157,-8.582118193778381
1621785356492.744,0.431,0.079,-0.021,-1.032013948421961,-5.906530351256914,-8.487983943753624
1621785356498.083,0.443,0.054,-0.016,-0.9017695115223019,-5.833828587191784,-8.393935704282137
1621785356500.861,0.4461238103953148,0.038380948023426065,-0.010273014275256223,-0.834,-5.796,-8.345
1621785356503.419,0.449,0.024,-0.005,-0.8149800873659726,-5.730321864185624,-8.294032577863506
1621785356508.749,0.447,0.0,-0.012,-0.7753463436773131,-5.593461593010723,-8.1878265303228
1621785356514.076,0.454,-0.017,-0.014,-0.735736200147501,-5.4566828161343395,-8.081683723832757
1621785356518.075,0.45249717876966833,-0.032028212303316664,-0.029779622918482504,-0.706,-5.354,-8.002
1621785356519.398,0.452,-0.037,-0.035,-0.6765711036237756,-5.311705591333646,-7.950614989835231
1621785356524.717,0.447,-0.045,-0.051,-0.5582527117897101,-5.141661619823432,-7.744022405140672
1621785356530.031,0.433,-0.033,-0.068,-0.440048364396298,-4.9717815498784494,-7.537628950398772
1621785356535.248,0.40548542260645637,-0.02808668260829578,-0.0699653269566817,-0.324,-4.805,-7.335
1621785356535.34,0.405,-0.028,-0.07,-0.32115224331566045,-4.8040543298557665,-7.330680006841115
1621785356540.646,0.37,-0.009,-0.075,-0.15698700188130665,-4.7495390798700186,-7.081644433042586
1621785356545.947,0.326,0.009,-0.077,0.007027164927883245,-4.695073998061684,-6.8328380365999655
1621785356551.245,0.269,0.042,-0.082,0.1709506869619748,-4.640639017159796,-6.584169146570891
1621785356552.378,0.2580848708487085,0.0516309963099631,-0.082,0.206,-4.629,-6.531
1621785356556.538,0.218,0.087,-0.082,0.2990162903686768,-4.624130037153472,-6.502510717347813
1621785356561.826,0.169,0.136,-0.075,0.4172463275221492,-4.617939982852243,-6.466298899685624
1621785356567.111,0.122,0.195,-0.077,0.5354163189482709,-4.6117530723063735,-6.430105472992283
1621785356569.463,0.10507734270260274,0.21682132125190698,-0.07477333456613194,0.588,-4.609,-6.414
1621785356572.392,0.084,0.244,-0.072,0.5948764328289775,-4.65627547569922,-6.506659932370472
1621785356577.668,0.052,0.291,-0.068,0.6072618065107749,-4.741424919761577,-6.673552842732692
1621785356582.94,0.03,0.328,-0.068,0.6196380100871159,-4.826511319348922,-6.840322185923888
1621785356586.502,0.02391350699916566,0.3611375730045425,-0.068,0.628,-4.884,-6.953
1621785356588.207,0.021,0.377,-0.068,0.6161627118644067,-4.927236196495261,-7.023823096811261
1621785356593.47,0.023,0.401,-0.059,0.5796254237288135,-5.06069018960069,-7.2424275495547255
1621785356598.731,0.035,0.419,-0.063,0.5431016949152543,-5.1940946567078425,-7.460950876185004
1621785356603.499,0.047702439024390246,0.42172195121951217,-0.05937073170731707,0.51,-5.315,-7.659
1621785356603.986,0.049,0.422,-0.059,0.5063221039593265,-5.322327058518529,-7.672246172458988
1621785356609.236,0.066,0.422,-0.056,0.466678256110383,-5.4013050366550965,-7.815025968227449
1621785356614.484,0.093,0.405,-0.059,0.427051000273653,-5.4802499603923325,-7.9577460068269215
1621785356619.726,0.12,0.38,-0.059,0.3874661462459132,-5.55911041177572,-8.100313332661202
1621785356620.45,0.12386949429037519,0.37571591703565604,-0.05858541132603123,0.382,-5.57,-8.12
1621785356624.964,0.148,0.349,-0.056,0.3715876110028157,-5.61458638365461,-8.114660313334777
1621785356630.198,0.182,0.319,-0.056,0.35951509638293266,-5.666281510360263,-8.108469280196376
1621785356635.428,0.202,0.283,-0.044,0.34745159194282005,-5.717938055014079,-8.102282867662984
1621785356637.358,0.20790862375035038,0.271921330468093,-0.043261422031206205,0.343,-5.737,-8.1
1621785356640.654,0.218,0.253,-0.042,0.3601999710459646,-5.7522454288816505,-8.054068259138617
1621785356645.876,0.216,0.222,-0.031,0.38744907709011944,-5.7763980456026065,-7.981300760043431
1621785356651.093,0.216,0.199,-0.019,0.4146727035830619,-5.800528078175896,-7.908601302931596
1621785356654.222,0.21420897191037405,0.18765682209903572,-0.011835887641496248,0.431,-5.815,-7.865
1621785356656.334,0.213,0.18,-0.007,0.433478334980591,-5.819956669961182,-7.851616991104809
1621785356661.611,0.201,0.162,0.009,0.4396705914371249,-5.83234118287425,-7.818178806239525
1621785356666.885,0.194,0.161,0.017,0.4458591236589174,-5.844718247317835,-7.784760732241846
1621785356671.266,0.18818179712830013,0.14770125057897174,0.024480546549328394,0.451,-5.855,-7.757
1621785356672.156,0.187,0.145,0.026,0.4561270237685153,-5.855994014812263,-7.752919307612814
1621785356677.424,0.188,0.141,0.03,0.4864784418417729,-5.861878473418303,-7.728762056493283
1621785356682.688,0.185,0.127,0.038,0.5168059478700195,-5.867758296015616,-7.704623837409576
1621785356687.948,0.187,0.127,0.044,0.5471109484441383,-5.873633755310598,-7.680503530830176
1621785356688.276,0.18668821098574545,0.127,0.044748293634210894,0.549,-5.874,-7.679
1621785356693.206,0.182,0.127,0.056,0.5887851246800311,-5.845540567747131,-7.62759878052288
1621785356698.459,0.175,0.122,0.066,0.6311747821335097,-5.815218039057781,-7.572832580747217
1621785356703.711,0.166,0.14,0.08,0.6735565590037103,-5.784901147573988,-7.51807656245506
1621785356705.253,0.16453061604317887,0.13735510887772195,0.0841142750790992,0.686,-5.776,-7.502
1621785356708.958,0.161,0.131,0.094,0.6689389755267937,-5.765282176933498,-7.439880372430889
1621785356714.202,0.157,0.127,0.096,0.6447920498111902,-5.750112954368569,-7.351960796748436
1621785356719.443,0.141,0.134,0.113,0.6206574904153815,-5.73495150038915,-7.264086247153441
1621785356722.192,0.12997925794723594,0.13032641931574532,0.11667358068425468,0.608,-5.727,-7.218
1621785356724.681,0.12,0.127,0.12,0.5791435874478317,-5.7284722659465395,-7.17029858333213
1621785356729.915,0.105,0.134,0.136,0.51846162288619,-5.731568284546623,-7.069987580689416
1621785356735.146,0.084,0.133,0.147,0.4578164541424177,-5.73466242580906,-6.9697374037864455
1621785356739.098,0.06812297991592714,0.1405604857543204,0.15078024287716021,0.412,-5.737,-6.894
1621785356740.373,0.063,0.143,0.152,0.39643196550526677,-5.736244270170158,-6.894
1621785356745.598,0.04,0.141,0.164,0.33264266697534434,-5.733147702280356,-6.894
1621785356750.819,0.024,0.141,0.162,0.2688980784813057,-5.730053304780646,-6.894
1621785356755.971,0.012149382253837514,0.133099588169225,0.1708879633096219,0.206,-5.727,-6.894
1621785356756.036,0.012,0.133,0.171,0.20531725638051043,-5.7273394431554525,-6.894416589327147
1621785356761.25,0.0,0.136,0.168,0.1505001305104408,-5.7545931554524365,-6.927864327146172
1621785356766.462,-0.002,0.133,0.162,0.09570610498839906,-5.781835382830627,-6.961297969837587
1621785356771.669,-0.002,0.138,0.152,0.04096341357308583,-5.8090520881670535,-6.994700290023202
1621785356772.807,-0.001125515947467167,0.1371255159474672,0.15090689493433396,0.029,-5.815,-7.002
1621785356776.874,0.002,0.134,0.147,0.014960360936342105,-5.848404658461807,-7.002
1621785356782.074,0.005,0.14,0.138,-0.0029897124424231,-5.891113453742317,-7.002
1621785356787.271,0.0,0.138,0.131,-0.020929672628994058,-5.93379818660002,-7.002
1621785356789.609,0.004499365690927031,0.13889987313818541,0.1287503171545365,-0.029,-5.953,-7.002
1621785356792.467,0.01,0.14,0.126,-0.05576411742435274,-5.959648411334712,-6.9936468678102335
1621785356797.657,0.003,0.14,0.115,-0.10436338352214812,-5.971720840492763,-6.978478943996272
1621785356802.845,0.0,0.134,0.103,-0.15294436031103475,-5.98378872644669,-6.963316728310569
1621785356806.375,-0.004766553640388057,0.1367237449373646,0.10027625506263539,-0.186,-5.992,-6.953
1621785356808.029,-0.007,0.138,0.099,-0.19766433219527854,-5.9978321660976395,-6.953
1621785356813.211,-0.017,0.131,0.093,-0.23420683416498878,-6.016103417082494,-6.953
1621785356818.388,-0.024,0.119,0.082,-0.270714902681724,-6.034357451340862,-6.953
1621785356823.108,-0.029473411031944508,0.10896541310810173,0.07287764828009248,-0.304,-6.051,-6.953
1621785356823.562,-0.03,0.108,0.072,-0.30612133175417816,-6.051516734658069,-6.956453963240778
1621785356828.733,-0.045,0.101,0.063,-0.3302771417291749,-6.057400842216081,-6.995784576918016
1621785356833.901,-0.049,0.087,0.054,-0.3544192656928543,-6.063281616002106,-7.0350929069614425
1621785356839.066,-0.056,0.077,0.047,-0.3785477036452165,-6.069159056016143,-7.074378953371058
1621785356839.805,-0.05700250757002271,0.07499498485995458,0.04528141559424678,-0.382,-6.07,-7.08
1621785356844.226,-0.063,0.063,0.035,-0.37695851893095766,-6.088308536513891,-7.152968804946665
1621785356849.384,-0.056,0.044,0.03,-0.37107683741648106,-6.1096683272769905,-7.23809840581409
1621785356854.539,-0.051,0.033,0.016,-0.36519849665924276,-6.131015985816434,-7.323179653616224
1621785356856.467,-0.04688269030239833,0.027759787657597877,0.013379893828798938,-0.363,-6.139,-7.355
1621785356859.69,-0.04,0.019,0.009,-0.34768786339343394,-6.150435646326423,-7.398804340165619
1621785356864.837,-0.017,0.01,-0.002,-0.32323437775298053,-6.168698376108534,-7.468759881364892
1621785356869.981,0.002,-0.005,-0.012,-0.29879481118223994,-6.186950710636049,-7.538675603453339
1621785356873.095,0.014717453233311176,-0.010450337099990506,-0.019267116133320675,-0.284,-6.198,-7.581
1621785356875.123,0.023,-0.014,-0.024,-0.27457437120870487,-6.198,-7.5571942452322425
1621785356880.261,0.04,-0.021,-0.03,-0.2506954308075004,-6.198,-7.496884613706123
1621785356885.498,0.058,-0.03,-0.035,-0.2263558180469284,-6.198,-7.435411489169807
1621785356889.878,0.06804198152812763,-0.030836831794010634,-0.04336831794010635,-0.206,-6.198,-7.384
1621785356890.732,0.07,-0.031,-0.045,-0.19412558683750558,-6.196029352709203,-7.369649645369582
1621785356895.965,0.077,-0.037,-0.044,-0.12136170858191167,-6.18395364525402,-7.281713724413885
1621785356901.196,0.075,-0.031,-0.049,-0.04862838198968611,-6.171883008074884,-7.193814725468386
1621785356906.424,0.079,-0.04,-0.045,0.02406420905138168,-6.159819131263813,-7.105964955869819
1621785356906.779,0.07852441474697444,-0.04,-0.04513588150086444,0.029,-6.159,-7.1
1621785356911.649,0.072,-0.04,-0.047,0.08007660146982234,-6.122063248654592,-7.02930074937793
1621785356916.873,0.056,-0.037,-0.044,0.13486865632775882,-6.0824396157629765,-6.953458639546323
1621785356922.095,0.044,-0.026,-0.045,0.18963766564434928,-6.042832648573578,-6.877648428910364
1621785356923.655,0.03861844383100173,-0.02510307397183362,-0.04350512328638937,0.206,-6.031,-6.855
1621785356927.313,0.026,-0.023,-0.04,0.2316119658119658,-6.05444146023468,-6.833729045342605
1621785356932.53,0.005,-0.023,-0.037,0.26814017094017095,-6.0878740547588,-6.80339206142257
1621785356937.744,-0.007,-0.024,-0.03,0.30464615384615384,-6.12128631029987,-6.773073533246414
1621785356940.508,-0.010712305025996533,-0.023469670710571922,-0.026818024263431543,0.324,-6.139,-6.757
1621785356942.956,-0.014,-0.023,-0.024,0.3097444981213097,-6.16751100375738,-6.786965646806226
1621785356948.167,-0.023,-0.01,-0.021,0.2793994864429647,-6.22820102711407,-6.850752099926013
1621785356953.374,-0.026,-0.014,-0.016,0.24907722214968592,-6.288845555700628,-6.914490737113925
1621785356957.337,-0.02219395985743763,-0.007149127743387732,-0.014477583942975053,0.226,-6.335,-6.963
1621785356958.58,-0.021,-0.005,-0.014,0.2172709416857948,-6.337885027747915,-6.978904640148763
1621785356963.782,-0.012,-0.002,-0.012,0.1807450097335619,-6.349957157799924,-7.045456126332917
1621785356968.984,0.003,0.0,-0.007,0.14421907778132897,-6.362029287851933,-7.11200761251707
1621785356974.142,0.02086219529378611,0.0,-0.011961720914940585,0.108,-6.374,-7.178
1621785356974.182,0.021,0.0,-0.012,0.10790750225533277,-6.37376756976981,-7.177954936996188
1621785356979.379,0.035,-0.007,-0.01,0.09582775077845357,-6.343413322468934,-7.172069929866426
1621785356984.573,0.051,-0.009,-0.01,0.08375480895148853,-6.313076186596048,-7.166188240258418
1621785356989.765,0.065,-0.017,-0.007,0.07168697436195909,-6.282751884294154,-7.160309038791723
1621785356990.921,0.06655939778875558,-0.016777228887320632,-0.007,0.069,-6.276,-7.159
1621785356994.954,0.072,-0.016,-0.007,0.10197405189620759,-6.261799495898713,-7.126025948103792
1621785357000.141,0.082,-0.007,-0.003,0.14438123752495008,-6.243536547343269,-7.08361876247505
1621785357005.327,0.086,-0.003,0.005,0.18677844311377245,-6.225277896761222,-7.041221556886228
1621785357007.678,0.08645360339142721,0.0028968440885539333,0.0068144135657089025,0.206,-6.217,-7.022
1621785357010.51,0.087,0.01,0.009,0.21920047269597187,-6.202107159009673,-7.031815736107261
1621785357015.69,0.087,0.016,0.016,0.24334482003997487,-6.174867382519002,-7.04976922515793
1621785357020.868,0.086,0.016,0.021,0.26748006360970483,-6.147637876953153,-7.067715944735422
1621785357024.412,0.086,0.02558443763263381,0.02579221881631691,0.284,-6.129,-7.08
1621785357026.045,0.086,0.03,0.028,0.2763782362223131,-6.125189118111156,-7.089576062182222
1621785357031.218,0.084,0.031,0.035,0.25223087487581086,-6.113115437437905,-7.119915054643212
1621785357036.389,0.079,0.028,0.037,0.22809377008941614,-6.101046885044708,-7.150241160656887
1621785357041.122,0.08357823643319322,0.03257823643319322,0.043409531006470506,0.206,-6.09,-7.178
1621785357041.558,0.084,0.033,0.044,0.2018772899697121,-6.088975887317317,-7.179549298673803
1621785357046.726,0.077,0.037,0.045,0.1530141735525039,-6.0768379157232335,-7.197911871085365
1621785357051.854,0.068,0.035,0.049,0.10452962625341843,-6.064793983591613,-7.216132178669097
1621785357056.979,0.068,0.035,0.047,0.056072779133707784,-6.052756932396272,-7.234342076631282
1621785357057.727,0.06829208770257389,0.03529208770257388,0.047,0.049,-6.051,-7.237
1621785357062.101,0.07,0.037,0.047,0.03603943308481583,-6.061315553259024,-7.231974474053296
1621785357067.221,0.073,0.031,0.052,0.020868856573411088,-6.073390093747693,-7.226092005610099
1621785357072.339,0.077,0.028,0.051,0.005703343913781647,-6.085460603823725,-7.220211500701263
1621785357074.264,0.07775279289601833,0.027247207103981666,0.050247207103981666,0.0,-6.09,-7.218
1621785357077.453,0.079,0.026,0.049,-0.016998506381153782,-6.0861367030951925,-7.199069845166442
1621785357082.565,0.073,0.024,0.051,-0.0442479111518611,-6.079943656556395,-7.168723917126337
1621785357087.675,0.079,0.012,0.047,-0.07148690495556113,-6.073752976146464,-7.138389583117671
1621785357090.773,0.07657310892225304,0.012,0.04578655446112652,-0.088,-6.07,-7.12
1621785357092.781,0.075,0.012,0.045,-0.09275151829358613,-6.067685157754407,-7.103186935268849
1621785357097.884,0.07,0.005,0.047,-0.10482644052732928,-6.0618025033328395,-7.060460287364835
1621785357102.984,0.061,0.005,0.042,-0.1168938527625537,-6.0559235076285,-7.017760213301734
1621785357107.255,0.05681122497845034,0.00081122497845034,0.042,-0.127,-6.051,-6.982
1621785357108.082,0.056,0.0,0.042,-0.12800557995963432,-6.049994420040366,-6.979536329098896
1621785357113.178,0.042,-0.003,0.038,-0.13420081918556334,-6.043799180814436,-6.96435799299537
1621785357118.271,0.033,0.002,0.037,-0.14039249673513,-6.03760750326487,-6.949188382998932
1621785357123.361,0.024,-0.012,0.037,-0.14658061260833433,-6.031419387391665,-6.934027499109581
1621785357123.706,0.023321846803609138,-0.011864369360721827,0.0365252927625264,-0.147,-6.031,-6.933
1621785357128.448,0.014,-0.01,0.03,-0.147,-6.031,-6.947147446188607
1621785357133.533,0.005,-0.017,0.028,-0.147,-6.031,-6.962318275062433
1621785357138.614,0.0,-0.019,0.023,-0.147,-6.031,-6.977477449756214
1621785357140.13,-0.0005969044414535666,-0.020492261103633915,0.0212092866756393,-0.147,-6.031,-6.982
1621785357143.693,-0.002,-0.024,0.017,-0.13001793066412076,-6.03949103466794,-6.999199788173519
1621785357148.769,-0.009,-0.031,0.017,-0.10582648129363327,-6.051586759353183,-7.023701384330807
1621785357153.824,-0.01,-0.033,0.012,-0.08173509755952026,-6.06363245122024,-7.048101631958947
1621785357156.496,-0.01,-0.030354874571028083,0.010412924742616849,-0.069,-6.07,-7.061
1621785357158.875,-0.01,-0.028,0.009,-0.06316360940986208,-6.07,-7.0696086761204535
1621785357163.923,-0.012,-0.035,0.012,-0.05077864961590872,-6.07,-7.087876491816535
1621785357168.968,-0.012,-0.035,0.003,-0.03840147646785762,-6.07,-7.1061328222099105
1621785357172.8,-0.010479953515398025,-0.029679837303893085,0.008320162696106914,-0.029,-6.07,-7.12
1621785357174.01,-0.01,-0.028,0.01,-0.02468771940352246,-6.07,-7.121412643643674
1621785357179.051,-0.007,-0.038,0.005,-0.006721623811095444,-6.07,-7.127298088751538
1621785357184.087,-0.005,-0.044,0.007,0.01122619940592277,-6.07,-7.1331775480812505
1621785357189.074,-4.583818393480779e-05,-0.03508250873108266,0.002045838183934808,0.029,-6.07,-7.139
1621785357189.12,0.0,-0.035,0.002,0.0291676161558465,-6.069946021915914,-7.139
1621785357194.15,0.0,-0.037,0.005,0.047438664001082265,-6.064062125152194,-7.139
1621785357199.178,0.005,-0.028,0.005,0.06570350384054595,-6.0581802275767735,-7.139
1621785357204.203,0.003,-0.028,0.007,0.08395681452643287,-6.0523020427796235,-7.139
1621785357205.316,0.004551660426897457,-0.026891671123644673,0.007664997325813196,0.088,-6.051,-7.139
1621785357209.224,0.01,-0.023,0.01,0.10222376169033598,-6.060402147558019,-7.153223761690336
1621785357214.243,0.007,-0.021,0.009,0.1204894956401259,-6.072476107287541,-7.1714894956401265
1621785357219.259,0.012,-0.024,0.014,0.1387454556407283,-6.08454360627099,-7.189745455640729
1621785357221.527,0.012,-0.019475575902206204,0.01490488481955876,0.147,-6.09,-7.198
1621785357224.272,0.012,-0.014,0.016,0.1536158244941684,-6.098312189749083,-7.198
1621785357229.281,0.019,-0.009,0.021,0.1656888362478688,-6.1134808455421945,-7.198
1621785357234.288,0.021,-0.007,0.019,0.1777571404861415,-6.12864358676464,-7.198
1621785357237.708,0.024417252146760344,-0.010417252146760344,0.019,0.186,-6.139,-7.198
1621785357239.292,0.026,-0.012,0.019,0.184136843855327,-6.136156235358131,-7.196038783005608
1621785357244.293,0.033,-0.002,0.023,0.17825446246391488,-6.127177863760712,-7.189846802593594
1621785357249.291,0.033,0.005,0.024,0.17237552710729562,-6.11820475190061,-7.183658449586627
1621785357253.861,0.03757096112521977,0.00042903887478023053,0.024,0.167,-6.11,-7.178
1621785357254.29,0.038,0.0,0.024,0.16646812375128656,-6.108430965066296,-7.176962841315008
1621785357259.286,0.035,-0.002,0.026,0.16027359690016346,-6.090157110855483,-7.164883513955319
1621785357264.278,0.031,0.003,0.03,0.15408361082521038,-6.071896651934371,-7.152813041109161
1621785357269.267,0.028,0.005,0.031,0.14789756008960464,-6.053647802264334,-7.140750242174729
1621785357269.991,0.02741936747282875,0.005580632527171252,0.03056452560462156,0.147,-6.051,-7.139
1621785357274.254,0.024,0.009,0.028,0.147,-6.051,-7.128674313874147
1621785357279.238,0.021,0.012,0.035,0.147,-6.051,-7.1166017589082635
1621785357284.219,0.017,0.005,0.038,0.147,-6.051,-7.104536891584534
1621785357286.092,0.013989306386735996,0.006881683508290003,0.039505346806632,0.147,-6.051,-7.1
1621785357289.196,0.009,0.01,0.042,0.13560233384994075,-6.0471363843559125,-7.103863615644087
1621785357294.171,0.009,0.019,0.044,0.11733505029325067,-6.04094408484517,-7.11005591515483
1621785357299.143,0.005,0.023,0.047,0.09907762786033367,-6.034755128088248,-7.116244871911752
1621785357302.16,0.010464206750847542,0.019357195499434973,0.04578573183314499,0.088,-6.031,-7.12
1621785357304.112,0.014,0.017,0.045,0.08325293795287098,-6.033434390793399,-7.12
1621785357309.077,0.007,0.021,0.052,0.07117986969494003,-6.0396257078487485,-7.12
1621785357314.04,0.007,0.026,0.049,0.059110957194178894,-6.0458148937465745,-7.12
1621785357318.198,0.007,0.03354474305965741,0.05067660956881276,0.049,-6.051,-7.12
1621785357319.0,0.007,0.035,0.051,0.046544618341570566,-6.049997803404723,-7.12
1621785357323.957,0.005,0.024,0.051,0.03136834157056563,-6.04380340472268,-7.12
1621785357328.911,0.005,0.021,0.054,0.01620178168283605,-6.0376129721154435,-7.12
1621785357333.862,0.003,0.023,0.052,0.0010434437732625562,-6.031425895417658,-7.12
1621785357334.203,0.003,0.022862211913339585,0.05227557617332083,0.0,-6.031,-7.12
1621785357338.809,0.003,0.021,0.056,-0.014127616980959075,-6.04801080411993,-7.12
1621785357343.755,0.0,0.028,0.058,-0.02929681530609126,-6.066275757205293,-7.12
1621785357348.697,-0.003,0.031,0.054,-0.0444547816253553,-6.084527186038693,-7.12
1621785357350.179,-0.004197533908754624,0.03219753390875463,0.05310184956843403,-0.049,-6.09,-7.12
1621785357353.647,-0.007,0.035,0.051,-0.06178753433018004,-6.104954913030211,-7.12
1621785357358.601,-0.005,0.037,0.049,-0.08005466890448582,-6.126318172108636,-7.12
1621785357363.552,-0.003,0.033,0.047,-0.09831010070186146,-6.147667744888618,-7.12
1621785357366.18,-0.00034392735527809335,0.031937570942111235,0.04540635641316686,-0.108,-6.159,-7.12
1621785357368.499,0.002,0.031,0.044,-0.10509532910327957,-6.159,-7.10576711260607
1621785357373.443,0.003,0.026,0.04,-0.09890283617460438,-6.159,-7.075423897255562
1621785357378.385,0.005,0.026,0.04,-0.09271309532910327,-6.159,-7.045094167112606
1621785357382.148,0.0011905585763717246,0.029809441423628274,0.036190558576371726,-0.088,-6.159,-7.022
1621785357383.324,0.0,0.031,0.035,-0.08947584178436839,-6.156786237323447,-7.016908345843929
1621785357388.26,-0.002,0.028,0.04,-0.09567027176077698,-6.147494592358834,-6.995537562425319
1621785357393.193,-0.007,0.03,0.035,-0.10186102515395692,-6.1382084622690645,-6.9741794632188485
1621785357398.085,-0.008984549101173673,0.037938196404694695,0.03698454910117367,-0.108,-6.129,-6.953
1621785357398.123,-0.009,0.038,0.037,-0.10828249159799272,-6.128906634132866,-6.953
1621785357403.051,-0.024,0.03,0.035,-0.14483436919724385,-6.11682592882464,-6.953
1621785357407.975,-0.026,0.033,0.038,-0.18135727329926493,-6.104754799502785,-6.953
1621785357412.896,-0.037,0.024,0.031,-0.21785663643478662,-6.092691450669858,-6.953
1621785357413.994,-0.03923242652899126,0.024892970611596506,0.0318929706115965,-0.226,-6.09,-6.953
1621785357417.814,-0.047,0.028,0.035,-0.23995313725188727,-6.099382281945235,-6.978981703848342
1621785357422.73,-0.051,0.026,0.03,-0.2579093187374118,-6.111456266047569,-7.012417352131733
1621785357427.643,-0.049,0.026,0.028,-0.27585479928045387,-6.12352305468858,-7.045833074522225
1621785357429.873,-0.05036253791457412,0.01873313112227139,0.027091641390283923,-0.284,-6.129,-7.061
1621785357432.553,-0.052,0.01,0.026,-0.29076371366514164,-6.137285549239798,-7.080783862470539
1621785357437.46,-0.052,0.007,0.019,-0.30314814301338633,-6.152456475191398,-7.117008318314155
1621785357442.364,-0.044,0.007,0.017,-0.31552517830460436,-6.16761834342314,-7.153211146540968
1621785357445.722,-0.03920504009163803,0.005630011454753723,0.013575028636884309,-0.324,-6.178,-7.178
1621785357447.266,-0.037,0.005,0.012,-0.32584640322035463,-6.183733567894786,-7.1761535967796455
1621785357452.187,-0.03,-0.009,0.007,-0.33173037212303724,-6.202004839750484,-7.170269627876963
1621785357457.106,-0.019,-0.016,0.002,-0.33761200565405775,-6.220268859662601,-7.164387994345942
1621785357461.612,-0.01441691497814859,-0.022416319030591974,0.000166765991259436,-0.343,-6.237,-7.159
1621785357462.022,-0.014,-0.023,0.0,-0.3425091474204121,-6.23599246049453,-7.1569590866427655
1621785357466.937,-0.003,-0.021,-0.007,-0.3366235940360973,-6.223911587758305,-7.13248757520272
1621785357471.847,0.0,-0.026,-0.005,-0.33074417996337957,-6.211843316766937,-7.108041590374052
1621785357476.755,0.0,-0.035,-0.012,-0.3248671046760321,-6.1997798464402765,-7.083605329968765
1621785357477.479,0.0004427967156008957,-0.03440960437919881,-0.012295197810400598,-0.324,-6.198,-7.08
1621785357481.661,0.003,-0.031,-0.014,-0.31871913922801826,-6.187702321494636,-7.059404642989271
1621785357486.563,-0.005,-0.033,-0.019,-0.31252879516586507,-6.175631150573437,-7.035262301146874
1621785357491.463,-0.005,-0.038,-0.017,-0.3063412257984955,-6.163565390307066,-7.011130780614132
1621785357493.317,-0.006514332718480483,-0.03762141682037988,-0.017757166359240243,-0.304,-6.159,-7.002
1621785357496.36,-0.009,-0.037,-0.019,-0.304,-6.155150282590568,-7.005849717409432
1621785357501.254,-0.012,-0.042,-0.019,-0.304,-6.1489595416782485,-7.012040458321752
1621785357506.146,-0.017,-0.049,-0.023,-0.304,-6.142770962660984,-7.018229037339016
1621785357509.127,-0.017,-0.04778052434456929,-0.02178052434456929,-0.304,-6.139,-7.022
1621785357511.035,-0.017,-0.047,-0.021,-0.30158240398447045,-6.139,-7.031428624460565
1621785357515.921,-0.024,-0.045,-0.026,-0.2953913164529551,-6.139,-7.055573865833475
1621785357520.804,-0.026,-0.051,-0.026,-0.2892039411610029,-6.139,-7.079704629472088
1621785357524.911,-0.021793869080362054,-0.05941226183927589,-0.030206130919637947,-0.284,-6.139,-7.1
1621785357525.686,-0.021,-0.061,-0.031,-0.2830650330900017,-6.140919142604734,-7.100984175694735
1621785357530.563,-0.023,-0.059,-0.031,-0.27718254521783603,-6.152993722973916,-7.107176268191751
1621785357535.438,-0.014,-0.065,-0.035,-0.27130241316780584,-6.165063467708188,-7.113365880875993
1621785357540.31,-0.017,-0.063,-0.037,-0.26542581485097877,-6.177125958990096,-7.119551773841075
1621785357540.663,-0.016492555271469395,-0.06372492104075801,-0.0372174763122274,-0.265,-6.178,-7.12
1621785357545.18,-0.01,-0.073,-0.04,-0.25379684807080194,-6.189203151929198,-7.131203151929198
1621785357550.047,-0.009,-0.075,-0.04,-0.2417247418678674,-6.201275258132132,-7.143275258132133
1621785357554.911,-0.002,-0.077,-0.044,-0.22966111326760347,-6.213338886732396,-7.155338886732396
1621785357556.387,-0.0013926975038923207,-0.0785182562402692,-0.044,-0.226,-6.217,-7.159
1621785357559.772,0.0,-0.082,-0.044,-0.20896179631962916,-6.204490939070107,-7.167411265108031
1621785357564.631,0.002,-0.084,-0.042,-0.18450370992580148,-6.186534369312613,-7.179485510289794
1621785357569.487,0.007,-0.077,-0.042,-0.16006159876802464,-6.168589528209435,-7.191551868962621
1621785357572.082,0.00967355870811953,-0.07860413522487172,-0.042,-0.147,-6.159,-7.198
1621785357574.34,0.012,-0.08,-0.042,-0.14137864667747163,-6.1519372740306695,-7.189495901383868
1621785357579.19,0.009,-0.075,-0.044,-0.1293051053484603,-6.136767952873707,-7.171230800398953
1621785357584.037,0.016,-0.084,-0.042,-0.1172382495948136,-6.121607031542202,-7.15297581348959
1621785357587.748,0.016,-0.07863952843971989,-0.042,-0.108,-6.11,-7.139
1621785357588.883,0.016,-0.077,-0.042,-0.10516918296928914,-6.10709659791722,-7.131886664897189
1621785357593.725,0.017,-0.08,-0.044,-0.09309269465565427,-6.094710456057082,-7.101540617339849
1621785357598.564,0.007,-0.079,-0.044,-0.08102412215647395,-6.082332432981,-7.071214460803447
1621785357603.385,0.007,-0.079,-0.0420061591276252,-0.069,-6.07,-7.041
1621785357603.4,0.007,-0.079,-0.042,-0.0689809193137209,-6.07,-7.041
1621785357608.235,0.002,-0.077,-0.04,-0.06278595223572468,-6.07,-7.041
1621785357613.066,0.0,-0.066,-0.044,-0.05659661552417148,-6.07,-7.041
1621785357617.894,-0.007,-0.068,-0.033,-0.050410719592111235,-6.07,-7.041
1621785357618.995,-0.009053837980063756,-0.06845640844001417,-0.03414102110003542,-0.049,-6.07,-7.041
1621785357622.719,-0.016,-0.07,-0.038,-0.049,-6.0747800811670505,-7.050321158275749
1621785357627.543,-0.019,-0.065,-0.035,-0.049,-6.080972280982153,-7.062395947915198
1621785357632.363,-0.017,-0.063,-0.031,-0.049,-6.087159466616525,-7.074460959902224
1621785357634.576,-0.020215813482007097,-0.05748717688798784,-0.032837607704004054,-0.049,-6.09,-7.08
1621785357637.18,-0.024,-0.051,-0.035,-0.049,-6.09,-7.099757743206543
1621785357641.996,-0.023,-0.058,-0.03,-0.049,-6.09,-7.136300120877223
1621785357646.807,-0.023,-0.063,-0.028,-0.049,-6.09,-7.172801745655485
1621785357650.128,-0.020237689105492944,-0.059547111381866184,-0.030071733170880292,-0.049,-6.09,-7.198
1621785357651.616,-0.019,-0.058,-0.031,-0.05091705851825059,-6.08242761885291,-7.192344677371161
1621785357656.422,-0.017,-0.063,-0.03,-0.05710889018195543,-6.057969883781276,-7.174078773963232
1621785357661.226,-0.023,-0.065,-0.03,-0.06329789107836509,-6.033523330240458,-7.155821221318823
1621785357665.652,-0.021156216628527843,-0.05946864988558352,-0.03276567505720824,-0.069,-6.011,-7.139
1621785357666.027,-0.021,-0.059,-0.033,-0.06945982951770212,-6.011968062142531,-7.137112278822065
1621785357670.825,-0.024,-0.056,-0.037,-0.07534301290434399,-6.024353711377566,-7.112960262813746
1621785357675.62,-0.031,-0.056,-0.031,-0.08122290324105441,-6.036732427875904,-7.088821765641987
1621785357680.413,-0.031,-0.061,-0.031,-0.08710009926418454,-6.049105472135126,-7.064694329336506
1621785357681.147,-0.031919312910953665,-0.058854936541108106,-0.030540343544523167,-0.088,-6.051,-7.061
1621785357685.203,-0.037,-0.047,-0.028,-0.09822564353466644,-6.051,-7.0866952068307
1621785357689.99,-0.042,-0.054,-0.03,-0.11029477123151465,-6.051,-7.117022758479191
1621785357694.774,-0.044,-0.054,-0.031,-0.122355897160714,-6.051,-7.147330203121794
1621785357696.616,-0.04053315974881299,-0.05477040894470823,-0.031,-0.127,-6.051,-7.159
1621785357699.556,-0.035,-0.056,-0.031,-0.13461693918213732,-6.058426515702584,-7.173853031405168
1621785357704.335,-0.031,-0.054,-0.031,-0.14699873493785381,-6.070498766564407,-7.197997533128815
1621785357709.112,-0.024,-0.049,-0.033,-0.15937547044498562,-6.082566083683861,-7.222132167367722
1621785357712.055,-0.020917135549872123,-0.05454915601023018,-0.034233145780051155,-0.167,-6.09,-7.237
1621785357713.885,-0.019,-0.058,-0.035,-0.167,-6.08762484157161,-7.2417503168567805
1621785357718.655,-0.014,-0.063,-0.038,-0.167,-6.081434093789607,-7.254131812420786
1621785357723.424,-0.005,-0.068,-0.037,-0.167,-6.0752446134347275,-7.266510773130545
1621785357727.465,-0.003303837679971307,-0.07139232464005738,-0.03954424348004304,-0.167,-6.07,-7.277
1621785357728.189,-0.003,-0.072,-0.04,-0.16605873015873016,-6.068164523809524,-7.2742232539682545
1621785357732.951,0.0,-0.068,-0.04,-0.15986666666666666,-6.05609,-7.255956666666667
1621785357737.711,0.002,-0.066,-0.04,-0.15367714285714285,-6.044020428571429,-7.237697571428572
1621785357742.467,0.005,-0.066,-0.047,-0.1474926984126984,-6.031960761904761,-7.21945346031746
1621785357742.846,0.005318751283631136,-0.06687656602998562,-0.04676093653727665,-0.147,-6.031,-7.218
1621785357747.222,0.009,-0.077,-0.044,-0.1412991635126109,-6.025299163512611,-7.195481695874813
1621785357751.973,0.005,-0.077,-0.045,-0.135109792945517,-6.019109792945517,-7.171033682134793
1621785357756.721,0.005,-0.08,-0.049,-0.12892423905092076,-6.012924239050921,-7.1466007442511374
1621785357758.198,0.003444250154289241,-0.08217804978399507,-0.0483777000617157,-0.127,-6.011,-7.139
1621785357761.468,0.0,-0.087,-0.047,-0.1186771664834377,-6.015268119752084,-7.126409046731355
1621785357766.211,-0.002,-0.08,-0.045,-0.10660551598871947,-6.021458709749375,-7.108146806239345
1621785357770.951,-0.002,-0.084,-0.044,-0.09454132211653363,-6.027645475837675,-7.089895846278859
1621785357773.521,-0.0036272994280414283,-0.08128783428659762,-0.044,-0.088,-6.031,-7.08
1621785357775.689,-0.005,-0.079,-0.044,-0.09920066419721547,-6.036529441818878,-7.07730616937029
1621785357780.424,-0.009,-0.068,-0.04,-0.12366427704687699,-6.0486064152509895,-7.071422515646954
1621785357785.156,-0.017,-0.07,-0.044,-0.14811149252778133,-6.060675293779537,-7.065542805594585
1621785357788.812,-0.014680691791430047,-0.06845379452762004,-0.046319308208569956,-0.167,-6.07,-7.061
1621785357789.885,-0.014,-0.068,-0.047,-0.16285277888844463,-6.074850139944022,-7.061
1621785357794.612,-0.021,-0.066,-0.047,-0.14458235905637745,-6.096217241103559,-7.061
1621785357799.336,-0.024,-0.065,-0.047,-0.12632420631747301,-6.1175699960016,-7.061
1621785357804.057,-0.023,-0.054,-0.044,-0.10807737704918033,-6.138909508196722,-7.061
1621785357804.077,-0.023004242330177452,-0.05401696932070981,-0.04401272699053236,-0.108,-6.139,-7.061
1621785357808.776,-0.024,-0.058,-0.047,-0.07469162113224478,-6.111859839441088,-7.066859807393401
1621785357813.491,-0.026,-0.049,-0.042,-0.04126902430817056,-6.0846266123992505,-7.072739708686526
1621785357818.205,-0.03,-0.044,-0.042,-0.00785334978447931,-6.057399025750317,-7.078618392167545
1621785357819.313,-0.02952954592577234,-0.04258863777731702,-0.04082386481443085,0.0,-6.051,-7.08
1621785357822.915,-0.028,-0.038,-0.037,0.0,-6.041525910229243,-7.075499807358891
1621785357827.622,-0.035,-0.035,-0.031,0.0,-6.029145508251461,-7.069619116419444
1621785357832.326,-0.037,-0.026,-0.03,0.0,-6.0167734540550954,-7.06374239067617
1621785357834.521,-0.037,-0.02506654900332226,-0.03,0.0,-6.011,-7.061
1621785357837.029,-0.037,-0.024,-0.03,-0.004792359044478405,-6.011,-7.064139821442934
1621785357841.728,-0.04,-0.016,-0.03,-0.013771093058795144,-6.011,-7.0700224402799
1621785357846.424,-0.038,-0.014,-0.021,-0.022744229067803427,-6.011,-7.075901391458216
1621785357849.698,-0.040789971913034434,-0.011210028086965567,-0.019605014043482784,-0.029,-6.011,-7.08
1621785357851.118,-0.042,-0.01,-0.019,-0.032749234488315876,-6.018404738114424,-7.087404738114424
1621785357855.808,-0.042,-0.009,-0.014,-0.045133440773569705,-6.0428635455278,-7.1118635455278
1621785357860.497,-0.045,-0.002,-0.014,-0.05751442385173248,-6.067315987107172,-7.136315987107172
1621785357864.847,-0.045,-0.000142998592943874,-0.012142998592943875,-0.069,-6.09,-7.159
1621785357865.182,-0.045,0.0,-0.012,-0.0698639798488665,-6.090863979848867,-7.1607279596977325
1621785357869.865,-0.035,0.0,-0.014,-0.08194332493702772,-6.102943324937027,-7.184886649874056
1621785357874.545,-0.033,0.0,-0.007,-0.09401448362720403,-6.115014483627204,-7.209028967254408
1621785357879.223,-0.028,0.0,-0.005,-0.10608060453400503,-6.1270806045340045,-7.23316120906801
1621785357879.967,-0.028,-0.0003184121180464873,-0.004681587881953513,-0.108,-6.129,-7.237
1621785357883.897,-0.028,-0.002,-0.003,-0.108,-6.131603976252487,-7.2268444926153
1621785357888.568,-0.016,-0.007,-0.003,-0.108,-6.134699079541226,-7.214773589789217
1621785357893.238,-0.01,-0.005,-0.003,-0.108,-6.137793373990974,-7.202705841435204
1621785357895.059,-0.0072680514859773965,-0.0030486082042695687,-0.002609721640853914,-0.108,-6.139,-7.198
1621785357897.904,-0.003,0.0,-0.002,-0.111588327768954,-6.129745891543224,-7.186857297980617
1621785357902.567,-0.005,-0.01,0.0,-0.11746951476451331,-6.114578619817834,-7.168594664678617
1621785357907.228,-0.01,-0.002,0.002,-0.12334854623837153,-6.099416907069463,-7.1503387248387416
1621785357910.123,-0.011243302752293578,-0.000756697247706422,0.002,-0.127,-6.09,-7.139
1621785357911.885,-0.012,0.0,0.002,-0.1339142945293344,-6.0830857054706655,-7.134429534124678
1621785357916.541,-0.014,-0.003,0.005,-0.15218539207248755,-6.064814607927512,-7.122352028969034
1621785357921.193,-0.017,0.0,0.003,-0.17044116070993617,-6.046558839290063,-7.110284656479872
1621785357925.158,-0.018705344954321117,-0.0017053449543211173,0.008116034862963351,-0.186,-6.031,-7.1
1621785357925.843,-0.019,-0.002,0.009,-0.18691303994143008,-6.028306532172781,-7.101780427885788
1621785357930.49,-0.03,-0.01,0.007,-0.19310648336451638,-6.010035874074677,-7.113857642560807
1621785357935.135,-0.026,-0.002,0.005,-0.19929732368014316,-5.991772895143578,-7.125929781176279
1621785357939.776,-0.028,-0.007,0.007,-0.20548263239241843,-5.973526234442366,-7.137991133165216
1621785357940.164,-0.028418465101589643,-0.007,0.007167386040635856,-0.206,-5.972,-7.139
1621785357944.414,-0.033,-0.007,0.009,-0.206,-5.966608769356154,-7.139
1621785357949.05,-0.037,0.0,0.009,-0.206,-5.960727905460473,-7.139
1621785357953.684,-0.033,-0.005,0.005,-0.206,-5.954849519152405,-7.139
1621785357955.142,-0.033,-0.003425437671377347,0.004055262602826408,-0.206,-5.953,-7.139
1621785357958.314,-0.033,0.0,0.002,-0.21024478060574378,-5.953,-7.147277322181201
1621785357962.942,-0.031,-0.007,0.003,-0.2164381350671415,-5.953,-7.159354363380926
1621785357967.566,-0.028,-0.003,0.0,-0.22262626196621688,-5.953,-7.171421210834123
1621785357970.087,-0.028,-0.00409062103929024,0.0,-0.226,-5.953,-7.178
1621785357972.189,-0.028,-0.005,0.0,-0.226,-5.955676844533897,-7.175323155466104
1621785357976.809,-0.026,-0.007,-0.002,-0.226,-5.961560306317805,-7.169439693682195
1621785357981.425,-0.028,-0.007,0.0,-0.226,-5.967438482810532,-7.163561517189469
1621785357985.007,-0.024894650510609028,-0.010881686861738717,-0.00232901211704323,-0.226,-5.972,-7.159
1621785357986.039,-0.024,-0.012,-0.003,-0.226,-5.976088879051694,-7.161702818356205
1621785357990.651,-0.033,-0.003,-0.009,-0.226,-5.99436163166265,-7.173781417539717
1621785357995.259,-0.026,-0.007,-0.005,-0.226,-6.0126198744118176,-7.18585042545866
1621785357999.865,-0.028,-0.01,-0.01,-0.226,-6.030869411243913,-7.197913678618859
1621785357999.898,-0.028014323607427057,-0.010028647214854112,-0.00996419098143236,-0.226,-6.031,-7.198
1621785358004.467,-0.03,-0.014,-0.005,-0.23184046449747878,-6.037147857365767,-7.209988321863246
1621785358009.068,-0.024,-0.016,-0.007,-0.23772181068607,-6.0433387480906,-7.22206055877667
1621785358013.666,-0.024,-0.017,-0.009,-0.2435990999129478,-6.049525368329419,-7.234124468242366
1621785358014.762,-0.02328431737258862,-0.01795424350321518,-0.011862730509645533,-0.245,-6.051,-7.237
1621785358018.26,-0.021,-0.021,-0.021,-0.24051984727799355,-6.046284049766309,-7.223087946810612
1621785358022.852,-0.019,-0.021,-0.017,-0.23463855243236126,-6.040093213086696,-7.204824978605753
1621785358027.442,-0.017,-0.024,-0.023,-0.22876007175301166,-6.03390533868738,-7.186570749127773
1621785358029.597,-0.015590311418685122,-0.022590311418685123,-0.023469896193771628,-0.226,-6.031,-7.178
1621785358032.028,-0.014,-0.021,-0.024,-0.21943248145094807,-6.024596669414674,-7.168477098103875
1621785358036.611,-0.017,-0.028,-0.023,-0.20705193734542457,-6.0125256389117885,-7.150525309150866
1621785358041.192,-0.021,-0.028,-0.026,-0.194677328936521,-6.000460395713108,-7.1325821269579555
1621785358044.404,-0.0280148219236511,-0.02940296438473022,-0.02459703561526978,-0.186,-5.992,-7.12
1621785358045.771,-0.031,-0.03,-0.024,-0.1751886222603644,-5.984700009902298,-7.121755693820966
1621785358050.346,-0.031,-0.024,-0.031,-0.13900458806443095,-5.960268055188804,-7.127631733562186
1621785358054.919,-0.038,-0.021,-0.03,-0.10283600145233694,-5.935846530895168,-7.133505264721416
1621785358059.197,-0.04455275388642556,-0.021,-0.028127784603878412,-0.069,-5.913,-7.139
1621785358059.489,-0.045,-0.021,-0.028,-0.06820718570813034,-5.912227006065427,-7.1397729939345735
1621785358064.057,-0.059,-0.014,-0.028,-0.05580454741307879,-5.900134433727752,-7.151865566272249
1621785358068.621,-0.065,-0.009,-0.028,-0.043411852441085814,-5.888051556130058,-7.163948443869941
1621785358073.182,-0.075,-0.01,-0.026,-0.0310284379039475,-5.875977726956348,-7.176022273043651
1621785358073.929,-0.07565545678483453,-0.01065545678483453,-0.025672271607582734,-0.029,-5.874,-7.178
1621785358077.741,-0.079,-0.014,-0.024,-0.054380616696246414,-5.879179717693111,-7.173079268191544
1621785358082.298,-0.08,-0.007,-0.021,-0.08472227106105591,-5.885371892053277,-7.167196702549387
1621785358086.851,-0.086,-0.007,-0.017,-0.11503629186087014,-5.891558426910382,-7.161319494435137
1621785358088.648,-0.086,-0.010553457432541173,-0.017,-0.127,-5.894,-7.159
1621785358091.402,-0.086,-0.016,-0.017,-0.13806311292842657,-5.905063112928427,-7.159
1621785358095.95,-0.089,-0.019,-0.017,-0.15633132209700476,-5.923331322097005,-7.159
1621785358100.496,-0.087,-0.012,-0.012,-0.17459266646720523,-5.941592666467206,-7.159
1621785358103.336,-0.087,-0.014500967533863686,-0.015126209417329608,-0.186,-5.953,-7.159
1621785358105.038,-0.087,-0.016,-0.017,-0.186,-5.955205888230201,-7.168055751681876
1621785358109.577,-0.084,-0.009,-0.016,-0.186,-5.961087940451609,-7.192203123959235
1621785358114.114,-0.086,-0.005,-0.017,-0.186,-5.966967777925798,-7.216341404116433
1621785358117.997,-0.09028221420494319,-0.009282214204943191,-0.017,-0.186,-5.972,-7.237
1621785358118.648,-0.091,-0.01,-0.017,-0.18862436599038976,-5.976359116390817,-7.235265249599573
1621785358123.18,-0.091,-0.005,-0.017,-0.20689747397223704,-6.00671105846236,-7.223186415509877
1621785358127.709,-0.089,-0.012,-0.017,-0.22515876935397758,-6.0370433796049126,-7.211115389749066
1621785358132.235,-0.087,-0.012,-0.01,-0.2434082521356113,-6.067356079818473,-7.199052172317138
1621785358132.63,-0.08656368051807879,-0.011825472207231517,-0.009389152725310308,-0.245,-6.07,-7.198
1621785358136.759,-0.082,-0.01,-0.003,-0.23397402336893836,-6.08668032362135,-7.181319676378651
1621785358141.279,-0.08,-0.017,-0.002,-0.2219043177373251,-6.10493962188456,-7.163060378115441
1621785358145.797,-0.082,-0.021,0.012,-0.20983982749109872,-6.123191030205773,-7.1448089697942265
1621785358147.235,-0.08263713559413706,-0.021955703391205582,0.013592838985342637,-0.206,-6.129,-7.139
1621785358150.311,-0.084,-0.024,0.017,-0.2224601778805085,-6.124990469490645,-7.147230088940255
1621785358154.824,-0.087,-0.026,0.031,-0.24661022059193005,-6.119107766778889,-7.159305110295965
1621785358159.333,-0.089,-0.035,0.044,-0.27073935983116426,-6.113230155938563,-7.171369679915582
1621785358161.811,-0.09119923081089865,-0.041597692432695954,0.047848653919072635,-0.284,-6.11,-7.178
1621785358163.84,-0.093,-0.047,0.051,-0.30045797811639924,-6.104421024367323,-7.1835789756326776
1621785358168.344,-0.091,-0.056,0.058,-0.3369898972947573,-6.09203732295093,-7.19596267704907
1621785358172.846,-0.093,-0.065,0.066,-0.3735059743572532,-6.079658991743305,-7.208341008256696
1621785358176.359,-0.093,-0.06890496092053844,0.07302892965696917,-0.402,-6.07,-7.218
1621785358177.344,-0.093,-0.07,0.075,-0.4119751942417006,-6.062060559685177,-7.227296609599408
1621785358181.84,-0.091,-0.08,0.08,-0.4575026235242676,-6.025824442501094,-7.269726934849148
1621785358186.333,-0.089,-0.098,0.08,-0.5029979146345566,-5.9896139046786185,-7.312127308196832
1621785358190.823,-0.091,-0.103,0.084,-0.5484635397396658,-5.953426978574552,-7.354500033634927
1621785358190.876,-0.091,-0.10322428330522765,0.08395278246205734,-0.549,-5.953,-7.355
1621785358195.311,-0.091,-0.122,0.08,-0.5970541524152921,-5.946878451921619,-7.358060774039191
1621785358199.795,-0.087,-0.126,0.075,-0.6456373607858334,-5.9406895081801485,-7.361155245909926
1621785358204.277,-0.086,-0.134,0.066,-0.6942020521979411,-5.934502923286886,-7.364248538356557
1621785358205.366,-0.08429863760217983,-0.13497220708446866,0.06527084468664851,-0.706,-5.933,-7.365
1621785358208.757,-0.079,-0.138,0.063,-0.7360141805658721,-5.923855054358835,-7.365
1621785358213.233,-0.07,-0.133,0.058,-0.7756290093861841,-5.911784911202647,-7.365
1621785358217.707,-0.072,-0.131,0.045,-0.8152287122695657,-5.899719376730367,-7.365
1621785358219.828,-0.06773073772729754,-0.13337181237372359,0.04025637525255283,-0.834,-5.894,-7.365
1621785358222.178,-0.063,-0.136,0.035,-0.8594027134012248,-5.922659471529587,-7.3218479547992015
1621785358226.647,-0.061,-0.126,0.023,-0.9077090367763981,-5.977158913286193,-7.239789136245221
1621785358231.112,-0.063,-0.108,0.012,-0.9559731366512163,-6.031610718273168,-7.157802043509151
1621785358234.26,-0.06793752735229759,-0.10165175054704595,0.007062472647702407,-0.99,-6.07,-7.1
1621785358235.575,-0.07,-0.099,0.005,-1.0195758520753182,-6.0852443435079575,-7.04897252682067
1621785358240.034,-0.075,-0.091,-0.005,-1.1198679728149417,-6.1369381217904175,-6.875937664186567
1621785358244.492,-0.068,-0.093,-0.016,-1.220138128569734,-6.188620578614647,-6.702940697930614
1621785358248.665,-0.07268352696185883,-0.10236705392371766,-0.027240464708461202,-1.314,-6.237,-6.541
1621785358248.947,-0.073,-0.103,-0.028,-1.3190024628031796,-6.235842567429852,-6.528307476730757
1621785358253.398,-0.08,-0.105,-0.044,-1.3979634146341464,-6.217573170731708,-6.327963414634147
1621785358257.847,-0.101,-0.108,-0.059,-1.476889717372104,-6.199311790882533,-6.127707266118622
1621785358262.294,-0.131,-0.105,-0.073,-1.5557813710170527,-6.181058427882329,-5.927539031184184
1621785358263.039,-0.13619760479041917,-0.10382634730538921,-0.07450898203592814,-1.569,-6.178,-5.894
1621785358266.738,-0.162,-0.098,-0.082,-1.5236199690270757,-6.155309984513538,-5.830828934157009
1621785358271.178,-0.194,-0.087,-0.098,-1.4691495549769404,-6.12807477748847,-5.755003641871309
1621785358275.616,-0.244,-0.073,-0.115,-1.414703102397849,-6.100851551198924,-5.67921170504246
1621785358277.385,-0.2551660979636764,-0.06422663731425426,-0.1177915244909191,-1.393,-6.09,-5.649
1621785358280.052,-0.272,-0.051,-0.122,-1.3179395236227855,-6.150346387955874,-5.694632299534534
1621785358284.484,-0.305,-0.033,-0.127,-1.1932074815433666,-6.250627235682256,-5.770461952907879
1621785358288.914,-0.34,-0.019,-0.127,-1.068523537535592,-6.350869413991236,-5.846262365518065
1621785358291.704,-0.3557558043346385,-0.007025588705674737,-0.12826046434677107,-0.99,-6.414,-5.894
1621785358293.341,-0.365,0.0,-0.129,-0.9810635134904225,-6.442069733267262,-5.986114553252568
1621785358297.765,-0.374,0.021,-0.133,-0.9569130085607368,-6.517927088495122,-6.235050527143175
1621785358302.187,-0.379,0.037,-0.129,-0.9327718332963109,-6.593755139005177,-6.48389033371495
1621785358305.992,-0.3729713196286472,0.055947281167108745,-0.129,-0.912,-6.659,-6.698
1621785358306.605,-0.372,0.059,-0.129,-0.9111403187428317,-6.652681342759813,-6.743520122567062
1621785358311.021,-0.365,0.068,-0.138,-0.9049476008696099,-6.607164866391632,-7.071424533954158
1621785358315.435,-0.342,0.075,-0.15,-0.8987576219251245,-6.561668521149665,-7.399183919064656
1621785358319.846,-0.304,0.077,-0.164,-0.892572093739836,-6.516204888987795,-7.726707636475683
1621785358320.254,-0.30103772644174837,0.07718514209739072,-0.165018281535649,-0.892,-6.512,-7.757
1621785358324.253,-0.272,0.079,-0.175,-0.7624571889313959,-6.495420768214647,-7.950049698924362
1621785358328.658,-0.237,0.068,-0.185,-0.6197623818428231,-6.4771583091729426,-8.162699010138788
1621785358333.06,-0.195,0.07,-0.19,-0.47716247791254224,-6.45890799608859,-8.375206893002352
1621785358334.485,-0.17880590389523915,0.07161940961047608,-0.19064776384419044,-0.431,-6.453,-8.444
1621785358337.46,-0.145,0.075,-0.192,-0.2689158574939419,-6.399600185608469,-8.503472734459589
1621785358341.857,-0.093,0.082,-0.187,-0.029347912764019435,-6.320672761957138,-8.59137621805558
1621785358346.251,-0.038,0.093,-0.171,0.21006040868235182,-6.241797927372094,-8.679221131867942
1621785358348.691,-0.011334519177320732,0.1041106170094497,-0.16155597554196777,0.343,-6.198,-8.728
1621785358350.643,0.01,0.113,-0.154,0.45371702402479985,-6.103394781710152,-8.667270886075949
1621785358355.031,0.059,0.131,-0.131,0.702581090157582,-5.89074600878326,-8.530767088607595
1621785358359.417,0.106,0.155,-0.099,0.9513343838801345,-5.678191888400931,-8.394324050632912
1621785358362.867,0.14378131788559015,0.17152932657494568,-0.06751556842867487,1.147,-5.511,-8.287
1621785358363.8,0.154,0.176,-0.059,1.2037444733084453,-5.453006227742701,-8.20250793951176
1621785358368.181,0.183,0.215,-0.012,1.4701554699193147,-5.180729867359402,-7.80582412648167
1621785358372.558,0.218,0.241,0.047,1.7363437645156294,-4.908681112047757,-7.409471914944862
1621785358376.966,0.232,0.264,0.113,2.004402756034201,-4.634720474134223,-7.010334250864486
1621785358377.058,0.23196767463130216,0.26429092831828055,0.11372193323425174,2.01,-4.629,-7.002
1621785358385.508,0.229,0.291,0.18,2.3305716946227477,-4.359135356269322,-6.285655475956942
1621785358390.495,0.208,0.326,0.237,2.51976929093776,-4.199864457494755,-5.862877469177954
1621785358395.48,0.162,0.354,0.293,2.7088835280533377,-4.040663732416225,-5.4402857355698195
1621785358396.722,0.1468030265928792,0.36047739850139576,0.3081969734071208,2.756,-4.001,-5.335
1621785358400.465,0.101,0.38,0.354,2.9200805214491434,-4.119528422010005,-5.157207366984993
1621785358405.45,0.012,0.405,0.408,3.138590571471881,-4.27737562528422,-4.92043656207367
1621785358410.435,-0.091,0.431,0.469,3.3571113233287857,-4.435230559345157,-4.683654160982265
1621785358412.828,-0.1471730675026942,0.437721563632801,0.49876692465954736,3.462,-4.511,-4.57
1621785358415.419,-0.208,0.445,0.531,3.2095546981595464,-4.668838649525484,-4.795575725417665
1621785358420.403,-0.337,0.457,0.562,2.7239548831145206,-4.972454595069888,-5.229489645553501
1621785358425.386,-0.459,0.475,0.571,2.238474000181923,-5.275996179618568,-5.663297292380462
1621785358428.932,-0.5457783926734904,0.4849581762084333,0.559619227190362,1.893,-5.492,-5.972
1621785358430.371,-0.581,0.489,0.555,1.6624038374033066,-5.6445386015470955,-6.134195207037767
1621785358435.353,-0.686,0.494,0.529,0.8641773244350068,-6.172562809039891,-6.695646503867739
1621785358440.336,-0.771,0.501,0.478,0.06579434248445293,-6.700690520248749,-7.257207856817837
1621785358445.028,-0.8227981574949772,0.5207774783162641,0.41395864164257357,-0.686,-7.198,-7.786
1621785358445.318,-0.826,0.522,0.41,-0.7171014576286612,-7.235642494198305,-7.802974260188991
1621785358450.301,-0.829,0.527,0.33,-1.2514286884375618,-7.88234561422136,-8.094594336331507
1621785358455.283,-0.773,0.536,0.227,-1.7856512005339078,-8.528921991839708,-8.386157260082816
1621785358460.264,-0.667,0.532,0.138,-2.3197689939176995,-9.175371627053346,-8.677663031442915
1621785358461.124,-0.6464521884036661,0.5332086947997844,0.12315032103122091,-2.412,-9.287,-8.728
1621785358465.245,-0.548,0.539,0.052,-2.407133896736409,-9.432726987209637,-8.702901151587795
1621785358470.227,-0.393,0.534,-0.019,-2.4012513313811468,-9.608894339164607,-8.672559498702757
1621785358475.207,-0.251,0.513,-0.091,-2.3953710722359616,-9.784992626196725,-8.64222974100654
1621785358477.215,-0.20261290322580644,0.5073548387096775,-0.11559677419354839,-2.393,-9.856,-8.63
1621785358480.187,-0.131,0.499,-0.152,-2.25703836348185,-9.569667749180526,-8.495885668325847
1621785358485.167,-0.024,0.475,-0.201,-2.029210756343329,-9.08986776132087,-8.271153544979969
1621785358490.147,0.056,0.456,-0.232,-1.8013831492048076,-8.61006777346121,-8.04642142163409
1621785358493.303,0.0876931450426596,0.44459046778464256,-0.2478465725213298,-1.657,-8.306,-7.904
1621785358495.126,0.106,0.438,-0.257,-1.5469728819217872,-8.102716117577431,-7.744001760322928
1621785358500.105,0.122,0.421,-0.283,-1.2464649073554184,-7.547503649635036,-7.30701179112858
1621785358505.083,0.117,0.403,-0.297,-0.9460158732567492,-6.992400078911027,-6.870107531450597
1621785358509.391,0.08412032950867902,0.403,-0.30738305383936454,-0.686,-6.512,-6.492
1621785358510.062,0.079,0.403,-0.309,-0.6471659380692169,-6.470246083788706,-6.453541347905283
1621785358515.04,0.021,0.407,-0.314,-0.359019459623558,-6.160434456587735,-6.168180388585307
1621785358520.018,-0.047,0.408,-0.326,-0.0708729811778992,-5.850622829386763,-5.882819429265331
1621785358524.995,-0.117,0.422,-0.328,0.2172169702489375,-5.540871979356406,-5.5975144505160905
1621785358525.475,-0.12384748589649253,0.4233502084866323,-0.32819288692666176,0.245,-5.511,-5.57
1621785358529.972,-0.188,0.436,-0.33,0.4863286926685594,-5.483595351238101,-5.441086295109843
1621785358534.949,-0.265,0.44,-0.332,0.7534293348717871,-5.453264107975162,-5.2984056507811195
1621785358539.926,-0.346,0.454,-0.328,1.020529977075015,-5.422932864712223,-5.155725006452396
1621785358541.556,-0.3754789520164851,0.4602233343145913,-0.3263622804435286,1.108,-5.413,-5.109
1621785358544.902,-0.436,0.473,-0.323,1.1997868250015187,-5.488552420579482,-5.133559740023082
1621785358549.878,-0.513,0.492,-0.309,1.336275025815465,-5.600899851181437,-5.170080392395068
1621785358554.854,-0.571,0.513,-0.311,1.4727699234647391,-5.713252794144445,-5.206602836664035
1621785358557.633,-0.5844062223967023,0.5247304445971146,-0.3037382962017862,1.549,-5.776,-5.227
1621785358559.829,-0.595,0.534,-0.298,1.5745497076023391,-5.836253588516747,-5.312803296119086
1621785358564.803,-0.595,0.555,-0.29,1.6324178780284042,-5.972723444976077,-5.507141323004481
1621785358569.779,-0.565,0.578,-0.286,1.6903116123642439,-6.109253588516746,-5.7015652008809905
1621785358573.706,-0.5381561380258185,0.5914219309870907,-0.27494664506945465,1.736,-6.217,-5.855
1621785358574.753,-0.531,0.595,-0.272,1.7398435781349701,-6.237455653125094,-5.860081340585215
1621785358579.727,-0.497,0.609,-0.269,1.758105952417125,-6.334648628118258,-5.884224818449758
1621785358584.7,-0.471,0.623,-0.248,1.776363844915074,-6.431817750903953,-5.9083623712436575
1621785358589.674,-0.445,0.632,-0.232,1.7946262191972289,-6.529010725897116,-5.932505849108201
1621785358589.776,-0.4446724434189209,0.6319590554273651,-0.2313244145515244,1.795,-6.531,-5.933
1621785358594.647,-0.429,0.63,-0.199,1.7592279723467295,-6.575563458178227,-5.909354083415635
1621785358599.62,-0.412,0.627,-0.176,1.7227065106738586,-6.6210605333130745,-5.8852127782420425
1621785358604.592,-0.398,0.618,-0.141,1.686194013522753,-6.6665464407809765,-5.861077398769278
1621785358605.844,-0.39321665275664003,0.6152306937012126,-0.13395085669399576,1.677,-6.678,-5.855
1621785358609.565,-0.379,0.607,-0.113,1.6112241740874693,-6.696296796644683,-5.873065191623865
1621785358614.536,-0.365,0.586,-0.087,1.523351882807039,-6.7207401452755064,-5.897199130778349
1621785358619.508,-0.351,0.564,-0.065,1.4354580129471477,-6.745189496398504,-5.921338996444093
1621785358621.91,-0.34423549923874075,0.5572354992387407,-0.05533642748391533,1.393,-6.757,-5.933
1621785358624.479,-0.337,0.55,-0.045,1.347411956951327,-6.757,-5.9941039734898
1621785358629.45,-0.323,0.511,-0.019,1.2592034475420304,-6.757,-6.112334326452437
1621785358634.421,-0.309,0.487,-0.007,1.1709949381327336,-6.757,-6.230564679415074
1621785358637.971,-0.294000442086649,0.4670005894488653,0.00014264662540524643,1.108,-6.757,-6.315
1621785358639.391,-0.288,0.459,0.003,1.0975648089026726,-6.762217595548663,-6.347101477697711
1621785358644.361,-0.258,0.438,0.017,1.061046124844173,-6.780476937577913,-6.459442853233604
1621785358649.331,-0.215,0.41,0.024,1.024527440785673,-6.798736279607163,-6.571784228769498
1621785358654.03,-0.17717363533631406,0.38730418120178844,0.021163022650223556,0.99,-6.816,-6.678
1621785358654.3,-0.175,0.386,0.021,0.9906728619446683,-6.814015057263228,-6.6756954478395105
1621785358659.269,-0.122,0.356,0.03,1.003055103499673,-6.777487444675964,-6.63328627051362
1621785358664.238,-0.073,0.328,0.028,1.0154373450546776,-6.740959832088701,-6.590877093187729
1621785358669.206,-0.028,0.309,0.026,1.0278171531125948,-6.704439398317845,-6.548476250589363
1621785358670.082,-0.020947073566268612,0.305297213622291,0.026,1.03,-6.698,-6.541
1621785358674.174,0.012,0.288,0.026,1.0972999437253799,-6.630445132245358,-6.405890264490715
1621785358679.142,0.047,0.271,0.026,1.1790066769076337,-6.548428903861656,-6.241857807723312
1621785358684.11,0.073,0.251,0.028,1.2607134100898874,-6.466412675477954,-6.077825350955909
1621785358686.134,0.07748240267400708,0.24814756193472276,0.027185017695635076,1.294,-6.433,-6.011
1621785358689.077,0.084,0.244,0.026,1.3372746246406133,-6.389908742412948,-5.930135129379193
1621785358694.043,0.087,0.232,0.033,1.4103001049637192,-6.317192692091212,-5.793676498775423
1621785358699.01,0.086,0.211,0.042,1.4833399455405631,-6.24446234236427,-5.657191033968694
1621785358702.183,0.07322088392901037,0.19885983973255986,0.052223292856791705,1.53,-6.198,-5.57
1621785358703.976,0.066,0.192,0.058,1.5277651999269672,-6.191407339784554,-5.5612842797151725
1621785358708.942,0.042,0.166,0.073,1.5215756801168523,-6.173148256344715,-5.537145152455724
1621785358713.907,0.016,0.141,0.101,1.515387073215264,-6.154891865985029,-5.513009585539529
1621785358718.229,-0.01011447116093819,0.12184938781531199,0.11928012981265673,1.51,-6.139,-5.492
1621785358718.872,-0.014,0.119,0.122,1.4986161431701972,-6.145293188458729,-5.501820580715851
1621785358723.838,-0.044,0.091,0.145,1.410708911614317,-6.1938897918188465,-5.577656044558071
1621785358728.802,-0.075,0.058,0.157,1.3228319332846359,-6.242469670684198,-5.653465409666423
1621785358733.767,-0.11,0.033,0.173,1.2349376673971268,-6.291059106403702,-5.729289688336986
1621785358734.272,-0.11213636363636363,0.029642857142857144,0.1747294372294372,1.226,-6.296,-5.737
1621785358738.73,-0.131,0.0,0.19,1.1932042617960426,-6.4566435312024355,-5.859567123287671
1621785358743.695,-0.152,-0.023,0.201,1.1566781430745814,-6.635559604261796,-5.996075753424657
1621785358748.658,-0.166,-0.054,0.208,1.120168188736682,-6.814396499238965,-6.13252397260274
1621785358750.312,-0.16933267745585126,-0.05766594520143637,0.21266574843819175,1.108,-6.874,-6.178
1621785358753.621,-0.176,-0.065,0.222,1.1707356689352761,-7.052095007536655,-6.2933593386013795
1621785358758.584,-0.178,-0.075,0.23,1.2648252866212946,-7.319198099849267,-6.466372813227973
1621785358763.546,-0.175,-0.084,0.241,1.3588963900181183,-7.586248633505383,-6.639352243487264
1621785358766.347,-0.16314597785977858,-0.07891970479704798,0.2505961131611316,1.412,-7.737,-6.737
1621785358768.508,-0.154,-0.075,0.258,1.4424651042380494,-7.811140740402333,-6.834865777331079
1621785358773.47,-0.127,-0.073,0.267,1.5124123227800874,-7.9813662722524255,-7.059563479373201
1621785358778.432,-0.082,-0.073,0.267,1.5823595413221252,-8.151591804102518,-7.284261181415323
1621785358782.379,-0.041425372767088235,-0.073,0.265408838147729,1.638,-8.287,-7.463
1621785358783.393,-0.031,-0.073,0.265,1.649136220316522,-8.300603905500298,-7.47786938508172
1621785358788.354,0.019,-0.07,0.255,1.7036109427122206,-8.367149731154134,-7.550605520098704
1621785358793.314,0.089,-0.059,0.248,1.758074941737369,-8.43368245723599,-7.623327336978873
1621785358798.275,0.157,-0.052,0.232,1.8125496641330674,-8.500228282889827,-7.696063471995857
1621785358798.407,0.1589970960279569,-0.05154732490032977,0.23144081311217207,1.814,-8.502,-7.698
1621785358803.235,0.232,-0.035,0.211,1.879086332469907,-8.528817979582508,-7.541310681090965
1621785358808.194,0.3,-0.026,0.192,1.9459367362486666,-8.556362821880237,-7.380374523845802
1621785358813.154,0.354,-0.014,0.18,2.012800304738686,-8.583913088526588,-7.219406673777236
1621785358814.43,0.364806025994486,-0.014,0.17871356833398974,2.03,-8.591,-7.178
1621785358818.113,0.396,-0.014,0.175,2.0727599890280697,-8.599965804151047,-6.943739630002133
1621785358823.072,0.424,-0.019,0.173,2.1303326323489076,-8.612037487427997,-6.628328213099265
1621785358828.03,0.438,-0.023,0.183,2.1878939380085947,-8.624106793453416,-6.312978909512053
1621785358830.451,0.4389765609611976,-0.02641796336419145,0.18641796336419145,2.216,-8.63,-6.159
1621785358832.988,0.44,-0.03,0.19,2.2921858253315044,-8.588026520347508,-6.1418938271604935
1621785358837.946,0.424,-0.047,0.19,2.441067825026673,-8.506002133821065,-6.108465020576132
1621785358842.903,0.391,-0.068,0.199,2.5899204999237924,-8.42399390336839,-6.07504279835391
1621785358846.469,0.36366410559495665,-0.07159682821118991,0.19756126871552404,2.697,-8.365,-6.051
1621785358847.86,0.353,-0.073,0.197,2.8153952619784444,-8.293424287696084,-6.243490022409562
1621785358852.817,0.298,-0.023,0.201,3.237258899035017,-8.038387136606858,-6.929366632620394
1621785358857.774,0.216,0.045,0.229,3.659143314480845,-7.78333742396756,-7.615277024863942
1621785358862.484,0.09910758620689655,0.12197793103448276,0.26036137931034486,4.06,-7.541,-8.267
1621785358862.73,0.093,0.126,0.262,4.035728807356238,-7.551852097534197,-8.27287181481312
1621785358867.685,-0.061,0.173,0.291,3.547030269759214,-7.77035822010766,-8.391100340058252
1621785358872.641,-0.204,0.206,0.312,3.058235417905668,-7.988907406560227,-8.509352166155816
1621785358877.597,-0.286,0.216,0.34,2.569464644616253,-8.207445827043019,-8.627598167040272
1621785358878.494,-0.2901634804887662,0.21762918801734332,0.34126714623571147,2.481,-8.247,-8.649
1621785358882.552,-0.309,0.225,0.347,2.428778187863167,-8.505574021260047,-8.853070673641508
1621785358887.506,-0.284,0.229,0.33,2.365026231908371,-8.821239045890588,-9.102198462688161
1621785358892.46,-0.215,0.246,0.291,2.3012774176821362,-9.13688851438942,-9.351313974591651
1621785358894.502,-0.17832301931415057,0.2591872290106425,0.28481848640126134,2.275,-9.267,-9.454
1621785358897.415,-0.126,0.278,0.276,2.1179257592629313,-9.23132612840734,-9.555743337858658
1621785358902.368,-0.033,0.305,0.267,1.8508653233064356,-9.170672773311773,-9.728729182238357
1621785358907.321,0.051,0.309,0.241,1.5837917232332168,-9.110016428451576,-9.90172355354882
1621785358910.507,0.10246152708631144,0.2897019273426332,0.19854424015379307,1.412,-9.071,-10.013
1621785358912.274,0.131,0.279,0.175,1.2484663259078426,-8.952959826060422,-10.010791577662497
1621785358917.228,0.244,0.216,0.105,0.7899302868477266,-8.621984116570033,-10.004599328654256
1621785358922.18,0.393,0.119,0.042,0.33159761977418367,-8.29115520292951,-9.99840982606042
1621785358926.508,0.5380822323013212,0.025483139420232698,-0.01743127588246894,-0.069,-8.002,-9.993
1621785358927.132,0.559,0.012,-0.026,-0.04107324665812123,-7.9220811206738695,-9.98266398095587
1621785358932.084,0.719,-0.096,-0.103,0.1805379967039004,-7.287889168650431,-9.900643059879144
1621785358937.035,0.84,-0.188,-0.162,0.40210553622657635,-6.653822285295734,-9.818638314106085
1621785358941.986,0.897,-0.253,-0.188,0.6236840017090888,-6.019724134773851,-9.73662952450711
1621785358942.507,0.8945796636915035,-0.2588929927511219,-0.188,0.647,-5.953,-9.728
1621785358946.937,0.874,-0.309,-0.188,0.32101869800808974,-5.311838815538426,-9.288188353812105
1621785358951.888,0.794,-0.387,-0.185,-0.04330066397008325,-4.595271846142104,-8.796651270701366
1621785358956.838,0.674,-0.461,-0.208,-0.4075481645424712,-3.8788462184232615,-8.305211142486455
1621785358958.502,0.6286182679029395,-0.4862120733872559,-0.2184209903333991,-0.53,-3.638,-8.14
1621785358961.788,0.539,-0.536,-0.239,-0.5501377036166283,-3.4043615406927925,-8.083491137810482
1621785358966.737,0.408,-0.593,-0.251,-0.5804654443307941,-3.052497855060073,-7.998387783765629
1621785358971.688,0.307,-0.639,-0.234,-0.610805153962414,-2.700495305558524,-7.913250843472818
1621785358974.494,0.24745665367345931,-0.6497745102876598,-0.2192559332905709,-0.628,-2.501,-7.865
1621785358976.636,0.202,-0.658,-0.208,-0.5346267959386213,-2.5430648293762883,-7.850531842125354
1621785358981.585,0.094,-0.635,-0.208,-0.3189021299335827,-2.6402492556683717,-7.817105351553554
1621785358986.533,-0.009,-0.585,-0.209,-0.10322003206351626,-2.7374145049240397,-7.783685456905107
1621785358990.484,-0.10082636798736863,-0.5179268268614003,-0.2082015098435881,0.069,-2.815,-7.757
1621785358991.481,-0.124,-0.501,-0.208,0.1252587699873242,-2.891404648818705,-7.793674231432978
1621785358996.429,-0.216,-0.398,-0.195,0.4044449823607568,-3.270565524824753,-7.975671451915882
1621785359001.376,-0.283,-0.309,-0.175,0.6835760930985506,-3.6496515676781867,-8.15763275248553
1621785359006.323,-0.318,-0.227,-0.14,0.9627072038363444,-4.028737610531621,-8.339594053055178
1621785359006.47,-0.31844555188237034,-0.22566334435288893,-0.13839601322346673,0.971,-4.04,-8.345
1621785359011.271,-0.333,-0.182,-0.086,0.8000496379136492,-4.458512925107709,-8.657457603813366
1621785359016.217,-0.328,-0.147,-0.038,0.6239355577963149,-4.889667430561921,-8.979353286277385
1621785359021.163,-0.281,-0.152,-0.002,0.4478214776789806,-5.3208219360161335,-9.301248968741406
1621785359022.45,-0.2627828577071196,-0.1551229386787795,0.005286856917152167,0.402,-5.433,-9.385
1621785359026.108,-0.211,-0.164,0.026,0.11901677821582474,-5.58342069313285,-9.463530133553375
1621785359031.055,-0.129,-0.192,0.047,-0.2636895571651233,-5.7868495461630145,-9.569734237951163
1621785359036.0,-0.056,-0.225,0.075,-0.6462447969194095,-5.9901980837993944,-9.675896412090095
1621785359038.427,-0.028515625771414466,-0.24659486546531723,0.0838342631449025,-0.834,-6.09,-9.728
1621785359040.945,0.0,-0.269,0.093,-0.9560106680523927,-6.125468217457091,-9.624432805025295
1621785359045.89,0.031,-0.314,0.122,-1.1956077274603005,-6.1951185254245065,-9.421053905760443
1621785359050.834,0.052,-0.379,0.161,-1.4351692980176987,-6.26475851686561,-9.21770513075242
1621785359054.401,0.048392770727371484,-0.4417657893437361,0.1848077131993482,-1.608,-6.315,-9.071
1621785359055.778,0.047,-0.466,0.194,-1.6849940543514812,-6.242316922935836,-9.071
1621785359060.721,0.021,-0.567,0.223,-1.9613318711215726,-5.981451548314126,-9.071
1621785359065.664,-0.021,-0.668,0.246,-2.2376833368997033,-5.720573288906551,-9.071
1621785359070.374,-0.05910765432098765,-0.7527895308641975,0.2440946172839506,-2.501,-5.472,-9.071
1621785359070.608,-0.061,-0.757,0.244,-2.4999893433223757,-5.462523262747497,-9.079759024539408
1621785359075.551,-0.075,-0.845,0.237,-2.4786294625793133,-5.262235685345157,-9.264877990979283
1621785359080.493,-0.07,-0.915,0.211,-2.457274856662335,-5.061997568993196,-9.449951242259766
1621785359085.436,-0.031,-0.988,0.182,-2.435914975919272,-4.861709991590857,-9.635070208699641
1621785359086.342,-0.01981455677438482,-0.9979018677734954,0.1777825378001779,-2.432,-4.825,-9.669
1621785359090.377,0.03,-1.042,0.159,-2.1494396562270612,-4.825,-9.455942424149743
1621785359095.318,0.113,-1.082,0.136,-1.8034156471739662,-4.825,-9.195031655248348
1621785359100.259,0.187,-1.105,0.113,-1.4574087350134572,-4.825,-8.934133777832152
1621785359102.307,0.20647613872147022,-1.114116490465369,0.1067842110463393,-1.314,-4.825,-8.826
1621785359105.201,0.234,-1.127,0.098,-1.0243608201709455,-4.800168605984618,-8.475822969067751
1621785359110.141,0.251,-1.124,0.082,-0.5299413158820201,-4.7577809513616,-7.8780642192015415
1621785359115.081,0.251,-1.094,0.089,-0.035546245470252646,-4.715395391507775,-7.280335010168041
1621785359118.274,0.24453789900187764,-1.0681515960075108,0.10450904239549362,0.284,-4.688,-6.894
1621785359120.022,0.241,-1.054,0.113,0.42690433585684784,-4.665441920929877,-6.742554255563203
1621785359124.961,0.215,-0.997,0.141,0.8306689607708189,-4.6017058958476715,-6.3146565726083965
1621785359129.9,0.159,-0.941,0.195,1.2344335856847901,-4.537969870765466,-5.88675888965359
1621785359134.237,0.10367920518016904,-0.9023632544115466,0.23802728485986852,1.589,-4.482,-5.511
1621785359134.839,0.096,-0.897,0.244,1.5897167727328356,-4.464608830008567,-5.498060365928283
1621785359139.779,0.044,-0.845,0.291,1.5955980296169379,-4.321910965610084,-5.3918882021784365
1621785359144.717,-0.01,-0.789,0.309,1.601476961204259,-4.179269520254559,-5.285758016154694
1621785359149.655,-0.042,-0.712,0.33,1.60735589279158,-4.036628074899033,-5.179627830130951
1621785359150.196,-0.04309583621798042,-0.7045483137177332,0.3323012560577589,1.608,-4.021,-5.168
1621785359154.592,-0.052,-0.644,0.351,1.543251029058469,-3.9262185276430355,-5.300528744778198
1621785359159.529,-0.056,-0.578,0.36,1.4705333965815366,-3.8197722911661645,-5.44936781380545
1621785359164.467,-0.054,-0.518,0.358,1.397801380239017,-3.713304999158391,-5.598236323851204
1621785359166.151,-0.052976807437444366,-0.4968540203738503,0.35493042231233307,1.373,-3.677,-5.649
1621785359169.404,-0.051,-0.456,0.349,1.2669417130961855,-3.7510368425886242,-5.649
1621785359174.34,-0.026,-0.401,0.339,1.1060196534623155,-3.8633728188330374,-5.649
1621785359179.277,-0.014,-0.349,0.333,0.945065756444009,-3.9757310200208167,-5.649
1621785359182.101,-0.0002658685004699943,-0.3261097808341166,0.333,0.853,-4.04,-5.649
1621785359184.212,0.01,-0.309,0.333,0.7309512822475694,-4.1075106790170715,-5.641189941054888
1621785359189.148,0.033,-0.269,0.328,0.4455498277577892,-4.2653791625200945,-5.622926724335911
1621785359194.083,0.045,-0.237,0.326,0.1602048380923219,-4.423216412768889,-5.604667120875756
1621785359198.047,0.05062278618779064,-0.22334466211536558,0.32037721381220935,-0.069,-4.55,-5.59
1621785359199.018,0.052,-0.22,0.319,-0.1299053876075837,-4.571499601825477,-5.594750620233391
1621785359203.953,0.065,-0.213,0.293,-0.43945545039664313,-4.680770773990015,-5.618895525130938
1621785359208.887,0.082,-0.194,0.284,-0.7489595699715152,-4.790025728199945,-5.643036846457778
1621785359213.821,0.105,-0.185,0.274,-1.0584636895463875,-4.8992806824098745,-5.667178167784618
1621785359213.989,0.10619154832005542,-0.185,0.273216982532535,-1.069,-4.903,-5.668
1621785359218.755,0.14,-0.185,0.251,-1.3153670393628427,-4.935290825547557,-5.679660575892173
1621785359223.688,0.182,-0.178,0.23,-1.570379200490121,-4.968714749578802,-5.691730326236789
1621785359228.621,0.237,-0.18,0.194,-1.8253913616173993,-5.002138673610047,-5.703800076581406
1621785359229.929,0.2574192366714519,-0.17946963021632592,0.18551408346121478,-1.893,-5.011,-5.707
1621785359233.553,0.314,-0.178,0.162,-1.966453626252413,-5.055572479088151,-5.56668765511536
1621785359238.487,0.386,-0.171,0.134,-2.066460213867696,-5.116257591077611,-5.375653399515887
1621785359243.418,0.445,-0.155,0.108,-2.1664024726537368,-5.176903667616509,-5.1847420259215
1621785359245.865,0.4703030888030888,-0.1440849420849421,0.09361196911196912,-2.216,-5.207,-5.09
1621785359248.35,0.496,-0.133,0.079,-2.2007138741610226,-5.1887502375187715,-4.961471758251862
1621785359253.281,0.531,-0.12,0.044,-2.17038340126881,-5.152539366820926,-4.706448190260198
1621785359258.213,0.56,-0.117,0.016,-2.1400469214502436,-5.116321324588556,-4.451374115051028
1621785359261.797,0.5687222497276958,-0.10028235468858303,0.004370333696405585,-2.118,-5.09,-4.266
1621785359263.144,0.572,-0.094,0.0,-2.0873072537510153,-5.09490407515824,-4.183053487409769
1621785359268.074,0.572,-0.077,-0.012,-1.9749674631028826,-5.112853683581357,-3.879457524253245
1621785359273.004,0.548,-0.042,-0.03,-1.8626276724547501,-5.130803292004475,-3.5758615610967217
1621785359277.727,0.5163920190117833,-0.013265471828893951,-0.039578176057035355,-1.755,-5.148,-3.285
1621785359277.935,0.515,-0.012,-0.04,-1.7620524395665036,-5.14519208424667,-3.2815390805831046
1621785359282.864,0.464,0.009,-0.051,-1.9291671137544644,-5.078655686190352,-3.1995291015834573
1621785359287.793,0.403,0.016,-0.073,-2.0962817879424254,-5.012119288134034,-3.11751912258381
1621785359292.722,0.33,0.021,-0.113,-2.263396462130386,-4.945582890077716,-3.0355091435841626
1621785359293.654,0.31770766258853833,0.025349596314824904,-0.11810604784783793,-2.295,-4.933,-3.02
1621785359297.651,0.265,0.044,-0.14,-2.0488063403492096,-5.016570324835589,-3.059401024021584
1621785359302.579,0.183,0.08,-0.15,-1.7452411816105347,-5.1196153787193595,-3.1079838272040226
1621785359307.507,0.091,0.136,-0.138,-1.4416910612726688,-5.2226553278248735,-3.156564223629145
1621785359309.58,0.0447275204359673,0.15955689868714393,-0.13000748080257618,-1.314,-5.266,-3.177
1621785359312.435,-0.019,0.192,-0.119,-1.1592444028706375,-5.354047506593878,-3.3934426485922837
1621785359317.362,-0.129,0.244,-0.086,-0.8921738790406675,-5.505996089676747,-3.7669700208550574
1621785359322.29,-0.239,0.288,-0.049,-0.6250504201680673,-5.657974789915966,-4.140571428571429
1621785359325.501,-0.31200510482232247,0.2990811319819596,-0.03661520543192744,-0.451,-5.757,-4.384
1621785359327.216,-0.351,0.305,-0.03,-0.6348023740874793,-5.689340040488314,-4.793946092264279
1621785359332.143,-0.459,0.302,-0.026,-1.1628188454696031,-5.494970553953745,-5.971614716888535
1621785359337.069,-0.546,0.265,-0.068,-1.690730660695663,-5.3006395926630265,-7.149049920250292
1621785359341.42,-0.5804461019973237,0.20494012985082025,-0.14042513753283442,-2.157,-5.129,-8.189
1621785359341.995,-0.585,0.197,-0.15,-2.2310893886706107,-5.169006141895858,-8.299939017597737
1621785359347.016,-0.586,0.084,-0.253,-2.8778306312002293,-5.51822783723976,-9.26834811603366
1621785359352.04,-0.545,-0.024,-0.363,-3.524949239037168,-5.867653299010974,-10.237322268888589
1621785359357.062,-0.48,-0.15,-0.447,-4.17181627000256,-6.216942916497313,-11.205919718797514
1621785359357.638,-0.4717445319335083,-0.16398843200155536,-0.4503251190823369,-4.246,-6.257,-11.317
1621785359362.085,-0.408,-0.272,-0.476,-3.6332981917742275,-7.433902623582152,-11.185197866835153
1621785359367.108,-0.339,-0.372,-0.436,-2.9412462015223997,-8.763224313265336,-11.036326217769354
1621785359372.132,-0.244,-0.445,-0.36,-2.249026025212865,-10.092869061587988,-10.887418389144628
1621785359373.867,-0.19715800865800864,-0.4582835497835498,-0.3299372294372294,-2.01,-10.552,-10.836
1621785359377.095,-0.11,-0.483,-0.274,-1.3205564340657654,-10.975228800833563,-10.579712573932763
1621785359382.026,0.066,-0.473,-0.18,-0.2674107903527321,-11.621723437835188,-10.188225874168735
1621785359386.956,0.271,-0.461,-0.082,0.7855784223591065,-12.26812204652018,-9.796797324629953
1621785359389.8,0.3794325394860623,-0.4436969351883943,-0.02489988612170125,1.393,-12.641,-9.571
1621785359391.887,0.459,-0.431,0.017,1.574072270504744,-12.539458024861666,-9.526059487132324
1621785359396.816,0.623,-0.387,0.131,2.0017358256311217,-12.299632225134502,-9.419917229962753
1621785359401.745,0.742,-0.349,0.232,2.4294205637559205,-12.059794546374212,-9.313769715363039
1621785359405.728,0.8139034318823354,-0.3077969098202347,0.3055192393403655,2.775,-11.866,-9.228
1621785359406.675,0.831,-0.298,0.323,2.802419942958783,-11.720156832679097,-9.368014198969577
1621785359411.603,0.874,-0.22,0.38,2.9451040235525023,-10.96123846908734,-10.096600588812562
1621785359416.531,0.89,-0.12,0.44,3.087788104146222,-10.202320105495584,-10.825186978655545
1621785359421.458,0.866,-0.012,0.527,3.2304439094700688,-9.443552134445534,-11.553628986751718
1621785359421.65,0.8644424077285112,-0.009546792172405252,0.5308939806787218,3.236,-9.414,-11.582
1621785359426.386,0.826,0.051,0.627,2.538598794497017,-9.399421220533426,-11.538263661600283
1621785359431.313,0.833,0.037,0.686,1.8130844005460038,-9.384254750694009,-11.492764252082024
1621785359436.239,0.937,0.021,0.693,1.0877138080704283,-9.369091286943451,-11.447273860830355
1621785359437.568,0.9944699905833375,0.047441591911582495,0.6943490608118154,0.892,-9.365,-11.435
1621785359441.165,1.15,0.119,0.698,0.29793288837744536,-8.91289413118527,-11.162154108170311
1621785359446.091,1.391,0.298,0.726,-0.51564833141542,-8.293730341388569,-10.788488761028002
1621785359451.016,1.559,0.449,0.745,-1.3290682623705408,-7.674689298043729,-10.41489749136939
1621785359453.48,1.5865163593099345,0.4845211183819155,0.7389964306960143,-1.736,-7.365,-10.228
1621785359455.941,1.614,0.52,0.733,-1.9316545755846068,-6.65816884551648,-10.079364389615172
1621785359460.865,1.571,0.536,0.695,-2.323138418339164,-5.243875437304364,-9.781960458479102
1621785359465.79,1.482,0.525,0.672,-2.714699901798318,-3.8293015405388817,-9.484497544957957
1621785359469.391,1.4029978178932752,0.47013737353699664,0.6690739932553065,-3.001,-2.795,-9.267
1621785359470.713,1.374,0.45,0.668,-2.8241403395658713,-2.7787102944336985,-9.010270915845384
1621785359475.635,1.225,0.34,0.672,-2.1655390070921987,-2.718049645390071,-8.054246707193515
1621785359480.559,1.066,0.236,0.668,-1.5066763378465506,-2.6573649258542877,-7.09784314267293
1621785359485.295,0.8985767857142857,0.20713392857142857,0.6949416666666666,-0.873,-2.599,-6.178
1621785359485.481,0.892,0.206,0.696,-0.8603754663964255,-2.6059967294670416,-6.162625915518909
1621785359490.403,0.73,0.227,0.775,-0.5263554900425322,-2.7911162344342593,-5.7558583076143535
1621785359495.324,0.564,0.248,0.845,-0.19241835183564415,-2.976189829103137,-5.3491915795292275
1621785359500.245,0.375,0.237,0.846,0.141535354000645,-3.161272605831683,-4.942504675480215
1621785359501.195,0.3338815737249454,0.2302434510815638,0.8340312562016273,0.206,-3.197,-4.864
1621785359505.166,0.162,0.202,0.784,-0.11248565592652884,-3.0231443007648124,-5.121286451454372
1621785359510.086,-0.054,0.155,0.679,-0.5070828239702676,-2.8077406702091716,-5.440059065638726
1621785359515.005,-0.253,0.119,0.572,-0.9016016678440888,-2.592379795435697,-5.7587684061799305
1621785359517.092,-0.3234319817360663,0.12239431237282247,0.5257524939202938,-1.069,-2.501,-5.894
1621785359519.924,-0.419,0.127,0.463,-1.079513379827337,-2.7980475283418844,-6.087873851731236
1621785359524.844,-0.552,0.164,0.365,-1.097777658299794,-3.3140907861992686,-6.424679529325018
1621785359529.762,-0.637,0.218,0.284,-1.1160346861654735,-3.829929183692279,-6.761351500814158
1621785359532.985,-0.6737013502779984,0.25470135027799845,0.23156949960285939,-1.128,-4.168,-6.982
1621785359534.68,-0.693,0.274,0.204,-1.1582953117076693,-4.3259836501375295,-7.078326290394456
1621785359539.597,-0.716,0.344,0.117,-1.2461875009604007,-4.784322848318146,-7.357786314673387
1621785359544.515,-0.716,0.41,0.031,-1.3340971464572737,-5.242753077124022,-7.6373018424328105
1621785359548.873,-0.7106819265143992,0.4720441906653426,-0.03547591857000992,-1.412,-5.649,-7.885
1621785359549.432,-0.71,0.48,-0.044,-1.3930355380666184,-5.6817567978849315,-7.913956868592157
1621785359554.348,-0.703,0.545,-0.079,-1.2262079253577631,-5.969913583472954,-8.168686228999185
1621785359559.265,-0.681,0.593,-0.11,-1.059347172479518,-6.258127611171742,-8.42346619118619
1621785359564.18,-0.653,0.63,-0.126,-0.8925526999400526,-6.546227154649,-8.678144949813241
1621785359564.756,-0.6478420425193722,0.6326962050466919,-0.128461752433936,-0.873,-6.58,-8.708
1621785359569.095,-0.609,0.653,-0.147,-0.7899328413284132,-6.676456273062731,-8.938620664206642
1621785359574.01,-0.562,0.667,-0.168,-0.6958349323493235,-6.785721279212792,-9.199866174661746
1621785359578.925,-0.504,0.668,-0.183,-0.6017370233702337,-6.894986285362854,-9.461111685116851
1621785359580.635,-0.4810337837837838,0.6638243243243244,-0.1892635135135135,-0.569,-6.933,-9.552
1621785359583.839,-0.438,0.656,-0.201,-0.5768719778529683,-6.901310243002153,-9.625269947708397
