time,gyro_x,gyro_y,gyro_z,acc_x,acc_y,acc_z
1621785452730.839,,,,1.255,-2.354,-9.169
1621785452749.451,,,,1.393,-2.412,-9.15
1621785452768.177,0.937,-0.195,0.482,1.4900259706732757,-2.412,-8.964858606980586
1621785452768.365,0.9371589332892999,-0.19522250660501983,0.4820953599735799,1.491,-2.412,-8.963
1621785452774.091,0.942,-0.202,0.485,1.485042142430747,-2.432554608613923,-8.933806497910659
1621785452780.035,0.946,-0.202,0.497,1.4788576962645905,-2.453890947887163,-8.903502711696493
1621785452786.01,0.948,-0.215,0.499,1.4726407351428246,-2.475339463757255,-8.87303960219984
1621785452787.587,0.950627318581191,-0.215,0.5013645867230719,1.471,-2.481,-8.865
1621785452792.012,0.958,-0.215,0.508,1.471,-2.5254179097012965,-8.865
1621785452798.044,0.967,-0.215,0.511,1.471,-2.5859659535628103,-8.865
1621785452804.106,0.983,-0.218,0.517,1.471,-2.646815426549469,-8.865
1621785452807.113,0.9913926810693815,-0.21651893863481503,0.5209494969738266,1.471,-2.677,-8.865
1621785452810.197,1.0,-0.215,0.525,1.4642158968850698,-2.736665317139001,-8.85143179377014
1621785452815.167,1.014,-0.22,0.536,1.453283029001074,-2.832818488529015,-8.829566058002149
1621785452820.772,1.031,-0.216,0.548,1.440953276047261,-2.941257085020243,-8.804906552094522
1621785452824.842,1.0404280680384566,-0.21019811197633445,0.5567028320354984,1.432,-3.02,-8.787
1621785452826.384,1.044,-0.208,0.56,1.432,-3.0424916684583962,-8.8019378628252
1621785452832.001,1.07,-0.197,0.578,1.432,-3.1244210250483766,-8.85635132229628
1621785452837.625,1.084,-0.199,0.592,1.432,-3.2064536524403353,-8.910833369167921
1621785452843.01,1.1136516478751084,-0.18560893321769298,0.6034780572419775,1.432,-3.285,-8.963
1621785452843.255,1.115,-0.185,0.604,1.4322551752765056,-3.2871085536006,-8.963402908331323
1621785452848.891,1.134,-0.169,0.614,1.4381285316408237,-3.3356410246110175,-8.972676628906564
1621785452854.532,1.15,-0.162,0.618,1.4440067218339092,-3.3842134383117752,-8.981957981843014
1621785452860.182,1.166,-0.157,0.623,1.4498943252724887,-3.432863635146354,-8.991254197798666
1621785452861.243,1.1703169077952926,-0.1547477002807169,0.6243138415029151,1.451,-3.442,-8.993
1621785452865.835,1.189,-0.145,0.63,1.406824439195591,-3.5085143387111843,-8.993
1621785452871.496,1.206,-0.126,0.632,1.3523641859161695,-3.5905141518875854,-8.993
1621785452877.162,1.239,-0.119,0.639,1.2978569598462708,-3.6725846911405577,-8.993
1621785452879.538,1.2507253012048194,-0.1122998278829604,0.6373249569707401,1.275,-3.707,-8.993
1621785452882.836,1.267,-0.103,0.635,1.2626047025028593,-3.752808708141607,-8.984197542357103
1621785452888.514,1.283,-0.089,0.63,1.2412634651700933,-3.8316784982844374,-8.969042170917893
1621785452894.2,1.306,-0.086,0.63,1.2198919461659175,-3.910660198952044,-8.953865295103334
1621785452897.896,1.3170404101068165,-0.0801550770022736,0.6267528205568187,1.206,-3.962,-8.944
1621785452899.891,1.323,-0.077,0.625,1.188998688133572,-4.003366249254621,-8.937610971973763
1621785452905.588,1.333,-0.061,0.625,1.140453826277082,-4.121481773007354,-8.919367998409859
1621785452911.291,1.339,-0.047,0.627,1.0918548731199893,-4.2397289074405355,-8.901104697541907
1621785452916.32,1.346044801641587,-0.04083579856361149,0.6252387995896033,1.049,-4.344,-8.885
1621785452917.002,1.347,-0.04,0.625,1.0446847491647628,-4.36716220106435,-8.881385516394417
1621785452922.717,1.349,-0.045,0.627,1.0085172923792043,-4.561291798169742,-8.851091407291984
1621785452928.439,1.354,-0.028,0.621,0.9723065749336433,-4.755653597792069,-8.820761062764932
1621785452934.167,1.36,-0.005,0.62,0.9360572318987944,-4.950222721090232,-8.790398365180188
1621785452934.808,1.3605590564591672,-0.004440943540832837,0.619217320957166,0.932,-4.972,-8.787
1621785452939.901,1.365,0.0,0.613,0.9103145816062006,-5.152345821325649,-8.824606358480386
1621785452945.641,1.386,0.012,0.611,0.885872225073362,-5.3556195965417865,-8.866993736265183
1621785452951.387,1.393,0.017,0.613,0.8614059584435408,-5.559092219020172,-8.909422578395379
1621785452953.361,1.4002046332046332,0.026263099834528406,0.6099123000551572,0.853,-5.629,-8.924
1621785452957.141,1.414,0.044,0.604,0.7673160973050948,-5.748388944987213,-8.985724896728083
1621785452962.899,1.44,0.065,0.606,0.6368007474919677,-5.930244456101239,-9.079745433086355
1621785452968.664,1.454,0.077,0.597,0.5061193757786375,-6.112331296308438,-9.173885568159465
1621785452971.978,1.46720539717452,0.08905710176803994,0.58609119363844,0.431,-6.217,-9.228
1621785452974.436,1.477,0.098,0.578,0.36007542509116097,-6.275160783134892,-9.21773633238796
1621785452980.213,1.491,0.113,0.56,0.19338717603544492,-6.411851332453308,-9.193614470743533
1621785452985.996,1.51,0.127,0.552,0.026515768562205055,-6.548692078470325,-9.169466103799355
1621785452990.658,1.52207779886148,0.12619481340923466,0.5415325743200506,-0.108,-6.659,-9.15
1621785452991.786,1.525,0.126,0.539,-0.14399077680653438,-6.6772963146307465,-9.121050896916483
1621785452997.58,1.536,0.11,0.532,-0.3288758646743874,-6.771284720503368,-8.97233897841408
1621785453003.379,1.55,0.098,0.515,-0.5139089665594101,-6.865348370959968,-8.823508005158736
1621785453009.186,1.555,0.089,0.506,-0.6992069356330524,-6.9595466696194785,-8.674463986556024
1621785453009.399,1.5549267411576913,0.08830404099806771,0.5051575233134504,-0.706,-6.963,-8.669
1621785453014.998,1.553,0.07,0.483,-0.7119552589553498,-6.968657496007583,-8.412030576076654
1621785453020.816,1.538,0.066,0.463,-0.7181431817296581,-6.974536022643175,-8.14502170836525
1621785453026.641,1.503,0.066,0.454,-0.7243388945871905,-6.980421949857831,-7.87767669856273
1621785453028.203,1.4874648494745215,0.06841062680567768,0.4521250680400285,-0.726,-6.982,-7.806
1621785453032.472,1.445,0.075,0.447,-0.7769103260869565,-6.922265217391304,-7.672954347826087
1621785453038.308,1.374,0.08,0.438,-0.8465095108695652,-6.840602173913044,-7.491068478260869
1621785453044.151,1.288,0.075,0.422,-0.9161873059006211,-6.758846894409938,-7.308977173913044
1621785453047.07,1.2425835629017448,0.06651561065197428,0.4115192837465565,-0.951,-6.718,-7.218
1621785453050.0,1.197,0.058,0.401,-1.0693988470615545,-6.724036019654118,-7.137519737945087
1621785453055.854,1.093,0.026,0.375,-1.3059597632220372,-6.736095987928967,-6.976720160947112
1621785453061.715,0.993,-0.005,0.351,-1.5428067860873602,-6.748170542035826,-6.8157261061889844
1621785453066.001,0.91629595106321,-0.029106986808705423,0.3341981607090841,-1.716,-6.757,-6.698
1621785453067.582,0.888,-0.038,0.328,-1.7421387492769458,-6.798622212224435,-6.6579594318400925
1621785453073.454,0.787,-0.068,0.316,-1.8392186130214023,-6.9532079825181565,-6.509247920817534
1621785453079.334,0.71,-0.103,0.304,-1.9364276367375794,-7.107999421556655,-6.360338556462498
1621785453084.994,0.6484479568554242,-0.11454100808960797,0.293420742584526,-2.03,-7.257,-6.217
1621785453085.219,0.646,-0.115,0.293,-2.0324330916451023,-7.258157490200097,-6.212251927954703
1621785453091.109,0.604,-0.129,0.278,-2.0960972304066,-7.288444313494402,-6.088014142604596
1621785453097.008,0.579,-0.131,0.234,-2.1598616484332966,-7.318778842458559,-5.9635806666495865
1621785453102.91,0.571,-0.133,0.202,-2.2236550946683407,-7.3491271809587255,-5.839090543414209
1621785453104.052,0.5723529168732441,-0.13357982151710462,0.19774797554123286,-2.236,-7.355,-5.815
1621785453108.819,0.578,-0.136,0.18,-2.074696092951992,-7.325581358529112,-5.534027042900919
1621785453114.735,0.583,-0.122,0.162,-1.8745160112359551,-7.289072471910113,-5.185336235955056
1621785453120.656,0.579,-0.105,0.147,-1.6741707099080694,-7.252533452502554,-4.8363576353421855
1621785453123.173,0.5717804094410347,-0.09098550067965563,0.1453012728096552,-1.589,-7.237,-4.688
1621785453126.583,0.562,-0.072,0.143,-1.4686576559377904,-7.148120868491721,-4.531039453756379
1621785453132.518,0.52,-0.033,0.138,-1.2591980451300064,-6.993423962429842,-4.257844717651102
1621785453138.457,0.457,-0.002,0.154,-1.049600575261222,-6.838625240222468,-3.984470174232879
1621785453142.356,0.39863155517227217,0.02357718368855489,0.16383737834175188,-0.912,-6.737,-3.805
1621785453144.402,0.368,0.037,0.169,-0.887971659816309,-6.698405807581063,-3.8456142741157966
1621785453150.355,0.255,0.084,0.188,-0.8180655604607501,-6.586123001978992,-3.963774141168113
1621785453156.312,0.131,0.136,0.213,-0.7481107220784493,-6.473761912010961,-4.082016390115188
1621785453161.601,0.016596201080727027,0.16526608809562798,0.23428442770591124,-0.686,-6.374,-4.187
1621785453162.276,0.002,0.169,0.237,-0.6966241828825753,-6.394584354334989,-4.235333042521717
1621785453168.247,-0.108,0.188,0.253,-0.7906351325721656,-6.5767305693585705,-4.663021014300345
1621785453174.222,-0.194,0.185,0.274,-0.8847037388258797,-6.758988493975142,-5.090971285513788
1621785453180.204,-0.246,0.18,0.288,-0.9788876582078418,-6.941469837777694,-5.519446155596859
1621785453180.91,-0.25012478088948675,0.17941074558721617,0.29000346500346497,-0.99,-6.963,-5.57
1621785453186.193,-0.281,0.175,0.305,-1.0566045880772592,-7.245222830835844,-5.81920275962805
1621785453191.912,-0.279,0.169,0.321,-1.1287031313170832,-7.5507251326995055,-6.088961292173664
1621785453197.631,-0.265,0.154,0.333,-1.2008016745569075,-7.856227434563167,-6.3587198247192775
1621785453199.63,-0.25346655282817504,0.14840802561366062,0.337892977588047,-1.226,-7.963,-6.453
1621785453203.35,-0.232,0.138,0.347,-1.198426648703623,-8.012310007792792,-6.526059317668503
1621785453209.071,-0.201,0.112,0.365,-1.1560243425658094,-8.088138949426106,-6.638409953639497
1621785453214.791,-0.164,0.096,0.38,-1.113629274477949,-8.163954947101479,-6.750741411419741
1621785453218.114,-0.14192402578001623,0.07973349268001195,0.3892951470399932,-1.089,-8.208,-6.816
1621785453220.511,-0.126,0.068,0.396,-1.0240273690328374,-8.21059371780308,-6.782930098010725
1621785453226.231,-0.091,0.045,0.401,-0.8689811507674424,-8.216783187594114,-6.704014358175045
1621785453231.951,-0.061,0.038,0.417,-0.7139349325020474,-8.222972657385148,-6.625098618339365
1621785453236.597,-0.03663276281531436,0.0266286226471467,0.43811827222672756,-0.588,-8.228,-6.561
1621785453237.671,-0.031,0.024,0.443,-0.5635401307534834,-8.216031512910256,-6.541013788549164
1621785453243.393,-0.012,0.038,0.469,-0.43321723568645576,-8.152263065442778,-6.434526672389883
1621785453249.113,0.01,0.038,0.504,-0.3029443835435515,-8.08851910453675,-6.328080446410882
1621785453254.835,0.028,0.061,0.534,-0.17262704880142649,-8.024753377798323,-6.221597873604965
1621785453255.082,0.02860461741987795,0.061820552212691504,0.535641104425383,-0.167,-8.022,-6.217
1621785453260.556,0.042,0.08,0.572,-0.23065648975926684,-7.856493126625907,-6.156008200509725
1621785453266.277,0.054,0.089,0.597,-0.29718903429424115,-7.683508510834973,-6.092260739234355
1621785453271.999,0.075,0.11,0.621,-0.3637300962668533,-7.510501749706181,-6.028505117065247
1621785453273.57,0.07939380361029318,0.11439380361029318,0.6267668672385098,-0.382,-7.463,-6.011
1621785453277.72,0.091,0.126,0.642,-0.47673514884175494,-7.344019836762725,-5.947244591774743
1621785453283.441,0.094,0.138,0.658,-0.607334557172667,-7.179996883171769,-5.859353046831665
1621785453289.164,0.101,0.154,0.679,-0.7379841253070605,-7.015910932671227,-5.771427745054017
1621785453292.056,0.101,0.165120641829898,0.6805164511586225,-0.804,-6.933,-5.727
1621785453294.885,0.101,0.176,0.682,-0.8573349972491714,-6.893348617205426,-5.702587187848048
1621785453300.607,0.098,0.192,0.689,-0.9652062718892155,-6.813152771627551,-5.653211706453042
1621785453306.162,0.096,0.213,0.689,-1.069933966694846,-6.735293989774969,-5.605275123116353
1621785453310.25,0.09379025162766144,0.2284682386063699,0.6882634172092205,-1.147,-6.678,-5.57
1621785453311.712,0.093,0.234,0.688,-1.170254210497629,-6.658009538344143,-5.565185970458386
1621785453317.26,0.099,0.246,0.684,-1.2585060364092222,-6.582143933613125,-5.546916294217039
1621785453322.805,0.103,0.257,0.675,-1.3467073772278846,-6.506321728347959,-5.528657069275631
1621785453328.167,0.11267703560098696,0.27345096052167783,0.6682260750793092,-1.432,-6.433,-5.511
1621785453328.346,0.113,0.274,0.668,-1.433961150470262,-6.431429078449841,-5.509429078449841
1621785453333.885,0.124,0.279,0.661,-1.4946631721200703,-6.382805520291576,-5.460805520291577
1621785453339.42,0.134,0.291,0.651,-1.555319710061837,-6.334218395511692,-5.412218395511692
1621785453344.953,0.134,0.3,0.646,-1.6159548439057017,-6.285648415851044,-5.363648415851045
1621785453346.052,0.13479530097601908,0.3027835534160668,0.6436140970719427,-1.628,-6.276,-5.354
1621785453350.481,0.138,0.314,0.634,-1.6791069992615082,-6.2298548453269875,-5.341843480758185
1621785453356.009,0.134,0.337,0.609,-1.742897076119362,-6.172257979814557,-5.326670112961899
1621785453361.531,0.136,0.335,0.597,-1.806616722737343,-6.1147247066546315,-5.311513497989661
1621785453363.904,0.13685979655019903,0.34402786377708977,0.5862525431225122,-1.834,-6.09,-5.305
1621785453367.051,0.138,0.356,0.572,-1.8703750188358745,-6.06580884669653,-5.301645022534555
1621785453372.569,0.14,0.372,0.545,-1.9341568788613543,-6.023390813572789,-5.295762229619584
1621785453378.083,0.143,0.374,0.517,-1.9978907656269265,-5.9810046849956855,-5.289883861422759
1621785453381.726,0.14101648278612255,0.3746611724046258,0.4938589658380965,-2.04,-5.953,-5.286
1621785453383.593,0.14,0.375,0.482,-2.0307643660019488,-5.944708919479022,-5.255144586415602
1621785453389.102,0.131,0.375,0.447,-2.003511576520319,-5.920243347103468,-5.164095494283792
1621785453394.606,0.115,0.384,0.426,-1.9762841497056118,-5.89580054348572,-5.073131136516476
1621785453399.515,0.08377240859069933,0.3857844337948172,0.4072634451544196,-1.952,-5.874,-4.992
1621785453400.108,0.08,0.386,0.405,-1.9440872926041466,-5.878593393700135,-4.983752008392458
1621785453405.607,0.045,0.403,0.391,-1.8707131380614526,-5.921187712227038,-4.907268779504735
1621785453411.103,-0.005,0.422,0.38,-1.7973780747039174,-5.963759337989675,-4.830826298208321
1621785453416.531,-0.058,0.438,0.368,-1.7249518814013196,-6.005803356983132,-4.75533119840985
1621785453417.202,-0.06480044994375703,0.4391128008998875,0.3661453318335208,-1.716,-6.011,-4.746
1621785453421.957,-0.113,0.447,0.353,-1.716,-6.037880182340313,-4.8711693339281235
1621785453427.376,-0.166,0.464,0.339,-1.716,-6.068512853040399,-5.013812376279031
1621785453432.792,-0.208,0.466,0.325,-1.716,-6.099128962556111,-5.1563783003875425
1621785453434.715,-0.2179475013530579,0.466,0.32002624932347107,-1.716,-6.11,-5.207
1621785453438.205,-0.236,0.466,0.311,-1.7317818941543106,-6.135370893134145,-5.320669592073452
1621785453443.613,-0.26,0.449,0.297,-1.7562369299998601,-6.1746846849364845,-5.496807761644563
1621785453449.018,-0.278,0.436,0.281,-1.7806787176656371,-6.2139771790321,-5.672850510781615
1621785453452.185,-0.28797214434295015,0.42485466220493806,0.2686814687528263,-1.795,-6.237,-5.776
1621785453454.417,-0.295,0.417,0.26,-1.809988145283336,-6.252116249089177,-5.808666470489322
1621785453459.812,-0.309,0.38,0.243,-1.8462174205481754,-6.288655176279357,-5.8876277114511515
1621785453465.205,-0.328,0.377,0.225,-1.8824335799562804,-6.325180875511463,-5.966560366571381
1621785453469.608,-0.34352893723090866,0.3483940629956946,0.2135576251982778,-1.912,-6.355,-6.031
1621785453470.592,-0.347,0.342,0.211,-1.9131323510822085,-6.358340435692516,-6.036548520302821
1621785453475.974,-0.363,0.321,0.192,-1.9193250277399327,-6.376608831832802,-6.0668926359256705
1621785453481.354,-0.386,0.3,0.178,-1.9255151762012443,-6.394869769793671,-6.097224363386097
1621785453486.729,-0.414,0.274,0.162,-1.9316997064483052,-6.413114134022501,-6.127528561596696
1621785453486.99,-0.41482619567194035,0.27307660483724316,0.16131960356428443,-1.932,-6.414,-6.129
1621785453492.099,-0.431,0.255,0.148,-1.8627384795222803,-6.419599867613092,-6.1493363613317555
1621785453497.467,-0.452,0.244,0.138,-1.789968705988395,-6.425483381217959,-6.170702805475748
1621785453502.829,-0.463,0.23,0.133,-1.7172783645991776,-6.431360472649428,-6.192045926990029
1621785453504.325,-0.46718777909414017,0.2252538503599745,0.13132488836234393,-1.697,-6.433,-6.198
1621785453508.187,-0.478,0.213,0.127,-1.6509645132580841,-6.470320030514078,-6.241800754375804
1621785453513.542,-0.492,0.194,0.12,-1.5871335273425913,-6.522066509387317,-6.302533148742001
1621785453518.891,-0.501,0.183,0.12,-1.5233723847599137,-6.5737563676946325,-6.363199090228432
1621785453521.607,-0.49997977713578207,0.17432810565414775,0.12204044572843582,-1.491,-6.6,-6.394
1621785453524.215,-0.499,0.166,0.124,-1.496921756186307,-6.617917108461134,-6.446081086459059
1621785453529.536,-0.496,0.155,0.126,-1.5090025157411489,-6.654469150191168,-6.552329817928564
1621785453534.851,-0.483,0.131,0.122,-1.521070526031525,-6.690982617223588,-6.6584664212516165
1621785453538.784,-0.4755932226769047,0.12063051174766656,0.12051864453538093,-1.53,-6.718,-6.737
1621785453540.161,-0.473,0.117,0.12,-1.5331345389252278,-6.727403616775683,-6.751225984352956
1621785453545.468,-0.449,0.115,0.113,-1.5452158522508657,-6.7636475567525975,-6.806056560215468
1621785453550.77,-0.417,0.105,0.112,-1.5572854944209311,-6.7998564832627935,-6.860834166987303
1621785453555.916,-0.3917359395168726,0.09431135902636917,0.10325474829430203,-1.569,-6.835,-6.914
1621785453556.066,-0.391,0.094,0.103,-1.5691754887389961,-6.833973390876872,-6.914
1621785453561.36,-0.361,0.084,0.101,-1.5753733279981708,-6.797716031210701,-6.914
1621785453566.648,-0.332,0.077,0.093,-1.5815637361381045,-6.761502143592089,-6.914
1621785453571.933,-0.302,0.082,0.096,-1.5877510003429747,-6.725306647993598,-6.914
1621785453573.0,-0.29815921916921084,0.07997853640484781,0.09458497548339347,-1.589,-6.718,-6.914
1621785453577.211,-0.283,0.072,0.089,-1.6349669876203576,-6.703419073819349,-6.870257221458046
1621785453582.486,-0.265,0.072,0.077,-1.6925509800550205,-6.685153183745988,-6.815459551237964
1621785453587.757,-0.253,0.063,0.061,-1.750089666437414,-6.666901664947272,-6.760704994841816
1621785453590.039,-0.24173281097871946,0.06603347396726784,0.06013329315220919,-1.775,-6.659,-6.737
1621785453593.023,-0.227,0.07,0.059,-1.7613027342346872,-6.655487880572997,-6.673255032399891
1621785453598.284,-0.206,0.068,0.049,-1.7371526458713487,-6.649295550223423,-6.560864236555123
1621785453603.541,-0.188,0.087,0.045,-1.7130204888001264,-6.6431078176410585,-6.448556890185204
1621785453607.031,-0.18401292301970992,0.10095476943101525,0.04632902566009669,-1.697,-6.639,-6.374
1621785453608.793,-0.182,0.108,0.047,-1.6816099448150656,-6.611443482270219,-6.378159474374306
1621785453614.041,-0.18,0.113,0.052,-1.6357703125225134,-6.5293657622869326,-6.390548564183105
1621785453619.285,-0.168,0.129,0.045,-1.5899669322651757,-6.447352953042375,-6.402927856144546
1621785453623.975,-0.15636185283564005,0.14959056806002144,0.04410475791043385,-1.549,-6.374,-6.414
1621785453624.524,-0.155,0.152,0.044,-1.5531573092148987,-6.3670170196781,-6.417800040454243
1621785453629.758,-0.154,0.157,0.033,-1.592805241714104,-6.30042088305834,-6.454040728754298
1621785453634.989,-0.166,0.162,0.019,-1.6324291328343976,-6.233865128442223,-6.490259441731442
1621785453640.214,-0.178,0.148,0.007,-1.6720086398705465,-6.167383925217441,-6.526437584881671
1621785453640.873,-0.17850483984101004,0.14850483984101004,0.006495160158989946,-1.677,-6.159,-6.531
1621785453645.435,-0.182,0.152,0.003,-1.6981165715279187,-6.159,-6.64524606647156
1621785453650.652,-0.187,0.154,0.0,-1.7222651328561907,-6.159,-6.775895975196314
1621785453655.863,-0.182,0.15,-0.003,-1.7463854423227376,-6.159,-6.9063930341050686
1621785453657.724,-0.17699709356834803,0.147498546784174,-0.006216154134633415,-1.755,-6.159,-6.953
1621785453661.071,-0.168,0.143,-0.012,-1.7512158993506022,-6.170551465140266,-7.0701079569392595
1621785453666.274,-0.162,0.127,-0.033,-1.7453334156581872,-6.188508520622376,-7.25215534699926
1621785453671.473,-0.138,0.113,-0.04,-1.7394553484520505,-6.206452094199003,-7.434066058431276
1621785453674.529,-0.1274069860373278,0.10476098914014387,-0.04117700155140802,-1.736,-6.217,-7.541
1621785453676.666,-0.12,0.099,-0.042,-1.738423028731278,-6.229497727140276,-7.568546010839793
1621785453681.857,-0.099,0.089,-0.047,-1.7443088320997726,-6.259856081356722,-7.635458301765837
1621785453687.041,-0.087,0.066,-0.049,-1.7501868844338246,-6.290174456553412,-7.702282475668746
1621785453691.286,-0.0812657714958775,0.04224391048292109,-0.050638351001177855,-1.755,-6.315,-7.757
1621785453692.223,-0.08,0.037,-0.051,-1.7819716999050332,-6.301261816056688,-7.770738183943312
1621785453697.398,-0.075,0.005,-0.054,-1.930934472934473,-6.225386806925269,-7.846613193074732
1621785453702.57,-0.061,-0.037,-0.066,-2.0798129154795824,-6.1495547519906495,-7.922445248009351
1621785453707.738,-0.04,-0.065,-0.094,-2.2285718898385567,-6.0737835488348315,-7.998216451165169
1621785453707.996,-0.03870018445821312,-0.06689973040722698,-0.0949498652036135,-2.236,-6.07,-8.002
1621785453712.9,-0.014,-0.103,-0.113,-2.236,-6.000836373760019,-7.996408047240172
1621785453718.058,0.002,-0.14,-0.129,-2.236,-5.928084750978065,-7.990526001142907
1621785453723.212,0.016,-0.164,-0.138,-2.236,-5.855395108942518,-7.984648966254927
1621785453724.658,0.017404153430373145,-0.16933578303541796,-0.14193162960504482,-2.236,-5.835,-7.983
1621785453728.361,0.021,-0.183,-0.152,-2.159561641420449,-5.830542952852505,-7.8584255322274945
1621785453733.507,0.017,-0.206,-0.168,-2.0533401407519505,-5.824349279344137,-7.68531235766863
1621785453738.646,0.009,-0.232,-0.182,-1.9472647840970865,-5.8181641273526,-7.512437359505165
1621785453741.275,0.002857679326900223,-0.2381423206730998,-0.18711860056091648,-1.893,-5.815,-7.424
1621785453743.782,-0.003,-0.244,-0.192,-1.7941513161692548,-5.806404462275587,-7.364424031634244
1621785453749.039,-0.021,-0.236,-0.206,-1.5868761473185937,-5.788380534549443,-7.239499567049587
1621785453754.292,-0.03,-0.237,-0.22,-1.3797646192922703,-5.770370836460197,-7.114673728568955
1621785453758.192,-0.035199869791666664,-0.22437174479166666,-0.226685546875,-1.226,-5.757,-7.022
1621785453759.542,-0.037,-0.22,-0.229,-1.1751673750486262,-5.758513824254037,-7.007100782341839
1621785453764.791,-0.037,-0.199,-0.237,-0.9775360122177879,-5.76439939775527,-6.949174348408662
1621785453770.035,-0.044,-0.18,-0.246,-0.7800976846715749,-5.770279222556803,-6.891304493783048
1621785453775.137,-0.05860241300600922,-0.15274216238878277,-0.2528144594028043,-0.588,-5.776,-6.835
1621785453775.276,-0.059,-0.152,-0.253,-0.5834094359773698,-5.777289299734441,-6.8353202719085555
1621785453780.516,-0.061,-0.126,-0.253,-0.41024271158064884,-5.825924676711696,-6.847401671285071
1621785453785.751,-0.059,-0.112,-0.257,-0.2372534782357696,-5.874510203787091,-6.859470687564946
1621785453790.983,-0.061,-0.08,-0.25,-0.06436105819189475,-5.923068540006928,-6.871532949428472
1621785453792.053,-0.05895397255158248,-0.07693095882737373,-0.249181589020633,-0.029,-5.933,-6.874
1621785453796.213,-0.051,-0.065,-0.246,0.03381636282149518,-5.998279749598809,-6.864392791568477
1621785453801.439,-0.047,-0.04,-0.244,0.11273220662435485,-6.08029033237433,-6.852323309575098
1621785453806.663,-0.042,-0.031,-0.232,0.19161855744625483,-6.162270265581403,-6.840258338272926
1621785453808.94,-0.03589459901800327,-0.024894599018003276,-0.22894729950900164,0.226,-6.198,-6.835
1621785453811.884,-0.028,-0.017,-0.225,0.2361303844036963,-6.204811810202486,-6.831681425798789
1621785453817.101,-0.014,-0.009,-0.218,0.25408180527794677,-6.2168825932041365,-6.82580078792619
1621785453822.316,-0.009,0.0,-0.204,0.27202566553691954,-6.228948292343791,-6.819922626806871
1621785453825.796,0.001684656828297026,0.014023612087139847,-0.19732208948231436,0.284,-6.237,-6.816
1621785453827.527,0.007,0.021,-0.194,0.27998616815918953,-6.228972336318379,-6.81394162469702
1621785453832.735,0.016,0.026,-0.182,0.26791127592563024,-6.204822551851261,-6.807749372269554
1621785453837.941,0.026,0.045,-0.175,0.25584147810563285,-6.180682956211266,-6.801559732361863
1621785453842.617,0.03588565127627627,0.06566999812312313,-0.162418262012012,0.245,-6.159,-6.796
1621785453843.144,0.037,0.068,-0.161,0.245,-6.156833842261385,-6.798448700052347
1621785453848.343,0.045,0.087,-0.148,0.245,-6.135468242889548,-6.822601116733554
1621785453853.54,0.058,0.106,-0.131,0.245,-6.114110670040133,-6.846744459954633
1621785453858.733,0.065,0.122,-0.122,0.245,-6.092770153550863,-6.870868522072937
1621785453859.407,0.065,0.12433729953440248,-0.1201821003621314,0.245,-6.09,-6.874
1621785453863.924,0.065,0.14,-0.108,0.2503909471015865,-6.031777771302865,-6.874
1621785453869.111,0.07,0.145,-0.101,0.25658141635465687,-5.964920703369706,-6.874
1621785453874.295,0.072,0.157,-0.094,0.2627680977841232,-5.898104543931469,-6.874
1621785453876.165,0.07127824366343163,0.1551956091585791,-0.09111297465372656,0.265,-5.874,-6.874
1621785453879.477,0.07,0.152,-0.086,0.3329151414309484,-5.870237936772046,-6.874
1621785453884.655,0.073,0.155,-0.077,0.43909325101439123,-5.8643563505269,-6.874
1621785453889.83,0.07,0.145,-0.063,0.5452112852847593,-5.858478092068775,-6.874
1621785453892.892,0.06881612233339626,0.15091938833301868,-0.05471285633377383,0.608,-5.855,-6.874
1621785453895.003,0.068,0.155,-0.049,0.6105290315032029,-5.867392254365695,-6.890185801620499
1621785453900.172,0.065,0.15,-0.035,0.6167223213502209,-5.897739374616083,-6.9298228566414135
1621785453905.338,0.054,0.141,-0.019,0.6229115160733613,-5.92806642875947,-6.9694337028695115
1621785453909.585,0.040018721633888046,0.13853271558245084,-0.01488785930408472,0.628,-5.953,-7.002
1621785453910.502,0.037,0.138,-0.014,0.6236265070895852,-5.957318132240663,-7.020435103027444
1621785453915.61,0.03,0.133,-0.009,0.5992637296229697,-5.981372520119093,-7.123128835893052
1621785453920.745,0.019,0.129,-0.012,0.574772867965687,-6.005553370869322,-7.226362467942104
1621785453925.875,0.019,0.115,-0.002,0.5503064587448044,-6.029710078707661,-7.329493028328862
1621785453926.149,0.019,0.11451914285714286,-0.0018931428571428571,0.549,-6.031,-7.335
1621785453931.002,0.019,0.106,0.0,0.5434295511865607,-6.085531762068406,-7.412693101871653
1621785453936.127,0.035,0.094,-0.002,0.5375469240866654,-6.143119585256854,-7.494740269317561
1621785453941.247,0.058,0.094,-0.007,0.5316699016238698,-6.200652541997905,-7.576709266824973
1621785453942.702,0.0634020229972804,0.09115683000143136,-0.007568633999713727,0.53,-6.217,-7.6
1621785453946.364,0.077,0.084,-0.009,0.53,-6.234512487807762,-7.604433541217155
1621785453951.479,0.099,0.086,-0.014,0.53,-6.2589727632784555,-7.610626016019862
1621785453956.589,0.126,0.063,-0.017,0.53,-6.283409688765406,-7.6168125794342805
1621785453959.222,0.13115536858208243,0.06403107371641649,-0.02267090544029066,0.53,-6.296,-7.62
1621785453961.696,0.136,0.065,-0.028,0.5181421017551655,-6.316563696956232,-7.584576405243279
1621785453966.8,0.133,0.066,-0.037,0.4936797748648449,-6.3589857068799525,-7.51149907427979
1621785453971.9,0.127,0.066,-0.049,0.4692373398504036,-6.401373220765755,-7.4384811671480415
1621785453975.705,0.11580423331098554,0.07047830667560578,-0.05123915333780289,0.451,-6.433,-7.384
1621785453976.998,0.112,0.072,-0.052,0.43480836759227653,-6.441488816990457,-7.382506597010939
1621785453982.092,0.091,0.073,-0.068,0.3710171269980261,-6.474932768369967,-7.376622938897876
1621785453987.182,0.072,0.07,-0.093,0.3072778610546313,-6.508349470903397,-7.370744074563292
1621785453992.155,0.058316395566431554,0.07293220095005037,-0.10472880380020153,0.245,-6.541,-7.365
1621785453992.27,0.058,0.073,-0.105,0.2437669423454513,-6.54224006366395,-7.365686588921283
1621785453997.354,0.051,0.061,-0.126,0.18925060986493722,-6.597066148033558,-7.396042274052478
1621785454002.434,0.058,0.056,-0.141,0.13477616469328257,-6.651850107098233,-7.426374635568513
1621785454007.511,0.065,0.049,-0.161,0.08033575296007617,-6.70659983935265,-7.456688046647231
1621785454008.568,0.06895852379348506,0.047124909782033396,-0.16454183707838138,0.069,-6.718,-7.463
1621785454012.585,0.084,0.04,-0.178,0.049591213845211965,-6.7130863832519525,-7.421971300153802
1621785454017.638,0.101,0.026,-0.197,0.02517599187683854,-6.7069053143992,-7.370359375233317
1621785454022.698,0.124,0.023,-0.215,0.0007265600501724784,-6.700715584822829,-7.318675133270618
1621785454024.918,0.13629436476894105,0.015096479791395046,-0.2202690134724033,-0.01,-6.698,-7.296
1621785454027.754,0.152,0.005,-0.227,0.010504854368932037,-6.66567878887609,-7.205639624814876
1621785454032.807,0.164,-0.01,-0.241,0.0470397175639894,-6.60808993672117,-7.04463853276886
1621785454037.856,0.164,-0.021,-0.257,0.08354633715798764,-6.550545604140799,-6.883761904049546
1621785454041.238,0.15126253387533875,-0.025692750677506777,-0.2576703929539296,0.108,-6.512,-6.776
1621785454042.901,0.145,-0.028,-0.258,0.12199149810319233,-6.477889340390757,-6.7620085018968075
1621785454047.944,0.138,-0.024,-0.262,0.1644261444572731,-6.374435531031173,-6.719573855542727
1621785454052.982,0.115,-0.035,-0.272,0.20681559730698296,-6.271091901455969,-6.677184402693017
1621785454057.52,0.10057951900698216,-0.04581536074476338,-0.2710987199379364,0.245,-6.178,-6.639
1621785454058.017,0.099,-0.047,-0.271,0.2501095816301996,-6.174114270257273,-6.644996874248617
1621785454063.05,0.082,-0.047,-0.278,0.30184535044481847,-6.134770302356336,-6.705716698725656
1621785454068.077,0.068,-0.058,-0.283,0.3535183788170233,-6.095474047246935,-6.766362887713393
1621785454073.103,0.058,-0.066,-0.286,0.40518387833613845,-6.056183517672517,-6.827000240442414
1621785454073.766,0.05707556160653506,-0.0665282505105514,-0.2857358747447243,0.412,-6.051,-6.835
1621785454078.124,0.051,-0.07,-0.284,0.48566257003433944,-6.040246340140972,-6.885273359840954
1621785454083.141,0.049,-0.079,-0.29,0.5704673775528646,-6.027866076269655,-6.943151093439364
1621785454088.156,0.044,-0.089,-0.284,0.6552350442797759,-6.015491234411711,-7.001003479125249
1621785454089.976,0.043273568818514005,-0.09335858708891595,-0.282910353227771,0.686,-6.011,-7.022
1621785454093.167,0.042,-0.101,-0.281,0.7345301575801486,-6.014945541266679,-7.008387882629958
1621785454098.174,0.042,-0.105,-0.281,0.8106820322405361,-6.021136750588662,-6.987028210469118
1621785454103.179,0.038,-0.096,-0.271,0.8868004890418403,-6.027325243011531,-6.965677911610216
1621785454106.151,0.03918876953125,-0.098971923828125,-0.26981123046875,0.932,-6.031,-6.953
1621785454108.179,0.04,-0.101,-0.269,0.9589557178864121,-6.044540546659221,-6.940713207661077
1621785454113.177,0.037,-0.098,-0.258,1.02538613278597,-6.0779102434459755,-6.910433297613837
1621785454118.198,0.042,-0.091,-0.244,1.0921215720603106,-6.111433161779133,-6.8800143532004165
1621785454122.327,0.043650917610308475,-0.0819199531433034,-0.23409449433814916,1.147,-6.139,-6.855
1621785454123.2,0.044,-0.08,-0.232,1.154950512719683,-6.145382044223964,-6.847590338485738
1621785454128.2,0.049,-0.075,-0.216,1.200483650443147,-6.18193245409722,-6.805154693124414
1621785454133.195,0.047,-0.068,-0.201,1.245972322211803,-6.218447170210835,-6.762760488823013
1621785454138.187,0.058,-0.066,-0.183,1.291432091109834,-6.254938685380683,-6.720393221210563
1621785454138.469,0.058395567297813006,-0.06543490386026714,-0.18203933656245413,1.294,-6.257,-6.718
1621785454143.177,0.065,-0.056,-0.166,1.2884460209185993,-6.219583719872669,-6.718
1621785454148.162,0.061,-0.058,-0.148,1.282565150826133,-6.179965226618159,-6.718
1621785454153.145,0.063,-0.045,-0.133,1.2766868728209793,-6.140364195846597,-6.718
1621785454154.575,0.05955301618440412,-0.043563756743501714,-0.1289785188818048,1.275,-6.129,-6.718
1621785454158.123,0.051,-0.04,-0.119,1.2555729215719038,-6.129,-6.683340325986237
1621785454163.098,0.038,-0.037,-0.101,1.2283338396803938,-6.129,-6.634743327611612
1621785454168.071,0.026,-0.031,-0.082,1.2011041150825599,-6.129,-6.586163023499567
1621785454170.647,0.015111455108359133,-0.02737048503611971,-0.07370396579684506,1.187,-6.129,-6.561
1621785454173.039,0.005,-0.024,-0.066,1.1576137567748614,-6.13630926861945,-6.572635162292187
1621785454178.003,0.0,-0.026,-0.049,1.0966338529931186,-6.151476858900189,-6.596779489677852
1621785454182.966,-0.005,-0.03,-0.033,1.035662946836368,-6.166642211192984,-6.620920254552098
1621785454186.683,-0.011747340949379556,-0.02700118180027575,-0.021004727201103017,0.99,-6.178,-6.639
1621785454187.924,-0.014,-0.026,-0.017,0.9679711586882545,-6.184127741069112,-6.6587794173749835
1621785454192.878,-0.01,-0.031,-0.003,0.8800334803375501,-6.208589278356808,-6.7377375440631155
1621785454197.83,-0.005,-0.049,0.009,0.7921261387740153,-6.233042376890326,-6.816668431734599
1621785454202.682,-0.002058321409187349,-0.06272783342379237,0.011941678590812651,0.706,-6.257,-6.894
1621785454202.778,-0.002,-0.063,0.012,0.705530192313572,-6.2568795364906595,-6.895710581832636
1621785454207.723,0.003,-0.073,0.012,0.6813792154584645,-6.250686978322683,-6.983644907817898
1621785454212.664,0.009,-0.082,0.023,0.6572461246827896,-6.244499006328921,-7.07151411012933
1621785454217.602,0.017,-0.094,0.019,0.6331285351759562,-6.238315009019476,-7.159326871923441
1621785454218.652,0.01826948051948052,-0.09336525974025973,0.018576839826839827,0.628,-6.237,-7.178
1621785454222.565,0.023,-0.091,0.017,0.589657894736842,-6.2418843446195105,-7.211701977874623
1621785454227.524,0.026,-0.086,0.021,0.5410645933014354,-6.248074574101728,-7.254414561301923
1621785454232.481,0.024,-0.094,0.016,0.4924904306220096,-6.254262365525858,-7.297110322128424
1621785454234.674,0.020900581624605678,-0.09355722594637224,0.011129485410094637,0.471,-6.257,-7.316
1621785454237.434,0.017,-0.093,0.005,0.3608336642737131,-6.263734305788911,-7.295624408125859
1621785454242.384,0.009,-0.084,-0.007,0.16325538414541008,-6.275811974950359,-7.259081716816863
1621785454247.331,0.003,-0.099,-0.019,-0.03420595692683681,-6.287882495799603,-7.2225606537345355
1621785454250.658,-0.0023845697915637655,-0.09698078632816359,-0.031115282031018474,-0.167,-6.296,-7.198
1621785454252.274,-0.005,-0.096,-0.037,-0.16892448123890555,-6.326791699822489,-7.1651825304523475
1621785454257.214,0.002,-0.11,-0.047,-0.1748078288547469,-6.420925261675951,-7.064855971108527
1621785454262.152,0.012,-0.126,-0.051,-0.18068855971108527,-6.515016955377364,-6.9645740344004405
1621785454266.612,0.02917852016827518,-0.1386578569660975,-0.04738346943825786,-0.186,-6.6,-6.874
1621785454267.085,0.031,-0.14,-0.047,-0.18047488038277512,-6.596791866028708,-6.874
1621785454272.016,0.049,-0.161,-0.038,-0.12286188811188811,-6.563339160839161,-6.874
1621785454276.944,0.07,-0.19,-0.033,-0.06528597718071402,-6.529907986750092,-6.874
1621785454281.867,0.077,-0.202,-0.031,-0.007769966875230044,-6.496511593669489,-6.874
1621785454282.532,0.077,-0.2038915728386489,-0.03154044938247111,0.0,-6.492,-6.874
1621785454286.789,0.077,-0.216,-0.035,0.007770379704042904,-6.384286460654302,-6.9399142554205016
1621785454291.707,0.066,-0.241,-0.04,0.016747068856892606,-6.259850976535489,-7.016061342717089
1621785454296.621,0.045,-0.251,-0.058,0.025716627994529558,-6.13551432917928,-7.092147947815665
1621785454298.42,0.03987290620806203,-0.24990133704458473,-0.061662209851384264,0.029,-6.09,-7.12
1621785454301.533,0.031,-0.248,-0.068,0.09458307924481812,-6.05524489513074,-7.179692383504266
1621785454306.441,0.014,-0.25,-0.075,0.1979801964951184,-6.000450614432228,-7.273802334534479
1621785454311.345,0.0,-0.241,-0.082,0.3012950198651021,-5.945699944562506,-7.367837383350273
1621785454314.274,-0.011350047303689687,-0.2338315490713539,-0.082,0.363,-5.913,-7.424
1621785454316.248,-0.019,-0.229,-0.082,0.34835122438013355,-5.893633822061871,-7.433683088969064
1621785454321.175,-0.03,-0.223,-0.086,0.31179088047900516,-5.845299808090888,-7.457850095954556
1621785454326.099,-0.033,-0.22,-0.094,0.2752522760420665,-5.796994534428494,-7.482002732785753
1621785454330.176,-0.03714161706349206,-0.2142017361111111,-0.10393988095238095,0.245,-5.757,-7.502
1621785454331.021,-0.038,-0.213,-0.106,0.2230774245126376,-5.7376847211118625,-7.494178110202324
1621785454335.939,-0.03,-0.222,-0.12,0.09548182768587418,-5.625264328762069,-7.448652496771416
1621785454340.854,-0.026,-0.227,-0.129,-0.03203775905540868,-5.5129109064633175,-7.403154003443823
1621785454345.767,-0.024,-0.248,-0.136,-0.15950667240637106,-5.400602130865261,-7.357673590185106
1621785454346.056,-0.023588153379420104,-0.24911786939871686,-0.13711786939871687,-0.167,-5.394,-7.355
1621785454350.676,-0.017,-0.267,-0.155,-0.29554631711900436,-5.2395112288592465,-7.280670496903977
1621785454355.583,-0.019,-0.288,-0.169,-0.43207413511598536,-5.075430177751763,-7.201725840239056
1621785454360.486,-0.026,-0.305,-0.18,-0.5684932688456917,-4.911479744924678,-7.122844028218477
1621785454361.906,-0.03208550074738416,-0.31021614349775783,-0.1840570004982561,-0.608,-4.864,-7.1
1621785454365.386,-0.047,-0.323,-0.194,-0.6748799061598061,-4.851020018212406,-6.998580142303715
1621785454370.284,-0.066,-0.328,-0.206,-0.7690110046148385,-4.83275115370962,-6.855835285764998
1621785454375.178,-0.094,-0.318,-0.218,-0.8630670309147876,-4.814496859131669,-6.7132042721983
1621785454377.724,-0.10961695118298892,-0.3107120894479385,-0.22372621543376262,-0.912,-4.805,-6.639
1621785454380.069,-0.124,-0.304,-0.229,-0.9469089067260552,-4.879274269629905,-6.617163364728809
1621785454384.958,-0.157,-0.283,-0.239,-1.0196887981564826,-5.0341251024606,-6.571637219876584
1621785454389.843,-0.18,-0.264,-0.253,-1.0924105383627956,-5.188852209282544,-6.5261474504709325
1621785454393.51,-0.1995289293394009,-0.2489777466619993,-0.25675556333450017,-1.147,-5.305,-6.492
1621785454394.725,-0.206,-0.244,-0.258,-1.1379764302981468,-5.357984550300626,-6.52300406000124
1621785454399.604,-0.22,-0.227,-0.257,-1.1017443593875906,-5.5707318384677365,-6.6474937395400735
1621785454404.48,-0.232,-0.208,-0.25,-1.0655340451248994,-5.783351376061489,-6.7719086654682945
1621785454409.265,-0.2427988879983971,-0.19032909236625928,-0.23723767782007613,-1.03,-5.992,-6.894
1621785454409.354,-0.243,-0.19,-0.237,-1.0276193567332808,-5.995209919475743,-6.896267816571614
1621785454414.224,-0.244,-0.187,-0.225,-0.8975123104743358,-6.170638614550007,-7.020208652107386
1621785454419.123,-0.244,-0.19,-0.216,-0.7666356315976569,-6.347105037016429,-7.144882644781379
1621785454424.021,-0.251,-0.192,-0.199,-0.6357850419622572,-6.523536282283118,-7.269531784671026
1621785454425.061,-0.25185021454944617,-0.19114978545055383,-0.19347360542859995,-0.608,-6.561,-7.296
1621785454428.914,-0.255,-0.188,-0.173,-0.4046318814604224,-6.761685805225507,-7.291366913366605
1621785454433.806,-0.251,-0.176,-0.131,-0.14643349144790718,-7.016478700885338,-7.285484695848334
1621785454438.694,-0.239,-0.169,-0.087,0.11157160736082572,-7.2710808547457555,-7.279606881846696
1621785454440.862,-0.23145690301304153,-0.16367546095038227,-0.07013895967621046,0.226,-7.384,-7.277
1621785454443.58,-0.222,-0.157,-0.049,0.25805774530142117,-7.448287844072205,-7.292167105303898
1621785454448.463,-0.195,-0.141,-0.017,0.31564823358206645,-7.563778446914574,-7.319414218038827
1621785454453.343,-0.169,-0.129,0.007,0.3732070470941573,-7.67920552992538,-7.346646344861752
1621785454456.632,-0.13596056056056055,-0.11349169169169168,0.03397097097097097,0.412,-7.757,-7.365
1621785454458.221,-0.12,-0.106,0.047,0.41987319115936406,-7.765882574641333,-7.352079891430788
1621785454463.095,-0.082,-0.073,0.089,0.4440250639782861,-7.7931308414114,-7.312446048856146
1621785454467.966,-0.042,-0.047,0.12,0.4681624195424583,-7.820362729740209,-7.272836029468786
1621785454472.373,-0.002174296745725314,-0.017130722559293987,0.14896414782129067,0.49,-7.845,-7.237
1621785454472.835,0.002,-0.014,0.152,0.47588674084664634,-7.832033443152856,-7.2306784360042275
1621785454477.701,0.051,0.024,0.173,0.32721265618201034,-7.695439127867222,-7.164084835581526
1621785454482.564,0.093,0.049,0.187,0.17862808478896003,-7.558927052899857,-7.097531329645055
1621785454487.425,0.131,0.072,0.195,0.030103188910300283,-7.422469804811338,-7.031004553366072
1621785454488.083,0.1354704433497537,0.07552216748768473,0.1958128078817734,0.01,-7.404,-7.022
1621785454492.282,0.164,0.098,0.201,-0.13968691712466333,-7.235836522443133,-6.903642902738638
1621785454497.137,0.183,0.103,0.208,-0.3127594233134566,-7.041400862538729,-6.76679487458936
1621785454501.989,0.199,0.11,0.213,-0.4857274906973486,-6.847082532812281,-6.630029425960236
1621785454503.764,0.199,0.11329439605256533,0.21116977997079703,-0.549,-6.776,-6.58
1621785454506.838,0.199,0.119,0.208,-0.6664434652399744,-6.625758777744848,-6.516564817270047
1621785454511.685,0.195,0.127,0.211,-0.8516330894854238,-6.388852318634868,-6.416537645645833
1621785454516.528,0.188,0.129,0.201,-1.0366641449985183,-6.152148710829655,-6.316596122350298
1621785454519.416,0.18084103288279202,0.12482393584829533,0.19264787169659067,-1.147,-6.011,-6.257
1621785454521.369,0.176,0.122,0.187,-1.1997467029189324,-5.941129367460467,-6.228751765735358
1621785454526.207,0.148,0.124,0.171,-1.3304232139508718,-5.7680294393399585,-6.158768610538158
1621785454531.041,0.122,0.12,0.154,-1.460987624226514,-5.595078004875305,-6.088845490343147
1621785454535.04,0.09055728429985857,0.12165487977369165,0.1391060820367751,-1.569,-5.452,-6.031
1621785454535.874,0.084,0.122,0.136,-1.5700695555520765,-5.452,-6.016347088936549
1621785454540.703,0.044,0.108,0.119,-1.5762623949152277,-5.452,-5.93150518966138
1621785454545.53,0.0,0.12,0.103,-1.5824530425661818,-5.452,-5.846693316843308
1621785454550.353,-0.044,0.122,0.091,-1.588638367487515,-5.452,-5.761954365421043
1621785454550.635,-0.046631512328489694,0.12270173662093059,0.08936261455116197,-1.589,-5.452,-5.757
1621785454555.175,-0.089,0.134,0.063,-1.4373244972864447,-5.480876682247389,-5.925593154939298
1621785454559.992,-0.124,0.147,0.052,-1.2763996925683094,-5.511514289299495,-6.104467264799071
1621785454564.808,-0.161,0.159,0.049,-1.1154993569030962,-5.542147237820372,-6.283314176365405
1621785454566.2,-0.1740133407730547,0.16594044841229583,0.049867556051536976,-1.069,-5.551,-6.335
1621785454569.621,-0.206,0.183,0.052,-0.9005321693487554,-5.591960805883832,-6.63515902376163
1621785454574.431,-0.239,0.201,0.054,-0.6636817638923812,-5.649547963288911,-7.057155236359065
1621785454579.237,-0.253,0.215,0.059,-0.4270116922303244,-5.707091274830274,-7.47883014835303
1621785454581.735,-0.25767998170452816,0.2020000508207552,0.05848000203283021,-0.304,-5.737,-7.698
1621785454584.041,-0.262,0.19,0.058,-0.28645308268782665,-5.795291454121796,-7.773838371433969
1621785454588.843,-0.271,0.176,0.061,-0.2499120221676428,-5.916682095849865,-7.931770073682222
1621785454593.641,-0.284,0.157,0.073,-0.21340068644121166,-6.037973990805466,-8.089573304364254
1621785454597.242,-0.28550162899613113,0.13747882305029527,0.0865146609651802,-0.186,-6.129,-8.208
1621785454598.437,-0.286,0.131,0.091,-0.15727764282784945,-6.200960314205495,-8.224677497712861
1621785454603.23,-0.269,0.119,0.106,-0.04208309410391495,-6.489566011546105,-8.291564655036437
1621785454608.02,-0.215,0.106,0.129,0.07304104230417363,-6.777995299536263,-8.358410927789519
1621785454612.72,-0.1551228329594126,0.09422088517234346,0.1466686722414848,0.186,-7.061,-8.424
1621785454612.808,-0.154,0.094,0.147,0.18454506804065055,-7.059710530890929,-8.424222519005546
1621785454617.592,-0.086,0.079,0.162,0.10557168370975645,-6.98971843340551,-8.436300801314978
1621785454622.373,-0.019,0.079,0.182,0.026646662768092827,-6.919769199159172,-8.448371686870761
1621785454627.152,0.04,0.079,0.185,-0.052246115914083846,-6.849848540405557,-8.460437641257448
1621785454628.167,0.05083769553215418,0.0762374501584705,0.18287496166036193,-0.069,-6.835,-8.463
1621785454631.928,0.091,0.066,0.175,-0.3319289107029766,-6.545729417352755,-8.242998258391387
1621785454636.701,0.126,0.059,0.161,-0.6656037048765042,-6.178625237492083,-7.963800981633945
1621785454641.472,0.145,0.04,0.145,-0.999141956934769,-5.811671279290691,-7.68471795440152
1621785454643.587,0.14278167571443204,0.03778167571443204,0.13657036771484174,-1.147,-5.649,-7.561
1621785454646.239,0.14,0.035,0.126,-1.1893864797132252,-5.507022523237001,-7.370088538527424
1621785454651.004,0.12,0.012,0.112,-1.265540113567871,-5.251938806585668,-7.027087618564223
1621785454655.766,0.079,0.012,0.094,-1.3416508263807378,-4.996998857976715,-6.684280017764807
1621785454658.979,0.046592858608659964,0.016726041452903753,0.08117217319926123,-1.393,-4.825,-6.453
1621785454660.525,0.031,0.019,0.075,-1.3643201849880013,-4.811213562608267,-6.398659297872003
1621785454665.281,-0.019,0.044,0.056,-1.276084007437662,-4.768798277259507,-6.231474961460833
1621785454670.035,-0.082,0.056,0.042,-1.1878885939958361,-4.726402587289226,-6.0643678623079005
1621785454674.341,-0.1327568345323741,0.08591027749229188,0.02568530318602261,-1.108,-4.688,-5.913
1621785454674.786,-0.138,0.089,0.024,-1.096915545221449,-4.700216113774267,-5.924664792725072
1621785454679.533,-0.185,0.098,0.007,-0.9786245799557263,-4.830583905336752,-6.049149002245545
1621785454684.278,-0.234,0.113,0.0,-0.8603822840852988,-4.960898058638977,-6.173581994234842
1621785454689.021,-0.271,0.122,-0.012,-0.7421947412845791,-5.091151868898409,-6.297957366501569
1621785454689.671,-0.2742913296584411,0.12254855494307351,-0.013508526093452166,-0.726,-5.109,-6.315
1621785454693.76,-0.295,0.126,-0.023,-0.6471679723024395,-5.253302694768416,-6.595588573160809
1621785454698.496,-0.305,0.127,-0.026,-0.5558632672272126,-5.420436731177306,-6.9205714217336505
1621785454703.231,-0.302,0.119,-0.04,-0.46458209550552837,-5.5875276895831005,-7.245470507522696
1621785454704.973,-0.2950027356250645,0.11679033756580985,-0.0414731082894601,-0.431,-5.649,-7.365
1621785454707.961,-0.283,0.113,-0.044,-0.39852179681879946,-5.7832171529054435,-7.526217104947646
1621785454712.689,-0.255,0.098,-0.052,-0.3471309247861882,-5.995591479498041,-7.781313963711933
1621785454717.415,-0.213,0.08,-0.059,-0.2957612820717769,-6.207878075293742,-8.036305443209976
1621785454720.245,-0.18243322475570034,0.06981107491856678,-0.061397394136807816,-0.265,-6.335,-8.189
1621785454722.137,-0.162,0.063,-0.063,-0.2308710901840196,-6.375210061019555,-8.210842502282228
1621785454726.858,-0.105,0.049,-0.077,-0.14570516824420635,-6.475551001777735,-8.265348692323709
1621785454731.574,-0.042,0.037,-0.075,-0.060627332276301654,-6.5757881612453755,-8.319798507343167
1621785454735.489,0.01197090042976233,0.02371485527882773,-0.07915160772536634,0.01,-6.659,-8.365
1621785454736.289,0.023,0.021,-0.08,0.02440971241494415,-6.65279435742714,-8.334550279239954
1621785454741.0,0.082,0.012,-0.08,0.10925860187443828,-6.616253594813198,-8.15525280844781
1621785454745.708,0.138,0.017,-0.077,0.19405472461163176,-6.579735556554115,-7.976066841057902
1621785454750.414,0.168,0.03,-0.077,0.2788156695339581,-6.543232667864938,-7.796955209269482
1621785454750.702,0.16946893007319733,0.030061205419716554,-0.07687758916056689,0.284,-6.541,-7.786
1621785454755.117,0.192,0.031,-0.075,0.3212206464061746,-6.429919633381573,-7.563839266763145
1621785454759.816,0.19,0.051,-0.075,0.36083498954815885,-6.311695578067213,-7.327391156134427
1621785454764.514,0.183,0.065,-0.07,0.4004410998552822,-6.193496092619392,-7.090992185238784
1621785454765.885,0.1786186612576065,0.06938133874239351,-0.0688316430020284,0.412,-6.159,-7.022
1621785454769.208,0.168,0.08,-0.066,0.4464271398881925,-6.117994425738267,-6.897229028048526
1621785454773.901,0.147,0.087,-0.054,0.49504652736382526,-6.060084709445635,-6.721022458152761
1621785454778.589,0.117,0.101,-0.045,0.5436178569702437,-6.002232234054551,-6.544990059770264
1621785454781.039,0.09713181889230449,0.10831985619757203,-0.036111603188662536,0.569,-5.972,-6.453
1621785454783.275,0.079,0.115,-0.028,0.5718084769836658,-5.969191523016335,-6.4240283426948155
1621785454787.958,0.042,0.124,-0.012,0.5776910065207567,-5.963308993479243,-6.363345406417458
1621785454792.638,-0.002,0.131,0.0,0.5835695493576086,-5.957430450642391,-6.302703596100458
1621785454796.165,-0.03366713637075309,0.13326193831219665,0.015833568185376547,0.588,-5.953,-6.257
1621785454797.316,-0.044,0.134,0.021,0.5738179700768298,-5.967182029923171,-6.281627933683785
1621785454801.991,-0.089,0.147,0.042,0.5162083623129802,-6.02479163768702,-6.381670424585524
1621785454806.662,-0.127,0.148,0.058,0.4586468904164982,-6.082353109583502,-6.481629324706834
1621785454811.259,-0.14767606149341142,0.1499691487136582,0.0767069127797532,0.402,-6.139,-6.58
1621785454811.331,-0.148,0.15,0.077,0.4003126195028681,-6.140032504780115,-6.582581261950287
1621785454815.998,-0.141,0.164,0.089,0.29097036328871895,-6.206938814531549,-6.749847036328872
1621785454820.661,-0.12,0.161,0.094,0.1817253459506757,-6.273785624007519,-6.916964060018796
1621785454825.323,-0.11,0.161,0.093,0.0724974884142982,-6.3406219334348775,-7.084054833587192
1621785454826.326,-0.10655423328964614,0.16164608125819135,0.09364608125819135,0.049,-6.355,-7.12
1621785454829.98,-0.094,0.164,0.096,0.02032199922057677,-6.355,-7.129478322291504
1621785454834.636,-0.082,0.162,0.098,-0.016219602494154342,-6.355,-7.141555631332814
1621785454839.288,-0.068,0.159,0.093,-0.05273054689529749,-6.355,-7.153622807872175
1621785454841.361,-0.06264909148198719,0.1527572733956517,0.093,-0.069,-6.355,-7.159
1621785454843.937,-0.056,0.145,0.093,-0.09251455947423218,-6.3347465838105155,-7.152306074310255
1621785454848.584,-0.044,0.145,0.084,-0.13493481585111922,-6.298209428682978,-7.140230234903696
1621785454853.227,-0.037,0.14,0.079,-0.17731941371681414,-6.2617029867256635,-7.128164546460177
1621785454856.369,-0.03226103424693566,0.13119906360145195,0.07155305381661319,-0.206,-6.237,-7.12
1621785454857.868,-0.03,0.127,0.068,-0.19809356153219232,-6.22619119804401,-7.1159967400163
1621785454862.507,-0.021,0.129,0.056,-0.17362480847595763,-6.192740244498777,-7.103607497962511
1621785454867.142,-0.016,0.119,0.049,-0.14917794621026895,-6.159319217603912,-7.0912293398533
1621785454871.347,-0.01236951939291737,0.11264665893760539,0.04083141863406408,-0.127,-6.129,-7.08
1621785454871.775,-0.012,0.112,0.04,-0.12253419557123262,-6.129286269514664,-7.077767097785617
1621785454876.404,-0.012,0.103,0.033,-0.07423064863805605,-6.13238265072833,-7.053615324319028
1621785454881.031,-0.012,0.099,0.031,-0.025950029394473842,-6.135477562218303,-7.029475014697237
1621785454885.656,-0.023,0.094,0.03,0.022310209680580034,-6.138571167287217,-7.00534489515971
1621785454886.297,-0.023138772921841147,0.09386122707815886,0.03,0.029,-6.139,-7.002
1621785454890.276,-0.024,0.093,0.03,0.06046756774446918,-6.154733783872235,-6.996666513941615
1621785454894.895,-0.033,0.087,0.03,0.0969998363660165,-6.172999918183009,-6.99047460400576
1621785454899.511,-0.038,0.073,0.028,0.13350700353449405,-6.191253501767247,-6.984286948553476
1621785454901.217,-0.04132920438303954,0.07189026520565349,0.028,0.147,-6.198,-6.982
1621785454904.123,-0.047,0.07,0.028,0.17002660786596063,-6.184535288620752,-7.008929422758497
1621785454908.734,-0.051,0.063,0.028,0.20656197845795696,-6.163171385477974,-7.051657229044052
1621785454913.341,-0.052,0.052,0.033,0.24306833122940474,-6.1418244503828054,-7.094351099234388
1621785454916.109,-0.0532020994592302,0.0513989502703849,0.031196850811154704,0.265,-6.129,-7.12
1621785454917.946,-0.054,0.051,0.03,0.27229466178137784,-6.132709150058328,-7.117527233294449
1621785454922.547,-0.061,0.044,0.035,0.29056379080886585,-6.141998537699423,-7.111334308200385
1621785454927.146,-0.07,0.04,0.038,0.30882419532392424,-6.151283489147758,-7.105144340568161
1621785454930.968,-0.07166356729185484,0.04332713458370968,0.03966356729185484,0.324,-6.159,-7.1
1621785454931.741,-0.072,0.044,0.04,0.3249903523213698,-6.164108133026012,-7.105108133026012
1621785454936.335,-0.07,0.044,0.045,0.3308764734935792,-6.194468126440566,-7.135468126440566
1621785454940.925,-0.066,0.044,0.056,0.336757589726704,-6.224802304906157,-7.165802304906157
1621785454945.513,-0.061,0.049,0.056,0.3426358906815937,-6.255121962462956,-7.196121962462957
1621785454945.797,-0.06013208351086493,0.049557946314443976,0.056309970174691096,0.343,-6.257,-7.198
1621785454950.097,-0.047,0.058,0.061,0.33167003167062553,-6.2683299683293745,-7.243610385325944
1621785454954.679,-0.03,0.061,0.066,0.31959639746635,-6.28040360253365,-7.2922145025072584
1621785454959.259,-0.009,0.059,0.068,0.30752790973871735,-6.292472090261283,-7.340797901821062
1621785454960.598,-0.00022044933027376076,0.06221916857889962,0.068,0.304,-6.296,-7.355
1621785454963.834,0.021,0.07,0.068,0.31692593633268323,-6.259413027668507,-7.33791147400086
1621785454968.409,0.033,0.07,0.068,0.33519972893458067,-6.207688902846186,-7.313752900730555
1621785454972.979,0.038,0.075,0.068,0.3534540180489901,-6.156019982810485,-7.2896201117318435
1621785454975.369,0.043754850088183424,0.0760463363796697,0.07427801827801828,0.363,-6.129,-7.277
1621785454977.547,0.049,0.077,0.08,0.3658071471153209,-6.1174759223686825,-7.25084920845201
1621785454982.112,0.049,0.075,0.075,0.37169013711333376,-6.093324700271577,-7.1960445121547325
1621785454986.674,0.049,0.08,0.082,0.3775693515267934,-6.069188977942638,-7.141274988408293
1621785454990.112,0.04598409808855812,0.08150795095572094,0.08727782834502329,0.382,-6.051,-7.1
1621785454991.234,0.045,0.082,0.089,0.3760526682596575,-6.049475043143502,-7.098475043143502
1621785454995.79,0.038,0.087,0.089,0.3518983472720032,-6.043281627505642,-7.092281627505642
1621785455000.344,0.033,0.087,0.096,0.3277556750298686,-6.037091198725607,-7.086091198725607
1621785455004.825,0.03004618850920015,0.087,0.10092301915133309,0.304,-6.031,-7.08
1621785455004.895,0.03,0.087,0.101,0.30353227791266174,-6.030718412212725,-7.08056317557455
1621785455009.443,0.024,0.087,0.105,0.2731727142714604,-6.012440715734859,-7.117118568530283
1621785455013.989,0.021,0.087,0.106,0.24282781787341604,-5.994171849536037,-7.153656300927928
1621785455018.531,0.016,0.089,0.106,0.21250899657431735,-5.975918681611069,-7.190162636777863
1621785455019.506,0.016,0.08792611314261131,0.10642955474295547,0.206,-5.972,-7.198
1621785455023.071,0.016,0.084,0.108,0.15831761687381293,-5.991218919729433,-7.202865549298591
1621785455027.608,0.017,0.075,0.105,0.09763540035320382,-6.015677568224985,-7.2090576122088565
1621785455032.142,0.016,0.059,0.105,0.03698910399520175,-6.040121738695812,-7.215246009796408
1621785455034.16,0.01822620266120778,0.05855475946775844,0.10232855680655066,0.01,-6.051,-7.218
1621785455036.674,0.021,0.058,0.099,0.008280456852791879,-6.054267131979696,-7.221267131979696
1621785455041.202,0.024,0.052,0.094,0.005183676195565055,-6.060151015228427,-7.227151015228427
1621785455045.727,0.03,0.051,0.093,0.002088732300293883,-6.066031408629442,-7.233031408629442
1621785455048.781,0.03,0.044923081075245605,0.0902991471445536,0.0,-6.07,-7.237
1621785455050.25,0.03,0.042,0.089,0.0,-6.064062005519779,-7.237
1621785455054.77,0.024,0.033,0.086,0.0,-6.045791101446851,-7.237
1621785455059.288,0.031,0.031,0.086,0.0,-6.0275280923308525,-7.237
1621785455063.377,0.024659148683000703,0.028282492292714588,0.086,0.0,-6.011,-7.237
1621785455063.802,0.024,0.028,0.086,-0.0020134589276435983,-6.009307527278213,-7.235861957997419
1621785455068.313,0.024,0.026,0.082,-0.023382029063238524,-5.991345540787423,-7.223784070529474
1621785455072.823,0.021,0.017,0.077,-0.044745973216231166,-5.973387442803748,-7.211708797747348
1621785455077.328,0.019,0.014,0.072,-0.06608563096056183,-5.955449759482427,-7.19964725206577
1621785455077.943,0.019683111954459202,0.013726755218216318,0.07295635673624289,-0.069,-5.953,-7.198
1621785455081.831,0.024,0.012,0.079,-0.069,-5.963429996473375,-7.219127428753758
1621785455086.332,0.023,0.012,0.073,-0.069,-5.975504559423649,-7.243586158832519
1621785455090.829,0.026,0.0,0.077,-0.069,-5.987568643256587,-7.268023661981292
1621785455092.481,0.029307479224376733,-0.0007349953831948292,0.07553000923361033,-0.069,-5.992,-7.277
1621785455095.324,0.035,-0.002,0.073,-0.06508077408498107,-5.992,-7.288365755153555
1621785455099.816,0.045,0.0,0.07,-0.058888430795119906,-5.992,-7.306323550694152
1621785455104.305,0.051,-0.007,0.065,-0.052700126209507786,-5.992,-7.324269633992428
1621785455106.989,0.055785461668208275,-0.00460726916589586,0.06918727895968224,-0.049,-5.992,-7.335
1621785455108.792,0.059,-0.003,0.072,-0.05871284524331434,-5.977306208478063,-7.332634050517654
1621785455113.275,0.061,-0.012,0.061,-0.08286277948268303,-5.94077169257748,-7.326751374228577
1621785455117.756,0.065,-0.014,0.065,-0.10700350723366944,-5.9042511044413715,-7.320870940545644
1621785455121.468,0.060026225396652304,-0.016486887301673848,0.06168415026443487,-0.127,-5.874,-7.316
1621785455122.234,0.059,-0.017,0.061,-0.12493308104272609,-5.874,-7.313933081042726
1621785455126.709,0.061,-0.024,0.054,-0.11285573820344309,-5.874,-7.301855738203443
1621785455131.181,0.059,-0.017,0.054,-0.10078696085553547,-5.874,-7.289786960855536
1621785455135.65,0.056,-0.024,0.052,-0.08872609011505127,-5.874,-7.277726090115052
1621785455135.919,0.05575908618899273,-0.024,0.051819314641744545,-0.088,-5.874,-7.277
1621785455140.117,0.052,-0.024,0.049,-0.08246946997782405,-5.879821610549659,-7.259826248878507
1621785455144.581,0.054,-0.019,0.051,-0.07658835677890069,-5.88601225602221,-7.241563844734481
1621785455149.042,0.052,-0.023,0.044,-0.07071142484722293,-5.892198500160818,-7.223314424525587
1621785455150.341,0.052,-0.025039813800657174,0.044291401971522454,-0.069,-5.894,-7.218
1621785455153.5,0.052,-0.03,0.045,-0.08612175757061669,-5.8854391212146915,-7.213609805751124
1621785455157.955,0.049,-0.035,0.044,-0.11026874204767156,-5.873365628976164,-7.207418271269828
1621785455162.408,0.044,-0.033,0.044,-0.13440381711765204,-5.861298091441174,-7.201229790482653
1621785455164.732,0.04034426949031656,-0.040311461019366876,0.04295550556866187,-0.147,-5.855,-7.198
1621785455166.858,0.037,-0.047,0.042,-0.15869415404491136,-5.843305845955089,-7.19222693661074
1621785455171.304,0.026,-0.04,0.037,-0.18315008414503545,-5.8188499158549645,-7.1801537559284005
1621785455175.749,0.024,-0.042,0.037,-0.20760064256208882,-5.794399357437911,-7.1680832270896016
1621785455179.094,0.014961407366684991,-0.040493567894447496,0.031727487630566244,-0.226,-5.776,-7.159
1621785455180.19,0.012,-0.04,0.03,-0.2214883653584083,-5.7805116346415915,-7.1635116346415915
1621785455184.629,0.012,-0.042,0.024,-0.2032146872444808,-5.798785312755519,-7.181785312755519
1621785455189.064,0.002,-0.045,0.019,-0.18495708980648679,-5.817042910193513,-7.200042910193513
1621785455193.426,-0.0029198700297389576,-0.03712820795241767,0.017032051988104417,-0.167,-5.835,-7.218
1621785455193.497,-0.003,-0.037,0.017,-0.16670689861208324,-5.835586202775834,-7.218293101387917
1621785455197.927,-0.005,-0.045,0.012,-0.14843086877101935,-5.872138262457962,-7.236569131228981
1621785455202.354,-0.005,-0.038,0.012,-0.13016692558512727,-5.908666148829746,-7.254833074414873
1621785455206.779,-0.01,-0.044,0.009,-0.11191104016934975,-5.945177919661301,-7.27308895983065
1621785455207.727,-0.008498950740004419,-0.04507217804285399,0.009,-0.108,-5.953,-7.277
1621785455211.2,-0.003,-0.049,0.009,-0.10313359105059697,-5.962489497451336,-7.267267182101194
1621785455215.619,-0.002,-0.049,0.0,-0.0969415346720947,-5.974564007389415,-7.2548830693441895
1621785455220.035,0.0,-0.049,0.002,-0.0907535835243406,-5.986630512127536,-7.242507167048681
1621785455222.0,0.0,-0.049,0.00021885372870104002,-0.088,-5.992,-7.237
1621785455224.448,0.0,-0.049,-0.002,-0.088,-5.988562741031486,-7.233734603979912
1621785455228.858,0.005,-0.049,-0.003,-0.088,-5.982370738563324,-7.227852201635158
1621785455233.266,0.012,-0.049,-0.005,-0.088,-5.976181135697513,-7.221972078912637
1621785455236.244,0.012,-0.042915696707682076,-0.007704134796585744,-0.088,-5.972,-7.218
1621785455237.671,0.012,-0.04,-0.009,-0.09000759071940098,-5.968085198097168,-7.213984818561198
1621785455242.072,0.009,-0.044,-0.01,-0.09619935083892905,-5.956011265864088,-7.201601298322142
1621785455246.472,0.007,-0.038,-0.009,-0.10238939360112659,-5.943940682477803,-7.189221212797746
1621785455250.46,0.007,-0.0461647784071976,-0.013535988003998668,-0.108,-5.933,-7.178
1621785455250.868,0.007,-0.047,-0.014,-0.10912155371218119,-5.934696709462018,-7.176332048325474
1621785455255.262,0.0,-0.045,-0.01,-0.12120157987126974,-5.952971620830895,-7.158366881217086
1621785455259.652,-0.003,-0.045,-0.012,-0.1332708670361064,-5.971230286028981,-7.140417684920663
1621785455264.04,-0.003,-0.044,-0.016,-0.1453341135166764,-5.989479812755998,-7.1224774722059685
1621785455264.646,-0.003,-0.04496731807805801,-0.016,-0.147,-5.992,-7.12
1621785455268.425,-0.003,-0.051,-0.016,-0.15741278137128073,-6.00241278137128,-7.125072893488573
1621785455272.807,-0.002,-0.047,-0.009,-0.169486468305304,-6.014486468305304,-7.130954946097456
1621785455277.187,0.0,-0.045,-0.012,-0.18155544631306597,-6.026555446313066,-7.136834704614058
1621785455278.8,-0.001105835750948449,-0.04647444766793127,-0.012,-0.186,-6.031,-7.139
1621785455281.563,-0.003,-0.049,-0.012,-0.20516809540269615,-6.027088143795368,-7.150539975803664
1621785455285.937,0.0,-0.049,-0.016,-0.2355132042862081,-6.0208952644313865,-7.168808969927412
1621785455290.308,0.0,-0.052,-0.019,-0.26583798824749394,-6.014706533010716,-7.18706572761839
1621785455292.926,0.0029967581465541334,-0.05319870325862165,-0.020198703258621654,-0.284,-6.011,-7.198
1621785455294.676,0.005,-0.054,-0.021,-0.284,-6.013482811174036,-7.200482811174036
1621785455299.042,0.003,-0.052,-0.031,-0.284,-6.019677023259036,-7.2066770232590365
1621785455303.404,0.01,-0.065,-0.024,-0.284,-6.025865693354809,-7.212865693354809
1621785455307.023,0.011660096315376862,-0.0674901444730653,-0.028980288946130583,-0.284,-6.031,-7.218
1621785455307.764,0.012,-0.068,-0.03,-0.28094493135944737,-6.029946528054982,-7.2128379874694115
1621785455312.121,0.01,-0.065,-0.035,-0.2629799198181155,-6.023751696489005,-7.182483312796126
1621785455316.475,0.009,-0.065,-0.035,-0.24502799423801175,-6.017561377323452,-7.1521507488849165
1621785455320.826,0.002,-0.073,-0.033,-0.22708915461913604,-6.0113755705583225,-7.121840295735781
1621785455321.09,0.002303693724037274,-0.073,-0.033121477489614914,-0.226,-6.011,-7.12
1621785455325.175,0.007,-0.073,-0.035,-0.21436014539383294,-6.005471069062071,-7.108360145393833
1621785455329.52,0.007,-0.066,-0.037,-0.2019794083375363,-5.999590218960329,-7.095979408337536
1621785455333.864,0.002,-0.073,-0.04,-0.18960145393832936,-5.9937106906207065,-7.083601453938329
1621785455335.128,0.0022887661758143685,-0.07213370147255689,-0.039133701472556896,-0.186,-5.992,-7.08
1621785455338.241,0.003,-0.07,-0.037,-0.17827584225159596,-5.988038893462357,-7.087922213075286
1621785455343.239,-0.003,-0.07,-0.035,-0.16587454373184635,-5.981679253195819,-7.100641493608363
1621785455348.237,-0.005,-0.07,-0.037,-0.15347324521209674,-5.9753196129292805,-7.113360774141439
1621785455350.846,-0.005,-0.0673894561977818,-0.03752210876044364,-0.147,-5.972,-7.12
1621785455353.234,-0.005,-0.065,-0.038,-0.147,-5.974957933891796,-7.1140841322164095
1621785455358.232,-0.01,-0.065,-0.035,-0.147,-5.981149000514108,-7.101701998971785
1621785455363.229,-0.016,-0.058,-0.037,-0.147,-5.987338857471195,-7.0893222850576105
1621785455366.992,-0.016,-0.05272776583268178,-0.03549364738076623,-0.147,-5.992,-7.08
1621785455368.225,-0.016,-0.051,-0.035,-0.14852787440636436,-5.993451480686046,-7.0860351039051395
1621785455373.222,-0.024,-0.051,-0.031,-0.15471892676729485,-5.99933298042893,-7.110489760730815
1621785455378.219,-0.026,-0.047,-0.028,-0.16091028161771379,-6.005214767536828,-7.134945612389969
1621785455383.134,-0.026,-0.050934336525307794,-0.03095075239398085,-0.167,-6.011,-7.159
1621785455383.216,-0.026,-0.051,-0.031,-0.1668983558452952,-6.011,-7.1594980563580535
1621785455388.212,-0.024,-0.045,-0.031,-0.1607080453163523,-6.011,-7.1898305779498735
1621785455393.209,-0.028,-0.049,-0.028,-0.15451622222558348,-6.011,-7.220170511094641
1621785455398.204,-0.024,-0.049,-0.03,-0.14832681923373617,-6.011,-7.250498585754692
1621785455399.275,-0.02249963348482627,-0.049,-0.031071690367981235,-0.147,-6.011,-7.257
1621785455403.2,-0.017,-0.049,-0.035,-0.1564842383905612,-6.015863711995159,-7.257
1621785455408.196,-0.01,-0.049,-0.03,-0.16855648162153986,-6.022054605959764,-7.257
1621785455413.191,-0.01,-0.056,-0.031,-0.180625775223113,-6.028243987293904,-7.257
1621785455415.415,-0.00688379593432369,-0.05822586004691165,-0.03055482799061767,-0.186,-6.031,-7.257
1621785455418.187,-0.003,-0.061,-0.03,-0.186,-6.031,-7.250301069575347
1621785455423.182,0.002,-0.051,-0.031,-0.186,-6.031,-7.238230132675754
1621785455428.177,0.002,-0.054,-0.035,-0.186,-6.031,-7.226158605769958
1621785455431.553,0.004027565982404693,-0.05873098729227762,-0.03364828934506354,-0.186,-6.031,-7.218
1621785455433.172,0.005,-0.061,-0.033,-0.18409347434675383,-6.031,-7.212079736129393
1621785455438.167,0.005,-0.063,-0.03,-0.17821204968756146,-6.031,-7.19381636481927
1621785455443.161,0.007,-0.051,-0.035,-0.17233177492321428,-6.031,-7.175556564235244
1621785455447.689,0.0051869990224828934,-0.04918699902248289,-0.03137399804496579,-0.167,-6.031,-7.159
1621785455448.156,0.005,-0.049,-0.031,-0.16812881848304662,-6.031,-7.158421118726642
1621785455453.15,0.003,-0.049,-0.03,-0.180198856157233,-6.031,-7.152231355816803
1621785455458.144,0.0,-0.042,-0.026,-0.19226948390903725,-6.031,-7.1460412903030575
1621785455463.139,-0.002,-0.042,-0.026,-0.20434188189369523,-6.031,-7.139850316977593
1621785455463.825,-0.002137368009385999,-0.041450527962456005,-0.026,-0.206,-6.031,-7.139
1621785455468.133,-0.003,-0.038,-0.026,-0.2268275402890217,-6.025659605054097,-7.144340394945903
1621785455473.127,-0.003,-0.038,-0.026,-0.2509705379435575,-6.019469092834985,-7.150530907165015
1621785455478.12,0.0,-0.045,-0.028,-0.27510999470379055,-6.013279488537489,-7.1567205114625105
1621785455479.959,-0.001104668785138108,-0.04573644585675874,-0.028,-0.284,-6.011,-7.159
1621785455483.114,-0.003,-0.047,-0.028,-0.284,-6.0033739654102805,-7.159
1621785455488.107,-0.01,-0.049,-0.03,-0.284,-5.991305557657099,-7.159
1621785455493.1,-0.012,-0.049,-0.031,-0.284,-5.979236559790586,-7.159
1621785455496.094,-0.012,-0.049,-0.031,-0.284,-5.972,-7.159
1621785455498.094,-0.012,-0.049,-0.031,-0.2816443025138861,-5.981794742179106,-7.1541646209495555
1621785455503.086,-0.016,-0.047,-0.035,-0.27576454830263497,-6.006242141267991,-7.142095651779092
1621785455508.079,-0.017,-0.047,-0.033,-0.26988335628774235,-6.030695518593071,-7.130023731327471
1621785455512.225,-0.02198225025671116,-0.05447337538506675,-0.036321500171140775,-0.265,-6.051,-7.12
1621785455513.072,-0.023,-0.056,-0.037,-0.26394980624848635,-6.051,-7.12
1621785455518.063,-0.023,-0.045,-0.037,-0.25776095906999275,-6.051,-7.12
1621785455523.056,-0.023,-0.049,-0.033,-0.2515696899975781,-6.051,-7.12
1621785455528.048,-0.021,-0.047,-0.033,-0.24537932913538388,-6.051,-7.12
1621785455528.354,-0.020693658011833163,-0.04767395237396704,-0.03324507359053347,-0.245,-6.051,-7.12
1621785455533.041,-0.016,-0.058,-0.037,-0.245,-6.051,-7.12
1621785455538.032,-0.019,-0.047,-0.038,-0.245,-6.051,-7.12
1621785455543.023,-0.017,-0.047,-0.037,-0.245,-6.051,-7.12
1621785455544.484,-0.017,-0.047585318139580376,-0.03641468186041962,-0.245,-6.051,-7.12
1621785455548.015,-0.017,-0.049,-0.035,-0.2364605392639244,-6.0466207893661155,-7.124160250102191
1621785455553.006,-0.019,-0.045,-0.035,-0.2243896870694745,-6.040430608753576,-7.1300409216841025
1621785455557.997,-0.021,-0.051,-0.037,-0.21231942530997833,-6.034240730928194,-7.135921305618216
1621785455560.61,-0.021,-0.049953098254022596,-0.0359530982540226,-0.206,-6.031,-7.139
1621785455562.989,-0.021,-0.049,-0.035,-0.20024636627906975,-6.031,-7.141950581395349
1621785455567.979,-0.019,-0.04,-0.037,-0.18817755268895348,-6.031,-7.1481397165697675
1621785455572.971,-0.017,-0.033,-0.031,-0.17610401526162792,-6.031,-7.154331274224806
1621785455576.735,-0.021526053133714956,-0.033,-0.031,-0.167,-6.031,-7.159
1621785455577.961,-0.023,-0.033,-0.031,-0.167,-6.02947938339466,-7.159
1621785455582.952,-0.021,-0.035,-0.033,-0.167,-6.023288193340298,-7.159
1621785455587.942,-0.019,-0.038,-0.021,-0.167,-6.017098214691319,-7.159
1621785455592.858,-0.023925876999853223,-0.038,-0.02789622779979451,-0.167,-6.011,-7.159
1621785455592.932,-0.024,-0.038,-0.028,-0.16690823743185948,-6.011091762568141,-7.158908237431859
1621785455597.921,-0.026,-0.031,-0.026,-0.16071956390066627,-6.017280436099334,-7.152719563900666
1621785455602.912,-0.024,-0.03,-0.028,-0.15452816474863718,-6.023471835251363,-7.146528164748637
1621785455607.901,-0.021,-0.037,-0.028,-0.1483397940642035,-6.029660205935796,-7.140339794064204
1621785455608.981,-0.022947945205479454,-0.037,-0.026917808219178083,-0.147,-6.031,-7.139
1621785455612.891,-0.03,-0.037,-0.023,-0.15645941361763993,-6.0261490186576205,-7.1484594136176405
1621785455617.88,-0.03,-0.024,-0.021,-0.16852819844923672,-6.019959898231161,-7.160528198449237
1621785455622.87,-0.031,-0.03,-0.023,-0.18060052701720378,-6.013768960503998,-7.172600527017204
1621785455625.102,-0.031,-0.02731565038661055,-0.0212104335910737,-0.186,-6.011,-7.178
1621785455627.859,-0.031,-0.024,-0.019,-0.1894199527530438,-6.02108886062148,-7.171331092131565
1621785455632.847,-0.028,-0.023,-0.016,-0.19560778969047185,-6.039342979586892,-7.15926481010358
1621785455637.836,-0.031,-0.024,-0.019,-0.20179683808831544,-6.057600672360531,-7.147196165727785
1621785455641.224,-0.031,-0.019246097381942745,-0.017641742109126498,-0.206,-6.07,-7.139
1621785455642.825,-0.031,-0.017,-0.017,-0.20212652418243232,-6.06414012632727,-7.144859873672731
1621785455647.814,-0.035,-0.023,-0.017,-0.19005477211105892,-6.045877732168012,-7.163122267831988
1621785455652.802,-0.033,-0.024,-0.012,-0.17798538299580424,-6.027618912737243,-7.181381087262758
1621785455657.342,-0.03482037100484558,-0.023089814497577212,-0.015640742009691157,-0.167,-6.011,-7.198
1621785455657.79,-0.035,-0.023,-0.016,-0.16644403205526354,-6.009915862507764,-7.196359894563027
1621785455662.778,-0.035,-0.024,-0.014,-0.1602538516307888,-5.997845010680038,-7.1780988623108275
1621785455667.766,-0.042,-0.023,-0.019,-0.1540636712063141,-5.985774158852313,-7.159837830058627
1621785455672.754,-0.045,-0.028,-0.014,-0.14787379376164578,-5.973703897835209,-7.141577691596855
1621785455673.458,-0.04556474274244872,-0.02828237137122436,-0.01428237137122436,-0.147,-5.972,-7.139
1621785455677.741,-0.049,-0.03,-0.016,-0.147,-5.992997484962805,-7.123318334015121
1621785455682.728,-0.051,-0.028,-0.01,-0.147,-6.017446873626956,-7.105058664000121
1621785455687.716,-0.049,-0.021,-0.005,-0.147,-6.041901049952275,-7.086795418390073
1621785455689.572,-0.05011651816312543,-0.019139136394790954,-0.006488690884167238,-0.147,-6.051,-7.08
1621785455692.703,-0.052,-0.016,-0.009,-0.1508861194866589,-6.058577932998985,-7.0838861194866585
1621785455697.69,-0.045,-0.019,-0.003,-0.15707621327595872,-6.070648615888119,-7.0900762132759585
1621785455702.677,-0.054,0.0,-0.002,-0.16326630706525858,-6.0827192987772545,-7.0962663070652585
1621785455705.685,-0.05219012877637957,-0.004223032855114332,-0.002,-0.167,-6.09,-7.1
1621785455707.663,-0.051,-0.007,-0.002,-0.167,-6.09,-7.112031153875293
1621785455712.65,-0.049,-0.005,0.002,-0.167,-6.09,-7.142362966891431
1621785455717.636,-0.051,0.0,0.0,-0.167,-6.09,-7.1726903250246234
1621785455721.797,-0.04766245655260195,-0.0016687717236990257,0.0025031575855485387,-0.167,-6.09,-7.198
1621785455722.623,-0.047,-0.002,0.003,-0.1659746309823296,-6.09,-7.19697463098233
1621785455727.608,-0.04,-0.005,0.0,-0.1597860455248083,-6.09,-7.190786045524809
1621785455732.594,-0.031,-0.009,0.0,-0.1535959445943079,-6.09,-7.184595944594308
1621785455737.58,-0.03,-0.005,-0.002,-0.14740584366380746,-6.09,-7.178405843663808
1621785455737.907,-0.029540944264864335,-0.005262317562934666,-0.002,-0.147,-6.09,-7.178
1621785455742.565,-0.023,-0.009,-0.002,-0.147,-6.078724507887439,-7.166724507887439
1621785455747.552,-0.016,-0.012,0.0,-0.147,-6.0666523616856844,-7.1546523616856845
1621785455752.536,-0.021,-0.005,-0.002,-0.147,-6.054587898349775,-7.142587898349775
1621785455754.018,-0.02159464224496792,-0.004405357755032078,-0.0008107155100641559,-0.147,-6.051,-7.139
1621785455757.521,-0.023,-0.003,0.002,-0.147,-6.042300288009701,-7.12616792481431
1621785455762.507,-0.024,-0.012,0.0,-0.147,-6.029917083522814,-7.10790269819615
1621785455767.491,-0.019,-0.009,0.003,-0.147,-6.017539336061846,-7.0896455206912234
1621785455770.124,-0.02164144011756062,-0.011641440117560617,0.0024717119764878764,-0.147,-6.011,-7.08
1621785455772.475,-0.024,-0.014,0.002,-0.14408031410120364,-6.008226298396144,-7.077226298396144
1621785455777.46,-0.035,-0.009,0.003,-0.13788985234817935,-6.0023453597307705,-7.0713453597307705
1621785455782.445,-0.04,-0.003,0.007,-0.13169908740866507,-5.996464133038232,-7.0654641330382315
1621785455786.229,-0.04303693543646517,-0.0007222984226511217,0.008518467718232585,-0.127,-5.992,-7.061
1621785455787.429,-0.044,0.0,0.009,-0.12849025196325156,-5.996396243291592,-7.065396243291592
1621785455792.413,-0.045,-0.012,0.01,-0.1346801794972863,-6.014656529516994,-7.083656529516994
1621785455797.397,-0.051,-0.007,0.009,-0.14086980382644554,-6.032915921288015,-7.101915921288015
1621785455802.333,-0.04901929953465589,-0.009971050698016164,0.011971050698016164,-0.147,-6.051,-7.12
1621785455802.381,-0.049,-0.01,0.012,-0.147,-6.051116497346475,-7.120232994692949
1621785455807.364,-0.047,-0.009,0.009,-0.147,-6.063186095526914,-7.1443721910538285
1621785455812.348,-0.044,-0.014,0.01,-0.147,-6.075258059135709,-7.168516118271418
1621785455817.331,-0.042,-0.014,0.012,-0.147,-6.087328248673237,-7.192656497346475
1621785455818.434,-0.04111472518859606,-0.01355736259429803,0.01288527481140394,-0.147,-6.09,-7.198
1621785455822.315,-0.038,-0.012,0.016,-0.147,-6.085178720371241,-7.18859850472392
1621785455827.298,-0.035,-0.01,0.012,-0.147,-6.0789880347583445,-7.176526667778772
1621785455832.28,-0.037,-0.009,0.012,-0.147,-6.072798865652629,-7.164457788022626
1621785455834.533,-0.03428721215090642,-0.01035639392454679,0.013808525232729055,-0.147,-6.07,-7.159
1621785455837.263,-0.031,-0.012,0.016,-0.1436083290363675,-6.066777912584549,-7.155608329036367
1621785455842.245,-0.031,-0.016,0.014,-0.1374185750250235,-6.060897646273773,-7.149418575025024
1621785455847.229,-0.026,-0.005,0.01,-0.13122669780703083,-6.05501536291668,-7.143226697807031
1621785455850.631,-0.026,-0.007732085089697088,0.011366042544848545,-0.127,-6.051,-7.139
1621785455852.21,-0.026,-0.009,0.012,-0.128961926431551,-6.0490380735684495,-7.139
1621785455857.192,-0.023,-0.007,0.014,-0.13515259764884338,-6.042847402351157,-7.139
1621785455862.175,-0.03,-0.005,0.01,-0.14134478574137277,-6.036655214258627,-7.139
1621785455866.726,-0.024517890402901678,-0.003172630134300559,0.011827369865699442,-0.147,-6.031,-7.139
1621785455867.156,-0.024,-0.003,0.012,-0.14911051777235007,-6.029958098821244,-7.140576209475553
1621785455872.138,-0.033,-0.009,0.014,-0.17356663683116647,-6.0178848248555,-7.158840905987834
1621785455877.119,-0.033,-0.012,0.01,-0.19801796198249313,-6.005813917502313,-7.17710202224009
1621785455882.1,-0.031,-0.012,0.005,-0.22247048561069224,-5.993742418495987,-7.195364033557353
1621785455882.819,-0.031,-0.01098975791433892,0.005288640595903166,-0.226,-5.992,-7.198
1621785455887.082,-0.031,-0.005,0.007,-0.226,-5.992,-7.192701723510135
1621785455892.063,-0.031,-0.019,0.0,-0.226,-5.992,-7.186511045029737
1621785455897.044,-0.031,-0.019,0.003,-0.226,-5.992,-7.1803203665493385
1621785455898.911,-0.030625183805509264,-0.01974963238898147,0.0018755514165277915,-0.226,-5.992,-7.178
1621785455902.025,-0.03,-0.021,0.0,-0.22212951190277505,-5.995676963692364,-7.166775584518048
1621785455907.005,-0.031,-0.028,-0.002,-0.21593976543415921,-6.0015572228375484,-7.148825319759061
1621785455911.986,-0.035,-0.023,-0.005,-0.20974850172207132,-6.007438923364032,-7.130870654994007
1621785455915.002,-0.036816795764290616,-0.021788802823806255,-0.005,-0.206,-6.011,-7.12
1621785455916.966,-0.038,-0.021,-0.005,-0.20844154109952806,-6.008680535955448,-7.115116917800944
1621785455921.946,-0.033,-0.023,-0.009,-0.2146320389675422,-6.002799562980835,-7.102735922064916
1621785455926.926,-0.038,-0.028,-0.009,-0.22082253683555636,-5.996918590006222,-7.090354926328887
1621785455931.091,-0.041345426022159036,-0.024654573977840967,-0.009836356505539759,-0.226,-5.992,-7.08
1621785455931.906,-0.042,-0.024,-0.01,-0.226,-5.990024312511382,-7.082988860559704
1621785455936.886,-0.045,-0.031,-0.014,-0.226,-5.977951192861045,-7.10125332362047
1621785455941.865,-0.047,-0.035,-0.017,-0.226,-5.965880440721181,-7.11951420506283
1621785455946.845,-0.054,-0.037,-0.021,-0.226,-5.953807321070843,-7.137778668123596
1621785455947.178,-0.0536655879180151,-0.037200647249190935,-0.021200647249190938,-0.226,-5.953,-7.139
1621785455951.824,-0.049,-0.04,-0.024,-0.22022431977176504,-5.958486896216823,-7.139
1621785455956.802,-0.051,-0.042,-0.03,-0.21403587416726103,-5.964365919541103,-7.139
1621785455961.782,-0.049,-0.044,-0.028,-0.20784500053113192,-5.970247249495425,-7.139
1621785455963.266,-0.04959627268268759,-0.04549068170671898,-0.02949068170671898,-0.206,-5.972,-7.139
1621785455966.76,-0.051,-0.049,-0.033,-0.21447087481787275,-5.97634403836814,-7.139
1621785455971.74,-0.052,-0.052,-0.03,-0.22654472741622145,-5.9825357576493445,-7.139
1621785455976.718,-0.058,-0.051,-0.033,-0.23861384470616803,-5.988725048567265,-7.139
1621785455979.352,-0.06064617875012263,-0.05364617875012263,-0.03670465025017169,-0.245,-5.992,-7.139
1621785455981.695,-0.063,-0.056,-0.04,-0.24223269896193772,-5.992,-7.150506146421417
1621785455986.674,-0.065,-0.061,-0.037,-0.23635207612456746,-5.992,-7.174957157166272
1621785455991.652,-0.068,-0.063,-0.038,-0.2304726066897347,-5.992,-7.199403372184787
1621785455995.439,-0.068,-0.06147819475104243,-0.04332631837135148,-0.226,-5.992,-7.218
1621785455996.629,-0.068,-0.061,-0.045,-0.2201546332280787,-5.994885687393733,-7.218
1621785456001.608,-0.059,-0.07,-0.045,-0.19569619868836532,-6.0069601044449845,-7.218
1621785456006.585,-0.066,-0.065,-0.047,-0.1712473585134807,-6.019029785037649,-7.218
1621785456011.521,-0.06500843550760177,-0.07194095144678764,-0.047,-0.147,-6.031,-7.218
1621785456011.563,-0.065,-0.072,-0.047,-0.14689816614039347,-6.031,-7.217947777507894
1621785456016.54,-0.059,-0.08,-0.052,-0.13482848554772892,-6.031,-7.211758197716784
1621785456021.517,-0.061,-0.075,-0.054,-0.12275880495506436,-6.031,-7.205568617925675
1621785456026.494,-0.052,-0.084,-0.056,-0.1106897164197231,-6.031,-7.199379341753705
1621785456027.603,-0.05088553625748209,-0.08355421450299284,-0.05644578549700716,-0.108,-6.031,-7.198
1621785456031.47,-0.047,-0.082,-0.058,-0.08900060735814391,-6.026190027179276,-7.183810580178867
1621785456036.448,-0.049,-0.084,-0.059,-0.0645421430632108,-6.0199980109020785,-7.165544132161132
1621785456041.424,-0.049,-0.091,-0.059,-0.04009327502695151,-6.013808424057456,-7.147284850969496
1621785456043.682,-0.04718533235221977,-0.091,-0.057638999264164825,-0.029,-6.011,-7.139
1621785456046.401,-0.045,-0.091,-0.056,-0.015810112359550564,-6.01438202247191,-7.132405056179776
1621785456051.376,-0.047,-0.089,-0.061,0.008324172487093832,-6.020570300637717,-7.120337913756453
1621785456056.353,-0.044,-0.087,-0.051,0.032467931976920744,-6.02676100819921,-7.10826603401154
1621785456059.761,-0.04605511115473328,-0.08014962948422241,-0.04825985179368896,0.049,-6.031,-7.1
1621785456061.328,-0.047,-0.077,-0.047,0.04422433979742145,-6.0290507509377225,-7.092397928657119
1621785456066.304,-0.049,-0.094,-0.04,0.029058009749282472,-6.022860412142564,-7.068255607356001
1621785456071.28,-0.056,-0.084,-0.051,0.013891679701143494,-6.016670073347406,-7.044113286054881
1621785456075.838,-0.06058090003435246,-0.08033527997251803,-0.051,0.0,-6.011,-7.022
1621785456076.255,-0.061,-0.08,-0.051,0.0007522172275543677,-6.012530372980197,-7.025034807435306
1621785456081.23,-0.061,-0.084,-0.044,0.009726855789090025,-6.030789120398493,-7.061242831976673
1621785456086.206,-0.054,-0.084,-0.037,0.0187032559834771,-6.049051451828453,-7.097457963795408
1621785456091.18,-0.059,-0.079,-0.037,0.02767569250394849,-6.067305719232172,-7.1336571042400685
1621785456091.914,-0.05826233931900696,-0.079,-0.03773766068099303,0.029,-6.07,-7.139
1621785456096.156,-0.054,-0.079,-0.042,0.029,-6.080555412116702,-7.139
1621785456101.13,-0.044,-0.091,-0.042,0.029,-6.092932126421943,-7.139
1621785456106.105,-0.033,-0.089,-0.04,0.029,-6.1053118782558515,-7.139
1621785456107.989,-0.031863698831844506,-0.0878636988318445,-0.03810616471974085,0.029,-6.11,-7.139
1621785456111.079,-0.03,-0.086,-0.035,0.029,-6.106154699153894,-7.139
1621785456116.053,-0.028,-0.089,-0.035,0.029,-6.099965213956951,-7.139
1621785456121.028,-0.024,-0.087,-0.03,0.029,-6.093774209718825,-7.139
1621785456124.061,-0.02217030782070794,-0.087,-0.03426928175168147,0.029,-6.09,-7.139
1621785456126.001,-0.021,-0.087,-0.037,0.031414353645382316,-6.092414353645382,-7.136706364036887
1621785456130.975,-0.016,-0.079,-0.03,0.037604894945535754,-6.098604894945535,-7.130825349801741
1621785456135.949,-0.017,-0.086,-0.028,0.043795132400528694,-6.104795132400529,-7.124944624219498
1621785456140.131,-0.012795287187039765,-0.09188659793814433,-0.026318114874815904,0.049,-6.11,-7.12
1621785456140.922,-0.012,-0.093,-0.026,0.04801540705624943,-6.11,-7.1228553195368765
1621785456145.896,-0.012,-0.086,-0.019,0.04182432309235117,-6.11,-7.1408094630321814
1621785456150.868,-0.005,-0.091,-0.017,0.03563567022214119,-6.11,-7.15875655635579
1621785456155.841,-0.005,-0.089,-0.017,0.029445497918376033,-6.11,-7.176708056036709
1621785456156.199,-0.00464013942756149,-0.0891439442289754,-0.016784083656536896,0.029,-6.11,-7.178
1621785456160.814,0.0,-0.091,-0.014,0.02066813083259872,-6.11,-7.166795072499012
1621785456165.787,0.005,-0.093,-0.01,0.01168965255190443,-6.11,-7.154720567224975
1621785456170.76,0.007,-0.094,-0.007,0.002711615040885188,-6.11,-7.142646654710156
1621785456172.262,0.00639582617235453,-0.09460417382764547,-0.005489565430886325,0.0,-6.11,-7.139
1621785456175.732,0.005,-0.096,-0.002,0.006264278549499985,-6.101359615793793,-7.126255433295845
1621785456180.705,0.01,-0.096,0.002,0.015242211009453176,-6.088976260676617,-7.107989984498009
1621785456185.677,0.01,-0.099,0.005,0.02421793975500775,-6.076595945165507,-7.0897290191191225
1621785456188.326,0.006270562239135772,-0.099,0.007131107291922416,0.029,-6.07,-7.08
1621785456190.649,0.003,-0.099,0.009,0.024805821553427573,-6.06725208998328,-7.071611643106856
1621785456195.62,0.0,-0.101,0.014,0.01583032375740994,-6.061371591427269,-7.05366064751482
1621785456200.592,0.0,-0.096,0.024,0.0068535035719714255,-6.055490226478188,-7.035707007143943
1621785456204.388,-0.002290400196415419,-0.09752693346427695,0.027053866928553893,0.0,-6.051,-7.022
1621785456205.564,-0.003,-0.098,0.028,0.0007322671855522787,-6.049535465628896,-7.026247149676204
1621785456210.535,-0.009,-0.093,0.031,0.003827490802955216,-6.043345018394089,-7.0441994466571405
1621785456215.507,-0.012,-0.094,0.033,0.0069234745067039615,-6.037153050986592,-7.062156152138883
1621785456220.448,-0.0189590804145994,-0.09797661737977109,0.04194738910448495,0.01,-6.031,-7.08
1621785456220.477,-0.019,-0.098,0.042,0.00978649515729295,-6.030929434840122,-7.079965622101598
1621785456225.448,-0.017,-0.098,0.051,-0.026744362845717587,-6.018855676686584,-7.074083534796029
1621785456230.419,-0.028,-0.096,0.054,-0.06327522084872812,-6.006781918533047,-7.068201447490459
1621785456235.389,-0.024,-0.096,0.058,-0.09979890221837036,-5.994710532317657,-7.062320515744499
1621785456236.505,-0.02646935468028681,-0.09532653963264906,0.05912243394558492,-0.108,-5.992,-7.061
1621785456240.36,-0.035,-0.093,0.063,-0.108,-5.992,-7.056198114641934
1621785456245.33,-0.037,-0.093,0.07,-0.108,-5.992,-7.0500077542952715
1621785456250.3,-0.044,-0.089,0.079,-0.108,-5.992,-7.0438173939486095
1621785456252.562,-0.04536537800265265,-0.08808974799823156,0.07945512600088422,-0.108,-5.992,-7.041
1621785456255.27,-0.047,-0.087,0.08,-0.12453080280426418,-5.98862636677464,-7.050952218014812
1621785456260.24,-0.054,-0.084,0.084,-0.1548695652173913,-5.982434782608696,-7.069217391304348
1621785456265.21,-0.056,-0.084,0.086,-0.18520832763051842,-5.976243198442751,-7.087482564593883
1621785456268.616,-0.06079816243305655,-0.09085451776150937,0.08805635532845281,-0.206,-5.972,-7.1
1621785456270.179,-0.063,-0.094,0.089,-0.21174449834988518,-5.97015007680258,-7.094255501650115
1621785456275.148,-0.066,-0.098,0.091,-0.23000719358812527,-5.964268869861452,-7.0759928064118744
1621785456280.118,-0.068,-0.094,0.093,-0.2482734780162122,-5.958386507079525,-7.057726521983788
1621785456284.669,-0.07257942318085786,-0.09857942318085787,0.09574765390851472,-0.265,-5.953,-7.041
1621785456285.087,-0.073,-0.099,0.096,-0.2680463096740833,-5.950943090049123,-7.039984563441973
1621785456290.056,-0.084,-0.105,0.099,-0.3042621629431357,-5.926489650662328,-7.027912612352289
1621785456295.025,-0.096,-0.105,0.101,-0.34047801621218804,-5.902036211275531,-7.015840661262604
1621785456299.993,-0.106,-0.112,0.098,-0.3766867519352729,-5.877587577753106,-7.0037710826882424
1621785456300.722,-0.10790723726232004,-0.11244013167592001,0.09814671055864001,-0.382,-5.874,-7.002
1621785456304.962,-0.119,-0.115,0.099,-0.41581620700670857,-5.874,-7.002
1621785456309.93,-0.131,-0.124,0.094,-0.45543882440634653,-5.874,-7.002
1621785456314.898,-0.14,-0.126,0.093,-0.49506144180598444,-5.874,-7.002
1621785456316.771,-0.14188510491916065,-0.1297702098383213,0.09337702098383213,-0.51,-5.874,-7.002
1621785456319.866,-0.145,-0.136,0.094,-0.532757001810354,-5.885378500905177,-7.017042763908539
1621785456324.833,-0.155,-0.14,0.093,-0.569279144417568,-5.9036395722087835,-7.041184519191273
1621785456329.802,-0.155,-0.143,0.094,-0.605815648152374,-5.921907824076187,-7.065335767422756
1621785456332.819,-0.16289338181103524,-0.14967901537856826,0.094,-0.628,-5.933,-7.08
1621785456334.771,-0.168,-0.154,0.094,-0.6555208830548926,-5.947433174224344,-7.084892601431981
1621785456339.707,-0.166,-0.159,0.087,-0.7251165320359831,-5.9839322256899825,-7.097265161250841
1621785456344.641,-0.164,-0.169,0.079,-0.7946846429227097,-6.020416834955022,-7.1096328254084815
1621785456348.777,-0.15980772086117298,-0.1723538233110616,0.07396926503340757,-0.853,-6.051,-7.12
1621785456349.574,-0.159,-0.173,0.073,-0.8520502036940607,-6.060298005942353,-7.1228993781970775
1621785456354.508,-0.157,-0.178,0.073,-0.8461692651698471,-6.117869298863602,-7.14085171684994
1621785456359.441,-0.152,-0.187,0.075,-0.8402897816032101,-6.175426348515943,-7.1587996140533585
1621785456364.375,-0.145,-0.192,0.073,-0.8344088430789965,-6.2329976414371915,-7.176751952706221
1621785456364.718,-0.14486087042630091,-0.1922086943605486,0.07313912957369906,-0.834,-6.237,-7.178
1621785456369.306,-0.143,-0.195,0.075,-0.8394703232725601,-6.253986793320055,-7.21197358664011
1621785456374.239,-0.141,-0.195,0.079,-0.8453522598437261,-6.27225175425157,-7.248503508503141
1621785456379.17,-0.127,-0.201,0.08,-0.8512315765282672,-6.290508579745672,-7.2850171594913435
1621785456380.653,-0.12760154470739676,-0.2031054064758887,0.08180463412219031,-0.853,-6.296,-7.296
1621785456384.101,-0.129,-0.208,0.086,-0.8296236417416358,-6.29167104476697,-7.319376358258364
1621785456389.033,-0.126,-0.211,0.089,-0.7961869913715153,-6.285479072476207,-7.352813008628485
1621785456393.963,-0.12,-0.204,0.091,-0.7627635825836411,-6.279289552330304,-7.386236417416359
1621785456396.583,-0.11362392316070898,-0.20240598079017724,0.09525071789286069,-0.745,-6.276,-7.404
1621785456398.894,-0.108,-0.201,0.099,-0.7222176352459645,-6.290220839145831,-7.396889580427084
1621785456403.823,-0.096,-0.202,0.106,-0.6736276117915778,-6.320550917480416,-7.381724541259792
1621785456408.752,-0.087,-0.208,0.113,-0.6250375883371913,-6.350880995815001,-7.3665595020925
1621785456412.509,-0.08318876615978998,-0.20266427262370598,0.11757348060825201,-0.588,-6.374,-7.355
1621785456413.681,-0.082,-0.201,0.119,-0.5699665092314298,-6.3841576396982145,-7.352129362693983
1621785456418.61,-0.068,-0.187,0.131,-0.4941131386861314,-6.426883211678832,-7.340054744525547
1621785456423.539,-0.061,-0.182,0.15,-0.4182635251180764,-6.469606667484512,-7.327980724406551
1621785456428.43,-0.04710267082899757,-0.17108066993706952,0.16588266190971707,-0.343,-6.512,-7.316
1621785456428.466,-0.047,-0.171,0.166,-0.34286606540278547,-6.512065832259648,-7.315954598441622
1621785456433.393,-0.042,-0.162,0.182,-0.3246029971163875,-6.5210425946377075,-7.309763727836064
1621785456438.321,-0.038,-0.15,0.197,-0.3063363089760108,-6.530021136266028,-7.303571630161359
1621785456443.247,-0.024,-0.131,0.209,-0.2880768605435916,-6.538996119393828,-7.297381986624947
1621785456444.347,-0.020205093900203162,-0.12787478321193202,0.2130181358703731,-0.284,-6.541,-7.296
1621785456448.174,-0.007,-0.117,0.227,-0.28880976926853213,-6.519837015218459,-7.291430719194895
1621785456453.1,0.01,-0.106,0.243,-0.2950005522827688,-6.492597569955818,-7.285549475331369
1621785456458.026,0.031,-0.091,0.26,-0.30119102847324497,-6.465359474717722,-7.279668522950417
1621785456460.261,0.03916883953799633,-0.08782322906855698,0.26408441976899816,-0.304,-6.453,-7.277
1621785456462.951,0.049,-0.084,0.269,-0.3354495649371576,-6.388240949618649,-7.233883660973252
1621785456467.875,0.061,-0.066,0.278,-0.3930195663183095,-6.269696269355309,-7.154957046176511
1621785456472.8,0.059,-0.063,0.283,-0.45060098522167485,-6.1511280788177345,-7.076014778325123
1621785456476.17,0.05557816450989141,-0.05820943031384798,0.287790569686152,-0.49,-6.07,-7.022
1621785456477.724,0.054,-0.056,0.29,-0.5091490968246903,-6.0489946131769985,-6.980770822142759
1621785456482.648,0.037,-0.049,0.302,-0.5698149756748876,-5.982447858315813,-6.850153470740803
1621785456487.571,0.016,-0.038,0.318,-0.6304718304455256,-5.915911002317409,-6.7195555487346335
1621785456492.078,-0.000478873239436621,-0.0206056338028169,0.3225774647887324,-0.686,-5.855,-6.6
1621785456492.494,-0.002,-0.019,0.323,-0.6908918159627874,-5.855,-6.595134343480864
1621785456497.417,-0.028,-0.009,0.339,-0.7487811756397857,-5.855,-6.537554552572192
1621785456502.339,-0.056,0.003,0.346,-0.8066590521807212,-5.855,-6.4799861833924375
1621785456507.26,-0.087,0.026,0.363,-0.8645225748015781,-5.855,-6.422432091373831
1621785456507.981,-0.08934306967517976,0.027610860401686088,0.363,-0.873,-5.855,-6.414
1621785456512.183,-0.103,0.037,0.363,-0.950705353029698,-5.855,-6.468182303983292
1621785456517.103,-0.127,0.044,0.372,-1.0416836399373484,-5.855,-6.531619544854273
1621785456522.025,-0.143,0.044,0.37,-1.1326980436718774,-5.855,-6.595081969226989
1621785456523.88,-0.15167136406490347,0.04513104748672654,0.3692459683421823,-1.167,-5.855,-6.619
1621785456526.945,-0.166,0.047,0.368,-1.2142485484316918,-5.873899419372677,-6.679555282479801
1621785456531.864,-0.18,0.052,0.37,-1.2900720254370066,-5.904228810174803,-6.776733126478449
1621785456536.784,-0.19,0.054,0.37,-1.3659105557432951,-5.934564222297318,-6.873930263279162
1621785456539.774,-0.19668637085566806,0.054,0.3627057772483621,-1.412,-5.953,-6.933
1621785456541.703,-0.201,0.054,0.358,-1.4513265738777767,-5.96003994223738,-6.969899007589025
1621785456546.623,-0.199,0.052,0.353,-1.5516364641902478,-5.97799665099702,-7.06401692936369
1621785456551.541,-0.197,0.04,0.344,-1.6519015577472578,-5.995945340584385,-7.158092819614711
1621785456555.666,-0.1953224781572677,0.028257347100873707,0.33225734710087373,-1.736,-6.011,-7.237
1621785456556.459,-0.195,0.026,0.33,-1.7428385252578031,-6.0159417080330115,-7.245336012540534
1621785456561.376,-0.188,0.017,0.323,-1.7852424349536646,-6.046583949346079,-7.2970254499070215
1621785456566.293,-0.178,0.007,0.307,-1.827646344649526,-6.077226190659147,-7.34871488727351
1621785456571.211,-0.166,0.0,0.302,-1.8700586761745224,-6.107874517819546,-7.400414590665294
1621785456571.552,-0.16572248708780296,-0.0009712951926897101,0.3011674612634088,-1.873,-6.11,-7.404
1621785456576.127,-0.162,-0.014,0.29,-1.9012261569911315,-6.124113078495566,-7.409760440202271
1621785456581.044,-0.143,-0.024,0.281,-1.9315626104732482,-6.139281305236624,-7.4159515531578055
1621785456585.959,-0.129,-0.035,0.272,-1.9618870137255806,-6.1544435068627905,-7.422140206882772
1621785456587.436,-0.12689680174811283,-0.03770411203814065,0.2668922328168455,-1.971,-6.159,-7.424
1621785456590.875,-0.122,-0.044,0.255,-1.971,-6.152502367919306,-7.42811516698444
1621785456595.79,-0.113,-0.047,0.244,-1.971,-6.143215818931053,-7.433996648010333
1621785456600.705,-0.106,-0.059,0.232,-1.971,-6.133929269942801,-7.4398781290362255
1621785456603.314,-0.106,-0.06643300044716052,0.22297421374273366,-1.971,-6.129,-7.443
1621785456605.619,-0.106,-0.073,0.215,-1.9454461122047244,-6.130451925442913,-7.431674981545275
1621785456610.533,-0.087,-0.072,0.204,-1.8909657972440945,-6.133547397883858,-7.4075302965059056
1621785456615.447,-0.075,-0.082,0.195,-1.8364854822834644,-6.1366428703248035,-7.383385611466536
1621785456619.189,-0.0696686046511628,-0.08580813953488371,0.18738372093023256,-1.795,-6.139,-7.365
1621785456620.36,-0.068,-0.087,0.185,-1.7797981354993537,-6.146231954956618,-7.346920112608455
1621785456625.272,-0.061,-0.084,0.173,-1.7160403052119868,-6.1765633499476955,-7.271091625130762
1621785456630.185,-0.056,-0.094,0.168,-1.6522666297458617,-6.206902282936435,-7.195244292658914
1621785456635.059,-0.05103852080123266,-0.08407704160246533,0.16105392912172573,-1.589,-6.237,-7.12
1621785456635.097,-0.051,-0.084,0.161,-1.5885325506608607,-6.236952301087843,-7.119766275330431
1621785456640.009,-0.049,-0.08,0.154,-1.5278546106383961,-6.230760674554938,-7.089427305319198
1621785456644.92,-0.051,-0.068,0.157,-1.4671917496268714,-6.224570586696619,-7.059095874813436
1621785456649.831,-0.047,-0.058,0.15,-1.4065258728131587,-6.218380191103384,-7.028762936406579
1621785456650.926,-0.04588516032811335,-0.058,0.14955406413124533,-1.393,-6.217,-7.022
1621785456654.742,-0.042,-0.058,0.148,-1.3646128734358407,-6.195829939511474,-7.007806436717921
1621785456659.652,-0.038,-0.051,0.15,-1.328085561250404,-6.168589232118945,-6.989542780625202
1621785456664.562,-0.035,-0.035,0.145,-1.291560065259885,-6.141349879176863,-6.9712800326299424
1621785456666.788,-0.03318610434177152,-0.03001178693987169,0.145,-1.275,-6.129,-6.963
1621785456669.471,-0.031,-0.024,0.145,-1.2567284231917972,-6.119018305262185,-6.93136310311913
1621785456674.381,-0.024,-0.028,0.147,-1.223287896049512,-6.100749869138159,-6.873461449641285
1621785456679.289,-0.024,-0.016,0.155,-1.189862333343597,-6.082489608030299,-6.815585706807894
1621785456682.646,-0.025367955031587324,-0.01326408993682535,0.15978784261055565,-1.167,-6.07,-6.776
1621785456684.197,-0.026,-0.012,0.162,-1.170815204336177,-6.05855438699147,-6.7645543869914695
1621785456689.105,-0.033,-0.009,0.161,-1.1828877767854393,-6.022336669643682,-6.7283366696436815
1621785456694.013,-0.04,0.0,0.164,-1.1949603492347016,-5.986118952295895,-6.692118952295894
1621785456698.501,-0.044573113090203495,0.009146226180406987,0.16582924523608142,-1.206,-5.953,-6.659
1621785456698.92,-0.045,0.01,0.166,-1.2072949946095795,-5.951440720776221,-6.65744072077622
1621785456703.827,-0.054,0.024,0.173,-1.222462883104882,-5.933177344832897,-6.639177344832897
1621785456708.733,-0.059,0.028,0.173,-1.2376277529647313,-5.914917603573079,-6.620917603573078
1621785456713.639,-0.068,0.035,0.175,-1.2527926228245803,-5.89665786231326,-6.60265786231326
1621785456714.353,-0.06901891017666087,0.037474496143319234,0.175,-1.255,-5.894,-6.6
1621785456718.545,-0.075,0.052,0.175,-1.24732879877983,-5.914632886040457,-6.581747831579595
1621785456723.451,-0.08,0.068,0.18,-1.2383507679982744,-5.938780692970158,-6.560386310064859
1621785456728.355,-0.086,0.077,0.187,-1.2293763114514165,-5.962918886441018,-6.539033292763715
1621785456730.2,-0.08712864041419824,0.0796334942997959,0.1896334942997959,-1.226,-5.972,-6.531
1621785456733.259,-0.089,0.084,0.194,-1.2429927106289202,-5.975861979688391,-6.532930989844195
1621785456738.164,-0.094,0.096,0.194,-1.270239362603831,-5.98205440059178,-6.53602720029589
1621785456743.067,-0.094,0.101,0.199,-1.2974738091201898,-5.988244047527316,-6.5391220237636585
1621785456746.042,-0.094,0.10767327126997561,0.19596669487728383,-1.314,-5.992,-6.541
1621785456747.971,-0.094,0.112,0.194,-1.3306867638897455,-6.003936517235,-6.541
1621785456752.874,-0.098,0.115,0.197,-1.373101683418635,-6.034277116606031,-6.541
1621785456757.776,-0.099,0.117,0.194,-1.4155060430412532,-6.064610162175494,-6.541
1621785456761.879,-0.09648951849823234,0.11365269133097645,0.194,-1.451,-6.09,-6.541
1621785456762.679,-0.096,0.113,0.194,-1.4539808821942308,-6.101367771079693,-6.543980882194231
1621785456767.581,-0.099,0.12,0.19,-1.4722454942106968,-6.17102095249842,-6.562245494210697
1621785456772.483,-0.093,0.131,0.192,-1.4905091965896302,-6.240670664960454,-6.58050919658963
1621785456777.384,-0.087,0.136,0.194,-1.508770170055966,-6.310309970552413,-6.598770170055966
1621785456777.714,-0.0863263577478824,0.1358652715495765,0.19453891380169408,-1.51,-6.315,-6.6
1621785456782.284,-0.077,0.134,0.202,-1.5382910593932664,-6.360323431885131,-6.6340647449837284
1621785456787.185,-0.065,0.143,0.199,-1.5686331374635636,-6.408932679405914,-6.6705990838846985
1621785456792.084,-0.051,0.145,0.199,-1.5989616126096948,-6.457520134486961,-6.70711704375453
1621785456793.544,-0.04772328767123288,0.14559576587795764,0.19959576587795766,-1.608,-6.472,-6.718
1621785456796.985,-0.04,0.147,0.201,-1.627351706158213,-6.4913517061582136,-6.722131263112428
1621785456801.884,-0.019,0.145,0.19,-1.6549012865605333,-6.518901286560533,-6.728012634209552
1621785456806.783,-0.002,0.148,0.185,-1.6824508669628533,-6.546450866962854,-6.733894005306676
1621785456809.37,0.012789951151430563,0.15275391287010268,0.18394357491775495,-1.697,-6.561,-6.737
1621785456811.681,0.026,0.157,0.183,-1.7026963519644456,-6.5666963519644455,-6.722686089935496
1621785456816.579,0.031,0.166,0.175,-1.7147709329958951,-6.578770932995895,-6.692344835035956
1621785456821.477,0.051,0.162,0.161,-1.726844912194068,-6.5908449121940675,-6.662005092435419
1621785456825.191,0.07071841659188353,0.1597247980855519,0.15569119553295444,-1.736,-6.6,-6.639
1621785456826.374,0.077,0.159,0.154,-1.7345042055714175,-6.604412593564318,-6.623593317385601
1621785456831.272,0.087,0.169,0.145,-1.7283117524500347,-6.622680330272397,-6.559811050235358
1621785456836.168,0.087,0.173,0.138,-1.7221217686549888,-6.640940782467783,-6.496054217146384
1621785456841.01,0.08205608734669459,0.17102243493867786,0.13404486987735567,-1.716,-6.659,-6.433
1621785456841.065,0.082,0.171,0.134,-1.7160694594511159,-6.659270891859352,-6.433069459451116
1621785456845.96,0.082,0.18,0.131,-1.722259068317229,-6.683410366437193,-6.439259068317229
1621785456850.855,0.093,0.182,0.131,-1.728448677183342,-6.707549841015034,-6.445448677183342
1621785456855.751,0.106,0.183,0.131,-1.7346395208841416,-6.731694131448153,-6.451639520884142
1621785456856.827,0.10907720698254364,0.18497820448877805,0.13143960099750623,-1.736,-6.737,-6.453
1621785456860.646,0.12,0.192,0.133,-1.7099182709378618,-6.75124835198765,-6.410254944037051
1621785456865.541,0.131,0.201,0.134,-1.67648870706291,-6.769510798919336,-6.3554676032419914
1621785456870.434,0.131,0.208,0.133,-1.64307248166731,-6.787765959089155,-6.3007021227325355
1621785456872.641,0.13190215059128788,0.21431505413901503,0.1343532258869318,-1.628,-6.796,-6.276
1621785456875.327,0.133,0.222,0.136,-1.6013286440075976,-6.796,-6.244402087805179
1621785456880.221,0.145,0.232,0.14,-1.5527281529409949,-6.796,-6.186824435968312
1621785456885.114,0.147,0.243,0.14,-1.5041373596676808,-6.796,-6.12925827323687
1621785456888.451,0.15040983933739147,0.2532295180121744,0.1434098393373915,-1.471,-6.796,-6.09
1621785456890.007,0.152,0.258,0.145,-1.463320719162213,-6.792160359581107,-6.062925612430879
1621785456894.898,0.147,0.264,0.15,-1.4391853201940008,-6.780092660097001,-5.977832859658336
1621785456899.791,0.14,0.281,0.157,-1.4150390781872664,-6.768019539093633,-5.8927018782243366
1621785456904.257,0.13634742674586933,0.29561029301652275,0.16065257325413068,-1.393,-6.757,-5.815
1621785456904.682,0.136,0.297,0.161,-1.39404858149453,-6.752778787316892,-5.807364175783423
1621785456909.572,0.119,0.298,0.157,-1.406119321342481,-6.70418632177514,-5.719464429198344
1621785456914.463,0.106,0.3,0.157,-1.4181918690895605,-6.655586578280487,-5.631551517399098
1621785456919.353,0.08,0.309,0.157,-1.4302626089375114,-6.606994112738735,-5.543651770814018
1621785456920.057,0.07654609893675436,0.3092878250886038,0.1572878250886038,-1.432,-6.6,-5.531
1621785456924.244,0.056,0.311,0.159,-1.437036555018007,-6.646654404377328,-5.479043958761611
1621785456929.133,0.028,0.33,0.162,-1.4429177241603166,-6.701132602748195,-5.418375056030419
1621785456934.021,0.005,0.337,0.168,-1.448797424919239,-6.7555971992518975,-5.357721300833115
1621785456935.852,-0.007357082230765391,0.3403701133356633,0.16912337111188777,-1.451,-6.776,-5.335
1621785456938.911,-0.028,0.346,0.171,-1.4909062094130745,-6.873053451048302,-5.399508581235698
1621785456943.799,-0.054,0.356,0.182,-1.5546784278557735,-7.028149962891954,-5.5025966819221965
1621785456948.686,-0.075,0.358,0.185,-1.618434720761952,-7.18320774321232,-5.605659038901602
1621785456951.642,-0.07802382498376705,0.361023824983767,0.18379047000649318,-1.657,-7.277,-5.668
1621785456953.574,-0.08,0.363,0.183,-1.6689910624545778,-7.333284578868427,-5.768822810842573
1621785456958.461,-0.075,0.363,0.183,-1.6993240710674027,-7.4756640070510745,-6.023867699587141
1621785456963.349,-0.065,0.36,0.182,-1.7296646564920906,-7.618078999860834,-6.278976295402885
1621785456967.431,-0.04244401139259481,0.3583291860290811,0.17698755808724329,-1.755,-7.737,-6.492
1621785456968.235,-0.038,0.358,0.176,-1.7500078559940615,-7.770009278733144,-6.510491308919955
1621785456973.121,-0.007,0.354,0.171,-1.7196776258814797,-7.970560188048991,-6.622836957194111
1621785456978.007,0.033,0.353,0.166,-1.6893473957688976,-8.17111109736484,-6.735182605468267
1621785456982.892,0.082,0.346,0.162,-1.6590232277619696,-8.371621922553507,-6.847505799208215
1621785456983.218,0.08573631865660453,0.3458665600479784,0.1621334399520216,-1.657,-8.385,-6.855
1621785456987.777,0.138,0.344,0.164,-1.736451535545757,-8.501143699234161,-6.815418689564478
1621785456992.661,0.211,0.335,0.159,-1.8215617699388875,-8.625559387328847,-6.773018318248627
1621785456997.546,0.283,0.304,0.159,-1.9066932776359558,-8.750006173126016,-6.730607348959542
1621785456998.998,0.3038169591520424,0.29775491225438727,0.15840522973851306,-1.932,-8.787,-6.718
1621785457002.429,0.353,0.283,0.157,-2.0855205335313958,-8.690886578157398,-6.668856033175502
1621785457007.313,0.417,0.251,0.152,-2.3040630705907836,-8.554065329743448,-6.598897657289636
1621785457012.196,0.456,0.229,0.154,-2.5225619100671555,-8.417271438739826,-6.528953269581902
1621785457014.776,0.4575849707514624,0.21790520473976302,0.16139653017349134,-2.638,-8.345,-6.492
1621785457017.079,0.459,0.208,0.168,-2.6580049220672683,-8.191823625922888,-6.668101722723544
1621785457021.961,0.41,0.201,0.204,-2.700406705155788,-7.867155958332689,-7.041361214729054
1621785457026.843,0.312,0.18,0.23,-2.7428106087575648,-7.542472054111784,-7.4146393734425065
1621785457030.549,0.21938810821623245,0.17696354453167973,0.24366404960744112,-2.775,-7.296,-7.698
1621785457031.725,0.19,0.176,0.248,-2.7705998916240904,-7.284291237033597,-7.842084904784023
1621785457036.606,0.045,0.148,0.251,-2.752338117355628,-7.23569634618362,-8.44008063167673
1621785457041.486,-0.084,0.096,0.251,-2.7340790834494504,-7.187108747484131,-9.037986623316304
1621785457046.318,-0.13745978391356545,0.0009603841536614671,0.2361500600240096,-2.716,-7.139,-9.63
1621785457046.367,-0.138,0.0,0.236,-2.719069774645706,-7.140124448230465,-9.635467358475955
1621785457051.247,-0.115,-0.103,0.208,-3.02587840161078,-7.252507426624332,-10.181902501355223
1621785457056.127,-0.023,-0.171,0.187,-3.3326716797026252,-7.364884782777047,-10.728310307442113
1621785457061.006,0.086,-0.244,0.148,-3.639418911174785,-7.477245272206304,-11.274636103151863
1621785457062.081,0.10736737042225335,-0.2572169301580948,0.13808730238142886,-3.707,-7.502,-11.395
1621785457065.886,0.183,-0.304,0.103,-3.254802503369324,-7.32672216628197,-11.593937926974734
1621785457070.764,0.253,-0.339,0.063,-2.6750844422412587,-7.102015646058278,-11.84897673229749
1621785457075.643,0.29,-0.367,0.056,-2.095221306523322,-6.877252892971667,-12.104079361145105
1621785457077.841,0.3134359231077293,-0.3863797056467761,0.056,-1.834,-6.776,-12.219
1621785457080.52,0.342,-0.41,0.056,-1.7205765094222665,-6.711040819489214,-11.830435268410612
1621785457085.397,0.435,-0.463,0.04,-1.514092626456732,-6.592784682618398,-11.12306544445822
1621785457090.275,0.569,-0.475,0.033,-1.3075673970989339,-6.4745048661046365,-10.415553976568312
1621785457093.595,0.6759018125375525,-0.45457290206288803,0.037766322851992794,-1.167,-6.394,-9.934
1621785457095.151,0.726,-0.445,0.04,-1.0449133911965283,-6.257393381897086,-9.614362244265344
1621785457100.028,0.855,-0.393,0.061,-0.6622169869807812,-5.829182114073156,-8.612415995040298
1621785457104.903,0.941,-0.312,0.087,-0.2796929944203349,-5.4011637631742095,-7.6109211407315565
1621785457109.347,0.9756322851992789,-0.20719176847586623,0.11707540556779492,0.069,-5.011,-6.698
1621785457109.779,0.979,-0.197,0.12,0.11688604651162791,-4.945331627906977,-6.660047906976745
1621785457114.654,0.953,-0.077,0.155,0.6571055813953488,-4.20450334883721,-6.231896837209303
1621785457119.529,0.876,0.059,0.185,1.19732511627907,-3.463675069767442,-5.80374576744186
1621785457124.404,0.731,0.195,0.22,1.7375446511627908,-2.722846790697674,-5.375594697674419
1621785457125.094,0.7060813627254509,0.21156523046092185,0.22835340681362726,1.814,-2.618,-5.315
1621785457129.277,0.555,0.312,0.279,1.957494160889592,-2.383626203880333,-5.424480730160208
1621785457134.151,0.354,0.412,0.325,2.1246806867352164,-2.11055487833248,-5.552037857286869
1621785457139.024,0.152,0.48,0.339,2.2918420881217143,-1.8375245894012004,-5.679575815381752
1621785457140.836,0.08060601202404809,0.4922708416833667,0.337512625250501,2.354,-1.736,-5.727
1621785457143.897,-0.04,0.513,0.335,2.256561961934013,-2.0526250019389765,-5.892897497944685
1621785457148.769,-0.209,0.508,0.326,2.101475545627996,-2.5565784665022413,-6.1569468255076245
1621785457153.642,-0.346,0.492,0.302,1.9463580436502397,-3.060632943986846,-6.421049079373944
1621785457156.575,-0.40561039546889877,0.49079574958648686,0.28815112024459927,1.853,-3.364,-6.58
1621785457158.513,-0.445,0.49,0.279,1.739566569952367,-3.6683365967944637,-6.722499976726506
1621785457163.385,-0.504,0.483,0.258,1.454396813082807,-4.433433740360894,-7.080742548602815
1621785457168.256,-0.52,0.487,0.25,1.169284215915967,-5.198377527113621,-7.438913313990473
1621785457172.31,-0.5116771089168463,0.49449060197483835,0.23335421783369256,0.932,-5.835,-7.737
1621785457173.127,-0.51,0.496,0.23,0.8438763075394978,-5.89357603128783,-7.787423161684825
1621785457177.997,-0.464,0.506,0.208,0.31850529223701773,-6.242791414470621,-8.088033212279232
1621785457182.866,-0.4,0.513,0.171,-0.20673403793028522,-6.591919266225906,-8.388567914455102
1621785457187.737,-0.321,0.527,0.126,-0.7322104013409071,-6.941204674550703,-8.689238243784338
1621785457188.041,-0.31619208586187875,0.5273122022167611,0.12181649029540098,-0.765,-6.963,-8.708
1621785457192.605,-0.244,0.532,0.059,-1.0182960111749184,-6.968512742511253,-8.80200676703399
1621785457197.475,-0.154,0.548,-0.005,-1.2885832065807854,-6.974395281701071,-8.902319540586683
1621785457202.343,-0.061,0.569,-0.065,-1.558748455688344,-6.980275166847742,-9.002587055719385
1621785457203.771,-0.04104855781289189,0.5766284926009531,-0.08377782794080763,-1.638,-6.982,-9.032
1621785457207.21,0.007,0.595,-0.129,-1.6314388100487531,-6.898454181287458,-8.869063782877372
1621785457212.078,0.056,0.618,-0.188,-1.6221513213054684,-6.780193491289632,-8.6384244790858
1621785457216.945,0.099,0.634,-0.248,-1.6128652299475206,-6.661950594665093,-8.407819877030091
1621785457219.495,0.11314388886102614,0.6455246501830584,-0.27524008225086516,-1.608,-6.6,-8.287
1621785457221.813,0.126,0.656,-0.3,-1.5762943460702081,-6.552220316868592,-8.191440633737185
1621785457226.679,0.141,0.67,-0.347,-1.5097338459148804,-6.451915191053121,-7.990830382106244
1621785457231.546,0.14,0.674,-0.38,-1.4431599875737806,-6.351589934762348,-7.790179869524698
1621785457235.213,0.13547749284889848,0.6724924976162996,-0.41090379886586037,-1.393,-6.276,-7.639
1621785457236.411,0.134,0.672,-0.421,-1.382481243301179,-6.231180949718067,-7.650204762570484
1621785457241.276,0.138,0.677,-0.445,-1.339765273311897,-6.049173773241996,-7.695706556689501
1621785457246.141,0.157,0.668,-0.461,-1.2970471596998927,-5.867157463069108,-7.741210634232723
1621785457250.93,0.1776711998795604,0.6424070858634015,-0.4629686857028153,-1.255,-5.688,-7.786
1621785457251.006,0.178,0.642,-0.463,-1.2558580351455073,-5.685862183620515,-7.784909277357405
1621785457255.871,0.22,0.616,-0.469,-1.310659529839499,-5.549322866332095,-7.715246360373518
1621785457260.734,0.274,0.559,-0.466,-1.365436273519678,-5.412845216823853,-7.645614906542782
1621785457265.598,0.33,0.504,-0.471,-1.4202267677630862,-5.276333307437734,-7.575965973182517
1621785457266.643,0.3345133289823786,0.49282413775791956,-0.4725044429941262,-1.432,-5.247,-7.561
1621785457270.461,0.351,0.452,-0.478,-1.3437828992354075,-5.134966712252129,-7.3799483744638525
1621785457275.323,0.37,0.398,-0.473,-1.231438381923292,-4.992292270156026,-7.14937904829987
1621785457280.186,0.393,0.346,-0.466,-1.1190712998072978,-4.849589171380617,-6.918763411450239
1621785457282.353,0.4077079086115993,0.32772653778558875,-0.46198875219683655,-1.069,-4.786,-6.816
1621785457285.048,0.426,0.305,-0.457,-0.986463175402599,-4.666398821737237,-6.640973885469129
1621785457289.91,0.44,0.26,-0.464,-0.8375694055835354,-4.450642153205248,-6.325232419324753
1621785457294.771,0.41,0.227,-0.464,-0.6886980662811664,-4.234917987937574,-6.009538518933035
1621785457298.059,0.3782087288433529,0.20535487921249562,-0.4700876902214856,-0.588,-4.089,-5.796
1621785457299.632,0.363,0.195,-0.473,-0.4927358789782179,-4.062554439590168,-5.6869120633094425
1621785457304.492,0.284,0.169,-0.48,-0.1984121799157325,-3.98084943795768,-5.349878931575429
1621785457309.352,0.188,0.15,-0.476,0.0959263048243909,-3.8991403317837654,-5.012828868608032
1621785457313.762,0.07745643340857788,0.13550248306997742,-0.46875124153498876,0.363,-3.825,-4.707
1621785457314.219,0.066,0.134,-0.468,0.3888488372093023,-3.837499273255814,-4.697845203488372
1621785457319.211,-0.073,0.117,-0.449,0.6711838662790697,-3.9740231195494187,-4.597851547359496
1621785457324.204,-0.227,0.122,-0.426,0.9535879360465116,-4.11058035065407,-4.49783343931686
1621785457329.198,-0.361,0.134,-0.398,1.236033430232558,-4.247157612645349,-4.397800660125969
1621785457329.887,-0.3764577199589182,0.1362082457084169,-0.3934454932263902,1.275,-4.266,-4.384
1621785457334.19,-0.473,0.15,-0.365,1.3768924890657868,-4.459649076077909,-4.629662257669083
1621785457339.184,-0.552,0.162,-0.344,1.4951513688575448,-4.684402863326119,-4.914783797690573
1621785457344.177,-0.6,0.187,-0.314,1.613381342978646,-4.909101714666223,-5.199835646291447
1621785457346.019,-0.611803471033977,0.18958200928868246,-0.3077294060131997,1.657,-4.992,-5.305
1621785457349.171,-0.632,0.194,-0.297,1.6800563627557816,-5.13756771400896,-5.536931377890785
1621785457354.163,-0.641,0.209,-0.284,1.7165750696210194,-5.368130736166606,-5.904284810509747
1621785457359.156,-0.628,0.229,-0.264,1.7530991342777575,-5.5987275850587235,-6.271692138878799
1621785457362.15,-0.6028205328770472,0.2361941334637008,-0.25320879980444877,1.775,-5.737,-6.492
1621785457364.15,-0.586,0.241,-0.246,1.7494608260060232,-5.81597307686487,-6.574692374048459
1621785457369.143,-0.522,0.248,-0.236,1.6857001831196936,-6.0131358415182286,-6.781140669219244
1621785457374.137,-0.45,0.251,-0.234,1.6219301875085128,-6.210327526976103,-6.987619247241854
1621785457378.282,-0.3835856437338028,0.25266035890665495,-0.22818874382670776,1.569,-6.374,-7.159
1621785457379.13,-0.37,0.253,-0.227,1.552496193834466,-6.381253265130075,-7.155898966357431
1621785457384.124,-0.29,0.25,-0.222,1.455288632958518,-6.423975059400396,-7.137633851415773
1621785457389.117,-0.22,0.225,-0.215,1.358104832241173,-6.466686411308019,-7.119373200962513
1621785457394.11,-0.15,0.201,-0.206,1.2609162794921076,-6.5093998516881815,-7.101111657611574
1621785457394.414,-0.146287215839648,0.19972182840381325,-0.206,1.255,-6.512,-7.1
1621785457399.104,-0.089,0.18,-0.206,1.101196724785083,-6.420706562537838,-6.937474421842838
1621785457404.097,-0.037,0.152,-0.202,0.937457485773096,-6.323515407434314,-6.764449403680833
1621785457409.092,-0.005,0.126,-0.201,0.7736461890059328,-6.226281480808815,-6.591348241312508
1621785457410.545,0.0005287760989682649,0.11436047137059312,-0.20129098821573518,0.726,-6.198,-6.541
1621785457414.085,0.014,0.086,-0.202,0.6419592015859324,-6.11834775502792,-6.373137830843964
1621785457419.079,0.024,0.033,-0.204,0.5233979207336451,-6.0059776637762745,-6.136324828619422
1621785457424.072,0.019,-0.012,-0.208,0.40486561946701777,-5.893635038815999,-5.899569709901485
1621785457426.678,0.010649112512835558,-0.041228106205075554,-0.20852193046794776,0.343,-5.835,-5.776
1621785457429.065,0.003,-0.068,-0.209,0.3342701393828412,-5.81324933032674,-5.662807739455483
1621785457434.06,-0.028,-0.112,-0.216,0.3160014528504623,-5.767732433373186,-5.42593409204413
1621785457439.053,-0.066,-0.154,-0.218,0.29774080239720324,-5.722235558515066,-5.189164641251873
1621785457442.81,-0.09533960696128274,-0.17882582127493157,-0.218,0.284,-5.688,-5.011
1621785457444.047,-0.105,-0.187,-0.218,0.2900572444578951,-5.712765695694938,-4.9847008246954685
1621785457449.041,-0.171,-0.218,-0.209,0.3145097677233865,-5.812742468033593,-4.878533540137702
1621785457454.034,-0.225,-0.248,-0.204,0.3389575092683665,-5.912699689793448,-4.77238701672089
1621785457458.944,-0.2820134897360703,-0.2666768328445748,-0.19515307917888564,0.363,-6.011,-4.668
1621785457459.029,-0.283,-0.267,-0.195,0.3608303976756855,-6.013790993281279,-4.670322317051026
1621785457464.022,-0.314,-0.283,-0.187,0.23332885418558197,-6.177809969130198,-4.806798483747957
1621785457469.017,-0.351,-0.3,-0.188,0.10577120029053932,-6.341901125839841,-4.943334710368622
1621785457474.01,-0.375,-0.323,-0.204,-0.021730343199564184,-6.50592010168876,-5.079810877065553
1621785457475.078,-0.3775655212864754,-0.32941380321618846,-0.20784828192971308,-0.049,-6.541,-5.109
1621785457479.005,-0.387,-0.353,-0.222,-0.10619868351365665,-6.715273435726716,-5.333413558296134
1621785457483.999,-0.4,-0.358,-0.237,-0.17894075811454946,-6.936904607702202,-5.6188101233260195
1621785457488.992,-0.384,-0.384,-0.246,-0.25166505258379357,-7.15848160702126,-5.9041369297117345
1621785457491.212,-0.3684450146627566,-0.39422184750733136,-0.24822214076246335,-0.284,-7.257,-6.031
1621785457493.987,-0.349,-0.407,-0.251,-0.1962876855340202,-7.309283418818937,-6.300844355680631
1621785457498.981,-0.291,-0.408,-0.262,-0.03844873133312149,-7.403367815048492,-6.786431255957514
1621785457503.976,-0.223,-0.414,-0.257,0.11942880486587082,-7.49747520917495,-7.272136852616767
1621785457507.348,-0.1669483154857953,-0.40657146349811746,-0.252272749498802,0.226,-7.561,-7.6
1621785457508.969,-0.14,-0.403,-0.25,0.28707779357923086,-7.524534146267663,-7.711306242246361
1621785457513.964,-0.061,-0.377,-0.232,0.47527834427668003,-7.412170988532179,-8.054276982662108
1621785457518.958,0.0,-0.367,-0.22,0.6634329026596871,-7.299835290023904,-8.397163908136404
1621785457523.485,0.05347460775208954,-0.367,-0.2118428564445965,0.834,-7.198,-8.708
1621785457523.953,0.059,-0.367,-0.211,0.8686782082324455,-7.205103813559322,-8.701476089588377
1621785457528.947,0.112,-0.346,-0.185,1.2389169491525422,-7.280947033898305,-8.631824152542373
1621785457533.941,0.178,-0.319,-0.145,1.6091375907990313,-7.356786546610169,-8.56217562046005
1621785457538.936,0.234,-0.283,-0.099,1.979448728813559,-7.432644597457627,-8.492510063559322
1621785457539.618,0.23850593986800295,-0.2741246638963578,-0.09312862380835982,2.03,-7.443,-8.483
1621785457543.93,0.267,-0.218,-0.056,2.069285115526033,-7.749798045060448,-8.16577937326938
1621785457548.925,0.269,-0.136,-0.017,2.1147937478249026,-8.105198792537335,-7.798304907019323
1621785457553.919,0.244,-0.045,-0.007,2.1602912587571304,-8.460512687436637,-7.430920243913511
1621785457555.753,0.23518654673445444,-0.014887368009386004,-0.017282362143136488,2.177,-8.591,-7.296
1621785457558.913,0.22,0.037,-0.035,1.8773023561992102,-8.806077132609978,-7.465045141568681
1621785457563.908,0.204,0.086,-0.082,1.4036068915421982,-9.146023289599128,-7.732234152025545
1621785457568.902,0.197,0.122,-0.129,0.929980887093113,-9.485919598674354,-7.999383983293232
1621785457571.886,0.20655823842807566,0.14589559607018915,-0.16066166479300065,0.647,-9.689,-8.159
1621785457573.897,0.213,0.162,-0.182,0.40251685359245637,-9.696355688749641,-8.480530869242761
1621785457578.892,0.229,0.201,-0.222,-0.20475826787146778,-9.714626587355642,-9.279185911698375
1621785457583.886,0.241,0.202,-0.262,-0.8118849838804887,-9.73289302093266,-10.077645779412432
1621785457588.016,0.24265366568914956,0.18050234604105572,-0.31491730205278595,-1.314,-9.748,-10.738
1621785457588.881,0.243,0.176,-0.326,-1.2977024573296212,-9.77534127224307,-10.782174918290764
1621785457593.876,0.264,0.161,-0.387,-1.2035925432756325,-9.933223035952063,-11.037262316910786
1621785457598.871,0.314,0.169,-0.435,-1.1094780292942743,-10.091112516644474,-11.292362183754992
1621785457603.865,0.405,0.206,-0.469,-1.015386514949764,-10.248963412419803,-11.54739970947827
1621785457604.151,0.41249760508308897,0.20868998044965786,-0.4701446725317693,-1.01,-10.258,-11.562
1621785457608.86,0.536,0.253,-0.489,-0.9271106235530875,-10.040269454826067,-11.567837280031473
1621785457613.855,0.689,0.283,-0.518,-0.8391934815173479,-9.809332173281485,-11.574028628062159
1621785457618.85,0.853,0.232,-0.583,-0.7512720422460621,-9.578383603928037,-11.580220278715066
1621785457620.286,0.8992799257050687,0.19549347475438683,-0.6126076543330563,-0.726,-9.512,-11.582
1621785457623.845,1.014,0.105,-0.686,-0.6609334281477894,-9.014626713468697,-10.84222616273792
1621785457628.84,1.192,-0.047,-0.791,-0.5696134898780525,-8.316570914152571,-9.803964898477926
1621785457633.835,1.346,-0.236,-0.864,-0.47829801494840685,-7.618549232910703,-8.765754380125276
1621785457636.422,1.4071166177908114,-0.33337223851417397,-0.886789247311828,-0.431,-7.257,-8.228
1621785457638.83,1.464,-0.424,-0.908,-0.1441989954158282,-6.708168525046522,-7.903147873579739
1621785457643.826,1.541,-0.552,-0.941,0.45083385025038963,-5.5694948484802635,-7.229169463061863
1621785457648.82,1.555,-0.656,-0.941,1.045663146587591,-4.431210690349033,-6.5554216076372605
1621785457652.559,1.5078400703846717,-0.6994170780585561,-0.9357600078205192,1.491,-3.579,-6.051
1621785457653.815,1.492,-0.714,-0.934,1.3940241629219434,-3.343175933911307,-5.918144659797558
1621785457658.811,1.342,-0.75,-0.913,1.0082322636285235,-2.4050142526440017,-5.389615950251918
1621785457663.806,1.119,-0.775,-0.876,0.6225346254520148,-1.4670817938359582,-4.8612163769234265
1621785457668.695,0.8283,-0.7798939393939395,-0.834890909090909,0.245,-0.549,-4.344
1621785457668.801,0.822,-0.78,-0.834,0.23476281905799404,-0.5506744587172621,-4.341235501490324
1621785457673.796,0.485,-0.782,-0.829,-0.247823551662052,-0.6296093686169488,-4.210915512989273
1621785457678.791,0.176,-0.749,-0.841,-0.7304335103566189,-0.708548136716445,-4.080589154675987
1621785457683.787,-0.089,-0.668,-0.836,-1.2131378209492687,-0.7875023376151786,-3.950237317113764
1621785457684.831,-0.13539874871694607,-0.6458456425045213,-0.8305659123124297,-1.314,-0.804,-3.923
