time,gyro_x,gyro_y,gyro_z,acc_x,acc_y,acc_z
1621786017147.336,,,,1.294,-3.305,-9.493
1621786017165.094,,,,1.353,-3.501,-9.326
1621786017181.378,1.203,-0.126,0.372,1.1125382094280876,-3.7961121975200744,-9.326
1621786017182.972,1.2067302012832908,-0.12399143007822801,0.37085224575898745,1.089,-3.825,-9.326
1621786017186.933,1.216,-0.119,0.368,1.0046965622965054,-3.9392388620577385,-9.345369980464511
1621786017192.499,1.225,-0.096,0.368,0.8862404900151942,-4.099757664966356,-9.37258704145865
1621786017198.075,1.239,-0.087,0.367,0.7675713859344475,-4.260565145430866,-9.399853049706968
1621786017200.968,1.2498720346017738,-0.08285827253265761,0.37114172746734236,0.706,-4.344,-9.414
1621786017203.663,1.26,-0.079,0.375,0.6170130083711901,-4.475397179946889,-9.440338959060702
1621786017209.263,1.29,-0.073,0.368,0.4321145006268282,-4.748416213957376,-9.4950664437944
1621786017214.874,1.323,-0.068,0.368,0.24684518016257095,-5.021982785813462,-9.549903684132483
1621786017219.079,1.3514224422442245,-0.0642602049678652,0.3620163279485843,0.108,-5.227,-9.591
1621786017220.496,1.361,-0.063,0.36,0.04316647245549886,-5.297119714442614,-9.611600581294116
1621786017226.129,1.398,-0.051,0.354,-0.21455908707357257,-5.575858868753432,-9.693491796252394
1621786017231.775,1.438,-0.045,0.34,-0.4728878530959939,-5.855250411861614,-9.775574677542492
1621786017237.307,1.4859255406397032,-0.045,0.3165262658091251,-0.726,-6.129,-9.856
1621786017237.431,1.487,-0.045,0.316,-0.7299739243807041,-6.133771412606763,-9.856
1621786017243.099,1.525,-0.052,0.3,-0.911593220338983,-6.351838118298167,-9.856
1621786017248.778,1.567,-0.051,0.278,-1.0935567144719687,-6.570318095947636,-9.856
1621786017254.469,1.604,-0.044,0.253,-1.275903520208605,-6.789258308277679,-9.856
1621786017255.658,1.6108823604984799,-0.04712834568112714,0.24862031604642199,-1.314,-6.835,-9.856
1621786017260.17,1.637,-0.059,0.232,-1.333560019827979,-6.966225449478846,-9.690854009806811
1621786017265.883,1.653,-0.068,0.222,-1.3583272956244474,-7.1323856541893305,-9.481742959727768
1621786017271.438,1.665,-0.073,0.206,-1.3824087377079928,-7.293944696015648,-9.27842242973125
1621786017273.881,1.6619230870596504,-0.07387911798295704,0.20424176403408592,-1.393,-7.365,-9.189
1621786017276.996,1.658,-0.075,0.202,-1.3640625263129305,-7.385273559409504,-9.04275312699469
1621786017282.559,1.648,-0.068,0.188,-1.312383768147434,-7.421479635489523,-8.781574253391822
1621786017288.127,1.62,-0.061,0.188,-1.2606596498852416,-7.457717490798963,-8.520166134749365
1621786017291.858,1.5965603225382357,-0.05296353915596652,0.18733029492966388,-1.226,-7.482,-8.345
1621786017293.698,1.585,-0.049,0.187,-1.2179334679058174,-7.455043487685263,-8.244934158831658
1621786017299.273,1.532,-0.023,0.187,-1.1934941339041374,-7.3733728019074976,-7.941762673747528
1621786017304.852,1.464,-0.012,0.195,-1.1690366055219876,-7.291641314655757,-7.638365486222126
1621786017309.879,1.3901942647315964,-0.0029993005770239545,0.19860027976919042,-1.147,-7.218,-7.365
1621786017310.437,1.382,-0.002,0.199,-1.1488226462519764,-7.209195691833673,-7.323789659319721
1621786017316.025,1.295,0.005,0.213,-1.1670714333977485,-7.121044770875282,-6.9111814889390395
1621786017321.617,1.197,0.023,0.232,-1.1853337747807402,-7.032828376059136,-6.4982668549575
1621786017327.213,1.1,0.03,0.248,-1.2036088730928796,-6.944550358788632,-6.0850637846457385
1621786017327.945,1.0866687875882508,0.029738603678200994,0.24956837793079403,-1.206,-6.933,-6.031
1621786017332.815,0.998,0.028,0.26,-1.298230204092637,-6.869810210023995,-5.7830809091154185
1621786017338.419,0.901,0.012,0.267,-1.4043640640586665,-6.797094591679922,-5.497788142676121
1621786017344.028,0.798,-0.003,0.274,-1.510595023051414,-6.724312447763609,-5.212234369523604
1621786017346.056,0.7644075668623614,-0.013836268754076973,0.2776120895846923,-1.549,-6.698,-5.109
1621786017349.642,0.705,-0.033,0.284,-1.533592579643102,-6.678641959038769,-5.045197477240025
1621786017355.26,0.609,-0.045,0.297,-1.509456140822721,-6.648316689751624,-4.945247865201781
1621786017360.882,0.515,-0.054,0.321,-1.4853018705539045,-6.617969016849777,-4.8452244126783475
1621786017364.211,0.4599724440201354,-0.052224917549036624,0.33579235375802813,-1.471,-6.6,-4.786
1621786017366.508,0.422,-0.051,0.346,-1.4784475241148929,-6.609845879338333,-4.8515129663666
1621786017372.139,0.337,-0.042,0.365,-1.4967034170031797,-6.633980788580474,-5.01210293940085
1621786017377.773,0.267,-0.028,0.382,-1.5149695998068127,-6.658129301439515,-5.17278342880908
1621786017382.409,0.21520733396830893,-0.012379989609489998,0.3951536929604295,-1.53,-6.678,-5.305
1621786017383.412,0.204,-0.009,0.398,-1.5731067815661297,-6.6920207006369425,-5.3659763019857625
1621786017389.055,0.15,0.0,0.408,-1.8155811165230424,-6.7708867151956325,-5.708966145693946
1621786017394.703,0.122,-0.007,0.396,-2.058275758711128,-6.849824385805277,-6.052267622972756
1621786017400.354,0.106,-0.024,0.389,-2.30110678156613,-6.928806414922657,-6.395762016271476
1621786017400.654,0.10621219838563474,-0.02532623991021712,0.3876207104933742,-2.314,-6.933,-6.414
1621786017406.01,0.11,-0.049,0.363,-2.526634847736406,-6.947351387794881,-6.56044273260083
1621786017411.671,0.115,-0.08,0.339,-2.7513756725364806,-6.962519845667063,-6.7152229149700275
1621786017417.335,0.127,-0.122,0.304,-2.9762425003003887,-6.977696807871514,-6.870089876239937
1621786017418.941,0.13011672984148864,-0.12908347691247415,0.2966331840110269,-3.04,-6.982,-6.914
1621786017423.003,0.138,-0.147,0.278,-2.900825510149715,-6.953854840428366,-6.887849379295647
1621786017428.676,0.15,-0.169,0.26,-2.7064513293196226,-6.914546686024829,-6.851326842133305
1621786017434.354,0.148,-0.176,0.257,-2.511909851350631,-6.875204699238106,-6.81477287015824
1621786017437.27,0.14646009712493016,-0.17907980575013965,0.2605931067084963,-2.412,-6.855,-6.796
1621786017440.035,0.145,-0.182,0.264,-2.3600411540210247,-6.855,-6.724068984996074
1621786017445.325,0.127,-0.187,0.281,-2.260628856036704,-6.855,-6.586444152050812
1621786017450.868,0.11,-0.194,0.291,-2.1564634132899796,-6.855,-6.442239139719762
1621786017454.99,0.09438044052863435,-0.20292546255506608,0.29546273127753303,-2.079,-6.855,-6.335
1621786017456.41,0.089,-0.206,0.297,-2.0564767300743165,-6.844134901479512,-6.317155860094089
1621786017461.953,0.075,-0.215,0.307,-1.9685523283561739,-6.801720665439422,-6.247497443239927
1621786017467.496,0.059,-0.223,0.318,-1.8806240539987726,-6.759304561259971,-6.1778359582736755
1621786017472.894,0.04731395348837209,-0.22494767441860467,0.3316337209302326,-1.795,-6.718,-6.11
1621786017473.039,0.047,-0.225,0.332,-1.7894372469635627,-6.718,-6.108089068825911
1621786017478.583,0.044,-0.216,0.344,-1.5767790046211099,-6.718,-6.0350361646151125
1621786017484.126,0.037,-0.202,0.365,-1.364158221895064,-6.718,-5.961996128627708
1621786017489.671,0.033,-0.183,0.387,-1.1514625199362043,-6.718,-5.888930356193514
1621786017490.804,0.033,-0.17870826544541812,0.3927223127394425,-1.108,-6.718,-5.874
1621786017495.215,0.033,-0.162,0.415,-1.0284562752153528,-6.67194836986152,-5.845186947988223
1621786017500.76,0.035,-0.134,0.438,-0.9284675062697635,-6.61406013520881,-5.808968105986261
1621786017506.306,0.028,-0.103,0.457,-0.8284611274670157,-6.55616170537564,-5.77274288518155
1621786017508.716,0.027130718090961122,-0.08865684850085853,0.46525817813586934,-0.785,-6.531,-5.757
1621786017511.851,0.026,-0.07,0.476,-0.8312013492333902,-6.465898098807496,-5.767150296422487
1621786017517.396,0.021,-0.044,0.489,-0.9129181192504259,-6.350751741056218,-5.7851032231686546
1621786017522.942,0.016,-0.01,0.49,-0.9946492810902896,-6.235585103918228,-5.803059311754685
1621786017526.63,0.014670305004181153,0.007286034945645002,0.4893351525020906,-1.049,-6.159,-5.815
1621786017528.489,0.014,0.016,0.489,-1.0652897687790388,-6.145719169403076,-5.806906993855
1621786017534.035,0.012,0.058,0.485,-1.1138831223686183,-6.106101658196286,-5.782765072963362
1621786017539.582,0.01,0.094,0.49,-1.1624871718011254,-6.066475426811821,-5.758617838213453
1621786017544.548,0.005523547535211268,0.12354458626760564,0.48731412852112677,-1.206,-6.031,-5.737
1621786017545.129,0.005,0.127,0.487,-1.2140806183280188,-6.028427394981284,-5.732151629003189
1621786017550.677,0.003,0.159,0.487,-1.2912693747400528,-6.003853015388881,-5.685838375155968
1621786017556.007,0.0,0.183,0.489,-1.3654249272147512,-5.980244308886732,-5.64134504367115
1621786017561.474,-0.009,0.218,0.476,-1.4414859975045058,-5.95602894773326,-5.595708401497296
1621786017562.158,-0.008249329998213328,0.21975156333750223,0.47512421833124885,-1.451,-5.953,-5.59
1621786017566.94,-0.003,0.232,0.469,-1.5493713024710147,-5.937011275906915,-5.579431182379147
1621786017572.405,0.005,0.248,0.457,-1.6617949306843023,-5.918738564985197,-5.567352610752926
1621786017577.867,0.014,0.255,0.447,-1.774153269321232,-5.900476465867899,-5.555281053709289
1621786017579.804,0.016482922031473536,0.2581923283261803,0.4413247496423462,-1.814,-5.894,-5.551
1621786017583.328,0.021,0.264,0.431,-1.857171884736281,-5.8744127559992805,-5.527415359264439
1621786017588.788,0.023,0.278,0.4,-1.9240652754891507,-5.844062976861404,-5.490871747649446
1621786017594.246,0.021,0.281,0.377,-1.9909317473725021,-5.813725410914328,-5.45434284171317
1621786017597.435,0.01574036955840902,0.289181647353586,0.371740369558409,-2.03,-5.796,-5.433
1621786017599.703,0.012,0.295,0.368,-1.9945973944979556,-5.818657667521308,-5.425404531910471
1621786017605.159,-0.002,0.312,0.368,-1.9094238098537868,-5.873168761693576,-5.407130926477722
1621786017610.612,-0.024,0.332,0.368,-1.824295960085926,-5.927650585545008,-5.388867133254799
1621786017615.051,-0.05412556535757467,0.34014204469123643,0.3671857955308764,-1.755,-5.972,-5.374
1621786017616.064,-0.061,0.342,0.367,-1.7505111104946318,-5.977639886814437,-5.387524218381557
1621786017621.516,-0.093,0.367,0.361,-1.7263496546175825,-6.007996587788166,-5.460318348267539
1621786017626.965,-0.129,0.396,0.358,-1.702202263711266,-6.03833561738841,-5.533070102921186
1621786017632.412,-0.159,0.405,0.349,-1.678063528171554,-6.0686637722972785,-5.60579578050878
1621786017632.652,-0.16014579037030396,0.405,0.34891186227920734,-1.677,-6.07,-5.609
1621786017637.858,-0.185,0.405,0.347,-1.6829207530404844,-6.096347351030155,-5.751394110623647
1621786017643.303,-0.206,0.398,0.335,-1.6891136224801466,-6.123905620036653,-5.900332620647526
1621786017648.746,-0.216,0.4,0.319,-1.6953042705614483,-6.151454003998445,-6.049217707002832
1621786017650.237,-0.2170959174517721,0.3975341857335128,0.31516428891879766,-1.697,-6.159,-6.09
1621786017654.188,-0.22,0.391,0.305,-1.668185800331066,-6.159,-6.14965439775209
1621786017659.629,-0.227,0.377,0.291,-1.6285050703167383,-6.159,-6.231805909109878
1621786017665.067,-0.229,0.358,0.286,-1.588845706575415,-6.159,-6.313913185605586
1621786017667.788,-0.2340400180872711,0.3605200090436355,0.2809599819127289,-1.569,-6.159,-6.355
1621786017670.466,-0.239,0.363,0.276,-1.535805777771551,-6.155926460904773,-6.366986802471384
1621786017675.863,-0.244,0.363,0.272,-1.4689089342505288,-6.149732308726901,-6.391143995965087
1621786017681.256,-0.262,0.353,0.272,-1.4020605096879948,-6.143542639785926,-6.4152837048348905
1621786017685.214,-0.2796177496038035,0.351531854199683,0.2764044374009509,-1.353,-6.139,-6.433
1621786017686.648,-0.286,0.351,0.278,-1.3497867484077326,-6.1406478213293685,-6.4548336326141245
1621786017692.037,-0.305,0.349,0.278,-1.3377095620212676,-6.146841250245504,-6.536896565752925
1621786017697.425,-0.33,0.335,0.281,-1.3256351112482816,-6.153033276282932,-6.618940910748857
1621786017702.617,-0.3502505781526323,0.3330713735092731,0.28292862649072686,-1.314,-6.159,-6.698
1621786017702.809,-0.351,0.333,0.283,-1.3155145457865682,-6.1600833977159395,-6.704179789012348
1621786017708.192,-0.365,0.314,0.293,-1.357944921265926,-6.1904350531683265,-6.877308109398924
1621786017713.573,-0.372,0.297,0.291,-1.4003618255629382,-6.220777072300495,-7.050381463428339
1621786017718.95,-0.363,0.281,0.288,-1.4427460141313968,-6.2510956889407066,-7.223321327733217
1621786017719.997,-0.35832534059945503,0.2804156675749319,0.2885843324250681,-1.451,-6.257,-7.257
1621786017724.326,-0.339,0.278,0.291,-1.4118438546150167,-6.291168101386896,-7.352271640363463
1621786017729.7,-0.316,0.272,0.288,-1.3632337890679946,-6.333585801896081,-7.4705458125861535
1621786017735.071,-0.29,0.267,0.295,-1.3146502236475652,-6.375980378090978,-7.588755506793822
1621786017737.354,-0.28021995361738894,0.2687008776317585,0.29712609703969806,-1.294,-6.394,-7.639
1621786017740.44,-0.267,0.271,0.3,-1.3011223305347384,-6.372989124922523,-7.672296895249901
1621786017745.807,-0.257,0.258,0.307,-1.3135092128247028,-6.336447822167127,-7.730205569955485
1621786017751.171,-0.246,0.239,0.311,-1.3258893334084634,-6.299926466445033,-7.788082633684566
1621786017754.685,-0.22896025133178527,0.22392637617811773,0.31296612484633246,-1.334,-6.276,-7.826
1621786017756.533,-0.22,0.216,0.314,-1.3684875368533906,-6.243541141785044,-7.868922569086882
1621786017761.894,-0.183,0.199,0.307,-1.4685419458590192,-6.149372286250335,-7.993448489892649
1621786017767.251,-0.145,0.188,0.305,-1.568518895738408,-6.055276333422675,-8.117878006460804
1621786017771.992,-0.10958648673292605,0.17471993252484724,0.2926052703565241,-1.657,-5.972,-8.228
1621786017772.606,-0.105,0.173,0.291,-1.6612082500248153,-5.961158406715731,-8.237094099629898
1621786017777.938,-0.056,0.152,0.278,-1.697752258192595,-5.867011131436026,-8.316066320670439
1621786017783.269,-0.017,0.129,0.26,-1.734289573318586,-5.772881099247033,-8.395024077934233
1621786017788.596,-0.007,0.103,0.253,-1.7707984430169736,-5.678824350193559,-8.473920364146851
1621786017789.209,-0.008612051176227818,0.09954560462236896,0.2535757325629385,-1.775,-5.668,-8.483
1621786017793.92,-0.021,0.073,0.258,-1.8341985910291736,-5.619764111013266,-8.488207283470159
1621786017799.243,-0.042,0.04,0.258,-1.9010884583700254,-5.565261256142942,-8.49409111439366
1621786017804.562,-0.063,-0.007,0.264,-1.9679292389853138,-5.510798397863819,-8.49997062750334
1621786017806.398,-0.06887014418220222,-0.023229222150794378,0.2626187896041877,-1.991,-5.492,-8.502
1621786017809.879,-0.08,-0.054,0.26,-2.1619743100995734,-5.438253627311522,-8.490236642958749
1621786017815.193,-0.101,-0.124,0.243,-2.42299253200569,-5.356201635846372,-8.472278093883357
1621786017820.504,-0.115,-0.188,0.209,-2.6838428733997155,-5.274202418207682,-8.454331095305832
1621786017823.561,-0.1190308102639566,-0.22254980226248505,0.18193598822772003,-2.834,-5.227,-8.444
1621786017825.813,-0.122,-0.248,0.162,-2.881712384399447,-5.174161491656811,-8.367896775296751
1621786017831.12,-0.122,-0.305,0.099,-2.9941551220485345,-5.0496381293016235,-8.188545962352338
1621786017836.423,-0.113,-0.353,0.04,-3.106509924904171,-4.9252121492796785,-8.00933540903715
1621786017840.694,-0.09768831767090473,-0.37234107241569925,-0.005129168969964987,-3.197,-4.825,-7.865
1621786017841.723,-0.094,-0.377,-0.016,-3.1297636363636365,-4.836186013986014,-7.8007104895104895
1621786017847.022,-0.082,-0.377,-0.052,-2.7834500927643786,-4.893801684030255,-7.469575267589554
1621786017852.317,-0.072,-0.354,-0.072,-2.4374077922077926,-4.951372227772228,-7.138699400599401
1621786017857.61,-0.068,-0.318,-0.08,-2.0914771799628946,-5.008924190095619,-6.807930326816042
1621786017857.801,-0.068,-0.3160514051035947,-0.07981957454662914,-2.079,-5.011,-6.796
1621786017862.901,-0.068,-0.264,-0.075,-1.8183018398593302,-4.961129905219368,-6.538288073079728
1621786017868.188,-0.077,-0.204,-0.073,-1.5480313934039542,-4.909428685794342,-6.271113508027048
1621786017873.473,-0.101,-0.141,-0.068,-1.2778732684307585,-4.857748952838416,-6.004049977841632
1621786017874.879,-0.10658996995608967,-0.12635960249595563,-0.06613667668130345,-1.206,-4.844,-5.933
1621786017878.755,-0.122,-0.086,-0.061,-1.0252986711392078,-4.826248484066572,-5.8815661205005805
1621786017884.027,-0.157,-0.017,-0.059,-0.7795034332487564,-4.8021023523846385,-5.811604251781132
1621786017889.295,-0.188,0.045,-0.051,-0.5339130721483966,-4.7779763471380035,-5.741700698117805
1621786017891.91,-0.20041653528702588,0.07181971621997589,-0.046530047296670686,-0.412,-4.766,-5.707
1621786017894.56,-0.213,0.099,-0.042,-0.31564277506463656,-4.843958919850618,-5.760635736857225
1621786017899.824,-0.227,0.159,-0.024,-0.12425096236713584,-4.998806664751508,-5.867170985349038
1621786017905.084,-0.232,0.218,-0.009,0.06699882217753522,-5.153539500143637,-5.973627176098822
1621786017908.907,-0.2298183718014211,0.2449067477824734,0.0048169785909998614,0.206,-5.266,-6.051
1621786017910.341,-0.229,0.255,0.01,0.2192714242541985,-5.304968959115831,-6.112285239390407
1621786017915.596,-0.22,0.29,0.033,0.2679016822806487,-5.447762264531077,-6.3368517175380275
1621786017920.847,-0.215,0.339,0.058,0.31649579070068645,-5.590449423649787,-6.561251262789794
1621786017925.872,-0.19968241860465116,0.3571896279069767,0.08289106976744187,0.363,-5.727,-6.776
1621786017926.096,-0.199,0.358,0.084,0.35806896849996395,-5.731018856772148,-6.785082087508109
1621786017931.342,-0.176,0.374,0.106,0.2425204353780725,-5.825192460174439,-6.997902039933684
1621786017936.586,-0.155,0.363,0.122,0.1270202984213941,-5.919326620053341,-7.210632855186333
1621786017941.826,-0.12,0.36,0.143,0.011606199091760971,-6.013390658112881,-7.42320520435378
1621786017942.807,-0.11381874970863828,0.35831420446599227,0.14468579553400773,-0.01,-6.031,-7.463
1621786017947.063,-0.087,0.351,0.152,-0.10366759586914133,-6.068013808045063,-7.574041424135192
1621786017952.299,-0.045,0.34,0.161,-0.21890243374016036,-6.113550155268289,-7.710650465804868
1621786017957.531,0.002,0.332,0.164,-0.33404593052646786,-6.1590504080306205,-7.847151224091861
1621786017959.71,0.022831388292409674,0.32741709457566986,0.16316674446830362,-0.382,-6.178,-7.904
1621786017962.761,0.052,0.321,0.162,-0.4299068539520889,-6.188666054276125,-7.918281665895151
1621786017967.987,0.106,0.309,0.162,-0.5119660774215947,-6.206935843652355,-7.942744604212475
1621786017973.21,0.152,0.307,0.157,-0.5939754658025692,-6.2251945376692515,-7.967192686031709
1621786017976.587,0.17980756463602787,0.3037665622516247,0.15247318715227454,-0.647,-6.237,-7.983
1621786017978.432,0.195,0.302,0.15,-0.6577303312179431,-6.225174737025124,-7.983
1621786017983.65,0.234,0.311,0.141,-0.6880782694369585,-6.191730070416413,-7.983
1621786017988.866,0.264,0.3,0.138,-0.7184148483004433,-6.158297922281144,-7.983
1621786017993.437,0.2894340921866217,0.3096474142776841,0.1301066610455312,-0.745,-6.129,-7.983
1621786017994.078,0.293,0.311,0.129,-0.7472479860657523,-6.120046157195732,-7.9792660570433265
1621786017999.29,0.314,0.312,0.126,-0.7655307496915597,-6.047224980042093,-7.948898076783511
1621786018004.497,0.337,0.319,0.115,-0.783795529428841,-5.974475433630888,-7.918559968067348
1621786018009.701,0.354,0.316,0.108,-0.8020491762827492,-5.901770230060237,-7.888240351259162
1621786018010.257,0.35442755255255254,0.3162137762762763,0.10671734234234234,-0.804,-5.894,-7.885
1621786018014.904,0.358,0.318,0.096,-0.7768765776769616,-5.8206560518815795,-7.838779474204618
1621786018020.102,0.347,0.318,0.082,-0.746536933635782,-5.738615177688594,-7.787078244052812
1621786018025.298,0.333,0.309,0.082,-0.7162086895829698,-5.656605129994765,-7.735396440411796
1621786018027.047,0.3242445238319075,0.309,0.08098975274983548,-0.706,-5.629,-7.718
1621786018030.492,0.307,0.309,0.079,-0.6899698792548465,-5.596734244141166,-7.6777191837685885
1621786018035.683,0.279,0.297,0.082,-0.6658133620752436,-5.54811151084376,-7.617018191881382
1621786018040.87,0.251,0.295,0.08,-0.6416761582941288,-5.499527651951003,-7.556365731098067
1621786018043.809,0.23116430488206768,0.28989939268396026,0.07943326585377336,-0.628,-5.472,-7.522
1621786018046.056,0.216,0.286,0.079,-0.6226292783986461,-5.46676354643868,-7.524551092760643
1621786018051.237,0.201,0.288,0.079,-0.610244463248811,-5.454688351667591,-7.530433879956815
1621786018056.416,0.185,0.29,0.08,-0.5978649003530682,-5.442618277844241,-7.536314172332293
1621786018060.543,0.185,0.284420859069263,0.08159404026592484,-0.588,-5.433,-7.541
1621786018061.594,0.185,0.283,0.082,-0.5868046559887765,-5.417586353539487,-7.543516513707839
1621786018066.767,0.187,0.279,0.086,-0.5809212310749985,-5.341721137546034,-7.555902671421056
1621786018071.937,0.197,0.276,0.08,-0.5750414157947039,-5.265902466826445,-7.568281229905887
1621786018077.106,0.204,0.279,0.075,-0.5691627111708657,-5.190098117729584,-7.580657450166599
1621786018077.249,0.20394460200415956,0.27905539799584045,0.07505539799584042,-0.569,-5.188,-7.581
1621786018082.271,0.202,0.281,0.077,-0.471474757821417,-5.105223945681758,-7.533742398080132
1621786018087.433,0.199,0.272,0.073,-0.37122810149550756,-5.020138049108842,-7.485166086218502
1621786018092.6,0.195,0.264,0.079,-0.2708866223770084,-4.934971670227399,-7.436543826275279
1621786018093.933,0.19164349553128104,0.26219265143992054,0.0802909632571996,-0.245,-4.913,-7.424
1621786018097.763,0.182,0.257,0.084,-0.1503394457788974,-4.901741827289238,-7.399186068310973
1621786018102.924,0.166,0.257,0.094,-0.02277368328548829,-4.886570171070361,-7.365746499502022
1621786018108.082,0.145,0.258,0.103,0.10471363290175173,-4.871407844630617,-7.33232749428789
1621786018110.602,0.13375652379824768,0.2609330807482832,0.10739962112242482,0.167,-4.864,-7.316
1621786018113.237,0.122,0.264,0.112,0.20580152313313477,-4.8934574828684205,-7.312832528723826
1621786018118.389,0.106,0.264,0.126,0.2816645585408443,-4.951051460769784,-7.306639627874217
1621786018123.54,0.08,0.283,0.138,0.3575168087572818,-5.008637250730018,-7.300447607448385
1621786018127.24,0.0677793852575657,0.2837188596907314,0.14806403567024,0.412,-5.05,-7.296
1621786018128.687,0.063,0.284,0.152,0.4093861464734072,-5.076487049069473,-7.308807882280305
1621786018133.83,0.042,0.295,0.154,0.4000958751065769,-5.170628465586687,-7.354330211977773
1621786018138.971,0.024,0.293,0.161,0.390809572810396,-5.264729662187987,-7.399833093229059
1621786018143.848,0.009768025078369906,0.28825600835945664,0.16194879832810868,0.382,-5.354,-7.443
1621786018144.111,0.009,0.288,0.162,0.3804444902526651,-5.361634695800695,-7.446745921432357
1621786018149.246,-0.007,0.291,0.164,0.35009473467224217,-5.510596251251546,-7.5198330879321515
1621786018154.379,-0.009,0.3,0.159,0.3197579657223629,-5.659494066199423,-7.592888980505331
1621786018159.51,-0.009,0.295,0.157,0.28943129748512864,-5.808342305200542,-7.6659205489133635
1621786018160.429,-0.007745333333333333,0.2941038095238095,0.15610380952380953,0.284,-5.835,-7.679
1621786018164.637,-0.002,0.29,0.152,0.22934709829658578,-5.96718376225942,-7.731365105818155
1621786018169.762,0.009,0.29,0.14,0.1627844554236413,-6.128172479905611,-7.795141405501069
1621786018174.884,0.033,0.284,0.126,0.0962598628419733,-6.289069168940344,-7.858881247695598
1621786018176.983,0.04448070777889064,0.2786696713883722,0.12025964611055469,0.069,-6.355,-7.885
1621786018180.003,0.061,0.271,0.112,0.0331783017892233,-6.40324963432472,-7.902910849105388
1621786018185.12,0.093,0.258,0.093,-0.027518771331058026,-6.485004875670405,-7.9332593856655285
1621786018190.234,0.122,0.241,0.077,-0.08817530251318648,-6.566705509507557,-7.963587651256593
1621786018193.507,0.14441866131575176,0.22882986957144905,0.0654704027518991,-0.127,-6.619,-7.983
1621786018195.344,0.157,0.222,0.059,-0.15539581452484202,-6.616884233427561,-7.951263501413411
1621786018200.452,0.19,0.208,0.035,-0.23435610579128863,-6.611000917607708,-7.863013764115618
1621786018205.558,0.213,0.185,0.007,-0.3132899788358222,-6.60511957020439,-7.774793553065846
1621786018210.003,0.2278079996172432,0.16235247117362805,-0.020002822831443473,-0.382,-6.6,-7.698
1621786018210.661,0.23,0.159,-0.024,-0.38124078879086665,-6.597642449403217,-7.681177477944993
1621786018215.76,0.241,0.134,-0.044,-0.375356972347839,-6.579371650974868,-7.550804492549485
1621786018220.858,0.246,0.108,-0.065,-0.3694745644599303,-6.561105226480836,-7.420462717770035
1621786018225.952,0.255,0.099,-0.087,-0.3635966639484024,-6.542852798576618,-7.290220816961969
1621786018226.469,0.25530470435908503,0.09625766076823479,-0.08882822615451014,-0.363,-6.541,-7.277
1621786018231.043,0.258,0.072,-0.105,-0.35214735763300953,-6.532930086445059,-7.1949095000445595
1621786018236.133,0.265,0.045,-0.119,-0.3400701363514838,-6.523949588569052,-7.1035561595817365
1621786018241.218,0.267,0.028,-0.136,-0.3280050797611621,-6.514978136232659,-7.0122948340908415
1621786018242.906,0.26533957732949087,0.019365802113352544,-0.14064918347742555,-0.324,-6.512,-6.982
1621786018246.301,0.262,0.002,-0.15,-0.3119282866181123,-6.459825645552858,-6.951923019201059
1621786018251.382,0.253,-0.007,-0.164,-0.29386151695725743,-6.381740454645773,-6.9069092032663875
1621786018256.578,0.237,-0.024,-0.176,-0.27538674317663503,-6.301891856102405,-6.860878834694328
1621786018259.499,0.23025123384253818,-0.024,-0.18387356051703876,-0.265,-6.257,-6.835
1621786018261.772,0.225,-0.024,-0.19,-0.21445078459343797,-6.229082738944365,-6.829714693295292
1621786018266.966,0.22,-0.042,-0.199,-0.09893686861335119,-6.165286849689947,-6.817636830766544
1621786018272.156,0.209,-0.047,-0.204,0.016484744825176867,-6.101541937174299,-6.805568619173775
1621786018276.271,0.20265697619719636,-0.052550145827453196,-0.20241424404929909,0.108,-6.051,-6.796
1621786018277.346,0.201,-0.054,-0.202,0.13629139043900165,-6.0358599361823035,-6.785928008392465
1621786018282.535,0.187,-0.056,-0.204,0.27285855200850906,-5.9627763757959,-6.737308860169307
1621786018287.722,0.173,-0.056,-0.188,0.4093743097343843,-5.88972032404237,-6.688708012180729
1621786018292.907,0.143,-0.044,-0.185,0.5458386636166276,-5.8166917809217145,-6.640125464426734
1621786018293.027,0.14262934362934362,-0.044,-0.18462934362934363,0.549,-5.815,-6.639
1621786018298.092,0.127,-0.044,-0.169,0.6945254553674294,-5.803200638753992,-6.606324845780287
1621786018303.274,0.103,-0.04,-0.152,0.8434109171515656,-5.791128844555279,-6.572895261845386
1621786018308.455,0.08,-0.03,-0.133,0.9922753350541774,-5.7790587566172285,-6.539470402940018
1621786018309.768,0.07467700428901353,-0.028986096055050193,-0.12717005231653863,1.03,-5.776,-6.531
1621786018313.635,0.059,-0.026,-0.11,1.0956596359602389,-5.807673838473777,-6.5559691573369925
1621786018318.813,0.042,-0.016,-0.084,1.18358028872119,-5.850086266038039,-6.589403771767213
1621786018323.989,0.03,-0.009,-0.059,1.271467777956181,-5.8924826957042145,-6.622825774715731
1621786018326.494,0.027096363379085893,-0.0036766661949908016,-0.043029998584972404,1.314,-5.913,-6.639
1621786018329.165,0.024,0.002,-0.026,1.299933114179268,-5.925628227043612,-6.7002229235152315
1621786018334.338,0.028,0.0,-0.005,1.2726916210095698,-5.950083658411864,-6.818785331287896
1621786018339.51,0.042,-0.01,0.021,1.2454539849514208,-5.974535627145884,-6.937330951859157
1621786018343.204,0.052001605288007555,-0.01142880075542965,0.034573607176581686,1.226,-5.992,-7.022
1621786018344.681,0.056,-0.012,0.04,1.2102770059915413,-5.990223390507519,-7.025464388510339
1621786018349.85,0.068,-0.012,0.059,1.1552426280545112,-5.984004816729324,-7.03759060737782
1621786018355.018,0.077,-0.01,0.08,1.1002212464755639,-5.977787711466165,-7.049713962640977
1621786018359.829,0.07983227135533943,-0.009055909548220189,0.0969936281320366,1.049,-5.972,-7.061
1621786018360.114,0.08,-0.009,0.098,1.04075204299492,-5.974027622763749,-7.064024250901863
1621786018365.25,0.075,-0.003,0.112,0.8920697195023191,-6.01057869395568,-7.11854110284915
1621786018370.383,0.063,0.014,0.117,0.7434722079069425,-6.04710891555621,-7.173026857100788
1621786018375.516,0.038,0.028,0.122,0.5948746963115659,-6.08363913715674,-7.2275126113524255
1621786018376.41,0.03434109080525414,0.03165890919474586,0.122,0.569,-6.09,-7.237
1621786018380.646,0.017,0.049,0.122,0.3029980541879182,-6.1125078569533295,-7.329844909932486
1621786018385.774,0.0,0.075,0.106,-0.019006721896282497,-6.139754414929685,-7.442236961584952
1621786018390.901,-0.003,0.08,0.094,-0.3409501754179075,-6.166995784073823,-7.55460760930452
1621786018392.972,-0.002595816657137412,0.07959581665713741,0.08268286639984754,-0.471,-6.178,-7.6
1621786018396.025,-0.002,0.079,0.066,-0.5180535938260856,-6.243136935767091,-7.511428529268544
1621786018401.148,0.009,0.068,0.047,-0.5970118195635172,-6.352439891395771,-7.362801280821614
1621786018406.27,0.03,0.059,0.038,-0.6759549941713763,-6.461722011539199,-7.214202363912704
1621786018409.517,0.043957925869388924,0.05392439059294948,0.0335588417688308,-0.726,-6.531,-7.12
1621786018411.388,0.052,0.051,0.031,-0.726,-6.511073165686593,-7.111055568688869
1621786018416.507,0.086,0.038,0.03,-0.726,-6.456548063000502,-7.08658123282409
1621786018421.622,0.098,0.033,0.021,-0.726,-6.4020671670458915,-7.062126739753554
1621786018426.041,0.10059275175476294,0.02522174473571122,0.011493243565869265,-0.726,-6.355,-7.041
1621786018426.735,0.101,0.024,0.01,-0.7185570412223224,-6.336413628363088,-7.047601946486415
1621786018431.847,0.096,0.014,-0.01,-0.6637414693310062,-6.199529544883078,-7.096223668446509
1621786018436.958,0.084,0.01,-0.026,-0.608933751423627,-6.062665074176516,-7.144838423878478
1621786018442.065,0.075,-0.009,-0.037,-0.5541705394252245,-5.925911742519487,-7.19341370231774
1621786018442.547,0.075,-0.011455293105097065,-0.0374721717509802,-0.549,-5.913,-7.198
1621786018447.171,0.075,-0.035,-0.042,-0.4306557881955756,-5.874580196641691,-7.123684321971155
1621786018452.277,0.073,-0.052,-0.051,-0.2999641365830545,-5.832151864246158,-7.0416149198922025
1621786018457.379,0.065,-0.061,-0.052,-0.16938496164894723,-5.789760046791246,-6.959616148902775
1621786018459.035,0.06077565392354125,-0.06262474849094568,-0.05264989939637827,-0.127,-5.776,-6.933
1621786018462.475,0.052,-0.066,-0.054,-0.13537018666745868,-5.7841609320007725,-6.8796400599949505
1621786018467.564,0.037,-0.065,-0.049,-0.1477517189147448,-5.796232925941876,-6.8007077919185015
1621786018472.652,0.017,-0.068,-0.049,-0.1601314691337858,-5.808303182405441,-6.721786884272116
1621786018475.475,0.0025684523809523813,-0.068,-0.049,-0.167,-5.815,-6.678
1621786018477.738,-0.009,-0.068,-0.049,-0.1940104668450788,-5.825886871840619,-6.710522807017544
1621786018482.823,-0.031,-0.059,-0.042,-0.2547046089800773,-5.850350327088909,-6.78360350877193
1621786018487.905,-0.049,-0.056,-0.038,-0.315363782337199,-5.874799687778769,-6.856642105263157
1621786018491.896,-0.0639302023746575,-0.06307220112483776,-0.03957160024996395,-0.363,-5.894,-6.914
1621786018492.984,-0.068,-0.065,-0.04,-0.3753383451930806,-5.912839193735672,-6.93807967368327
1621786018498.063,-0.073,-0.065,-0.033,-0.4329431327596987,-6.0007948908804005,-7.050501920385863
1621786018503.139,-0.073,-0.063,-0.035,-0.49051192425640877,-6.088695626283979,-7.162853916693959
1621786018508.213,-0.065,-0.054,-0.037,-0.5480585643254832,-6.1765625390776195,-7.2751626819900554
1621786018508.296,-0.06473819721834545,-0.05391818663073295,-0.03688546128302613,-0.549,-6.178,-7.277
1621786018513.286,-0.049,-0.049,-0.03,-0.5608808370470839,-6.249894295977225,-7.345543290656253
1621786018518.356,-0.028,-0.044,-0.03,-0.5729523348188336,-6.322942333775505,-7.415186547031732
1621786018523.425,0.003,-0.042,-0.023,-0.5850215074597946,-6.395976301551578,-7.484816389191122
1621786018524.676,0.010408192771084339,-0.045457156626506026,-0.023740819277108433,-0.588,-6.414,-7.502
1621786018528.491,0.033,-0.056,-0.026,-0.6201839348079161,-6.404671323244082,-7.48380908032596
1621786018533.555,0.068,-0.063,-0.023,-0.6629049879108087,-6.392288409301215,-7.459662398137369
1621786018538.619,0.099,-0.068,-0.031,-0.7056260410137011,-6.379905495358347,-7.435515715948778
1621786018541.034,0.11188642285052591,-0.07038637460194924,-0.03386364952233909,-0.726,-6.374,-7.424
1621786018543.679,0.126,-0.073,-0.037,-0.7195243047772747,-6.345506941020009,-7.393726124833759
1621786018548.737,0.141,-0.084,-0.042,-0.7071407480462037,-6.2910192914032965,-7.335832997116003
1621786018553.794,0.152,-0.103,-0.049,-0.6947601799136296,-6.23654479161997,-7.277953841096218
1621786018557.372,0.15695469912102772,-0.10653907080073409,-0.05253907080073408,-0.686,-6.198,-7.237
1621786018558.849,0.159,-0.108,-0.054,-0.6665244875653177,-6.184684184521403,-7.219245579361871
1621786018563.895,0.159,-0.12,-0.058,-0.5999922741768854,-6.139194717693034,-7.1585929569240445
1621786018568.943,0.161,-0.131,-0.054,-0.5334310889517735,-6.0936854422135385,-7.097913922951385
1621786018573.678,0.13941774724211342,-0.12255477065995742,-0.05587671763112057,-0.471,-6.051,-7.041
1621786018573.989,0.138,-0.122,-0.056,-0.4698734112709832,-6.051,-7.040255305755396
1621786018579.032,0.131,-0.127,-0.049,-0.45160746402877694,-6.051,-7.028181205035971
1621786018584.075,0.119,-0.122,-0.054,-0.43334151678657074,-6.051,-7.016107104316546
1621786018589.115,0.11,-0.122,-0.056,-0.4150861810551558,-6.051,-7.004040017985611
1621786018589.967,0.10966169057774332,-0.122,-0.05566169057774331,-0.412,-6.051,-7.002
1621786018594.152,0.108,-0.122,-0.054,-0.38936146711888825,-6.093704505207552,-6.989394453282108
1621786018599.189,0.108,-0.117,-0.059,-0.36211519644625867,-6.145100879430921,-6.974223234384849
1621786018604.222,0.119,-0.115,-0.061,-0.3348900561275025,-6.1964573941231205,-6.959063781252814
1621786018606.235,0.11940007762845083,-0.11860069865605745,-0.061800155256901655,-0.324,-6.217,-6.953
1621786018609.254,0.12,-0.124,-0.063,-0.2983553404770135,-6.2207166173221715,-6.9275411713431225
1621786018614.284,0.126,-0.113,-0.065,-0.2556253024541998,-6.226909376455913,-6.885120771276996
1621786018619.312,0.124,-0.115,-0.068,-0.21291185620463188,-6.233099730984836,-6.842716842753873
1621786018622.48,0.12147818482168884,-0.10302137790302206,-0.06610863861626665,-0.186,-6.237,-6.816
1621786018624.337,0.12,-0.096,-0.065,-0.17260774428509082,-6.237,-6.809246640280516
1621786018629.361,0.115,-0.087,-0.061,-0.13637329380427093,-6.237,-6.790974566961128
1621786018634.383,0.112,-0.086,-0.058,-0.10015469006305588,-6.237,-6.772710484732652
1621786018638.703,0.10425532535745549,-0.06878961190545667,-0.05197636416690983,-0.069,-6.237,-6.757
1621786018639.403,0.103,-0.066,-0.051,-0.07578453471552556,-6.233629339440695,-6.762920262777242
1621786018644.42,0.093,-0.065,-0.045,-0.12439520552073288,-6.20947881509161,-6.805338491441659
1621786018649.435,0.091,-0.059,-0.04,-0.17298931714079074,-6.185336517598842,-6.847742270371263
1621786018654.448,0.087,-0.058,-0.037,-0.22156213837994213,-6.1612047974927675,-6.890127471070396
1621786018654.906,0.08672590464130911,-0.058,-0.03617771392392734,-0.226,-6.159,-6.894
1621786018659.461,0.084,-0.058,-0.028,-0.2783559089331784,-6.150555498559164,-6.924400205187007
1621786018664.47,0.086,-0.061,-0.024,-0.33593141322550957,-6.141269126899111,-6.957831143163199
1621786018669.477,0.087,-0.063,-0.019,-0.3934844676453282,-6.131986376186237,-6.991249045729545
1621786018671.088,0.08474746390948107,-0.06686149044088958,-0.018034627389777604,-0.412,-6.129,-7.002
1621786018674.483,0.08,-0.075,-0.016,-0.44897286845126594,-6.135302193486011,-7.002
1621786018679.486,0.082,-0.073,-0.017,-0.5034590609704513,-6.144589612665418,-7.002
1621786018684.488,0.079,-0.079,-0.016,-0.5579319596350232,-6.153874765846878,-7.002
1621786018687.249,0.07955230513772221,-0.079,-0.014895389724555577,-0.588,-6.159,-7.002
1621786018689.487,0.08,-0.079,-0.014,-0.5961807360125845,-6.161634474309137,-7.004773130851723
1621786018694.484,0.08,-0.079,-0.014,-0.6144457217188752,-6.167516418858621,-7.010964651430127
1621786018699.479,0.079,-0.084,-0.014,-0.6327044605448248,-6.173396351700876,-7.017154054421975
1621786018703.39,0.07586746516744072,-0.084,-0.01556626741627964,-0.647,-6.178,-7.022
1621786018704.473,0.075,-0.084,-0.016,-0.6496204786428356,-6.176723356558618,-7.022
1621786018709.464,0.075,-0.08,-0.016,-0.6616973644350197,-6.170839745531657,-7.022
1621786018714.454,0.068,-0.08,-0.019,-0.6737712965767949,-6.164957573462587,-7.022
1621786018719.441,0.066,-0.08,-0.019,-0.6858375492275068,-6.159079142684035,-7.022
1621786018719.508,0.06605387139428963,-0.08,-0.018973064302855183,-0.686,-6.159,-7.022
1621786018724.426,0.07,-0.08,-0.017,-0.686,-6.164804923179592,-7.045830737263586
1621786018729.409,0.065,-0.08,-0.017,-0.686,-6.170686499931749,-7.069976157614548
1621786018734.39,0.063,-0.077,-0.019,-0.686,-6.176565771313303,-7.094112113812506
1621786018735.605,0.062023830538393644,-0.07773212709620476,-0.019488084730803178,-0.686,-6.178,-7.1
1621786018739.369,0.059,-0.08,-0.021,-0.6998119989067055,-6.1735520681486875,-7.13675396319242
1621786018744.347,0.059,-0.075,-0.021,-0.7180792790330418,-6.167669384718173,-7.185363505223518
1621786018749.321,0.068,-0.082,-0.024,-0.7363322248542274,-6.161791317419825,-7.233934903425656
1621786018751.683,0.07227487849182582,-0.0786750945063577,-0.028274878491825816,-0.745,-6.159,-7.257
1621786018754.294,0.077,-0.075,-0.033,-0.7354048846510638,-6.159,-7.260252581474216
1621786018759.266,0.094,-0.075,-0.037,-0.7171316361756163,-6.159,-7.266446902991317
1621786018764.234,0.106,-0.086,-0.038,-0.6988745380719924,-6.159,-7.2726357498061045
1621786018767.737,0.11516869009584664,-0.08458943229294667,-0.04434755468173998,-0.686,-6.159,-7.277
1621786018769.201,0.119,-0.084,-0.047,-0.6807043900656302,-6.157173927608838,-7.2608392593382165
1621786018774.167,0.127,-0.094,-0.049,-0.6627394131351738,-6.150979107977646,-7.206015105602169
1621786018779.129,0.133,-0.098,-0.054,-0.6447894504423566,-6.144789465669779,-7.151236771177536
1621786018783.77,0.13393566963626521,-0.09145031254614362,-0.05867834818132598,-0.628,-6.139,-7.1
1621786018784.089,0.134,-0.091,-0.059,-0.6272029637308859,-6.139,-7.097648743006113
1621786018789.049,0.141,-0.093,-0.063,-0.6148138368423459,-6.139,-7.0611008186849205
1621786018794.005,0.14,-0.099,-0.063,-0.602435076913695,-6.139,-7.0245834768954
1621786018798.96,0.131,-0.098,-0.068,-0.5900581464485539,-6.139,-6.988071532023234
1621786018799.784,0.13033458201892745,-0.09816635449526814,-0.068,-0.588,-6.139,-6.982
1621786018803.913,0.127,-0.099,-0.068,-0.5931636441350674,-6.139,-6.969349071869085
1621786018808.864,0.129,-0.098,-0.068,-0.5993549490138609,-6.139,-6.9541803749160405
1621786018813.812,0.122,-0.096,-0.066,-0.6055425902179886,-6.139,-6.939020653965928
1621786018815.777,0.1192194146967379,-0.09719167941568377,-0.06838335883136752,-0.608,-6.139,-6.933
1621786018818.759,0.115,-0.099,-0.072,-0.6007187600311826,-6.129851775423794,-6.936733969214778
1621786018823.704,0.113,-0.105,-0.068,-0.5886439675333608,-6.114680882285505,-6.942926170495713
1621786018828.646,0.106,-0.099,-0.07,-0.5765769248406475,-6.099519726081839,-6.949114397517617
1621786018831.749,0.106,-0.10779237078762724,-0.06874394703033897,-0.569,-6.09,-6.953
1621786018833.587,0.106,-0.113,-0.068,-0.5598958253601335,-6.09,-6.95634203879185
1621786018838.525,0.105,-0.106,-0.065,-0.5354350075777291,-6.09,-6.9653213263322264
1621786018843.461,0.099,-0.103,-0.068,-0.5109838647949421,-6.09,-6.974297062290464
1621786018847.697,0.09470902166386388,-0.10471639133445444,-0.06370902166386389,-0.49,-6.09,-6.982
1621786018848.397,0.094,-0.105,-0.063,-0.4891650495853834,-6.092153293174538,-6.983757790346561
1621786018853.329,0.091,-0.101,-0.063,-0.48328166337119294,-6.107326236569029,-6.996143866586962
1621786018858.26,0.082,-0.098,-0.058,-0.4773997332965466,-6.122495424656274,-7.008526877270429
1621786018863.188,0.073,-0.089,-0.056,-0.4715212979568063,-6.1376556000061315,-7.02090253061725
1621786018863.625,0.07379843386033602,-0.08882257025325865,-0.05582257025325866,-0.471,-6.139,-7.022
1621786018868.114,0.082,-0.087,-0.054,-0.4597111479486117,-6.177664318276005,-7.0660265230004144
1621786018873.039,0.08,-0.082,-0.051,-0.44732576629675674,-6.220084250433608,-7.114329511442649
1621786018877.961,0.084,-0.075,-0.051,-0.43494836610335985,-6.262476846095992,-7.162601372196896
1621786018879.531,0.08719108817545775,-0.075,-0.04908534709472535,-0.431,-6.276,-7.178
1621786018882.881,0.094,-0.075,-0.045,-0.431,-6.288442910935219,-7.190442910935219
1621786018887.8,0.117,-0.073,-0.045,-0.431,-6.306712825635903,-7.208712825635903
1621786018892.716,0.127,-0.066,-0.04,-0.431,-6.32497185891032,-7.2269718589103205
1621786018895.416,0.13579137477020917,-0.06984622646196652,-0.04219784369255229,-0.431,-6.335,-7.237
1621786018897.63,0.143,-0.073,-0.044,-0.42150982685648325,-6.315880092343209,-7.220671319738361
1621786018902.543,0.15,-0.059,-0.051,-0.4004489265101962,-6.2734485725278955,-7.184434182377838
1621786018907.453,0.155,-0.059,-0.047,-0.37940163139669103,-6.231044463255098,-7.148220454020778
1621786018911.279,0.1542202985074627,-0.05666089552238806,-0.044660895522388055,-0.363,-6.198,-7.12
1621786018912.36,0.154,-0.056,-0.044,-0.3603388192871342,-6.196635291942121,-7.099256437520226
1621786018917.267,0.157,-0.056,-0.042,-0.3482595349267255,-6.1904407871419105,-7.00509996455704
1621786018922.171,0.148,-0.051,-0.037,-0.3361880634274883,-6.184250288937173,-6.9110043918450375
1621786018927.073,0.133,-0.045,-0.033,-0.3241207988534973,-6.178061948129999,-6.816941611575979
1621786018927.122,0.13292989536621824,-0.04494992526158445,-0.03290986547085202,-0.324,-6.178,-6.816
1621786018931.973,0.126,-0.04,-0.024,-0.324,-6.1629772246825185,-6.809868254972456
1621786018936.871,0.115,-0.038,-0.021,-0.324,-6.147807767679417,-6.80367663986915
1621786018941.767,0.099,-0.035,-0.016,-0.324,-6.132645115496782,-6.797487802243585
1621786018942.944,0.09611389373908706,-0.034037964579695684,-0.015037964579695685,-0.324,-6.129,-6.796
1621786018946.661,0.087,-0.031,-0.012,-0.3331737766721775,-6.119826223327822,-6.819052054201882
1621786018951.553,0.082,-0.028,-0.005,-0.345248404690904,-6.107751595309096,-6.849393427172015
1621786018956.444,0.075,-0.021,-0.003,-0.3573206223636841,-6.095679377636316,-6.879728743375412
1621786018958.745,0.0684081031123545,-0.025708497776889647,-0.003,-0.363,-6.09,-6.894
1621786018961.331,0.061,-0.031,-0.003,-0.3566084171437413,-6.09,-6.905308185053381
1621786018966.217,0.056,-0.023,0.005,-0.3445318737428439,-6.09,-6.9266743772242
1621786018971.101,0.051,-0.024,0.007,-0.33246015782144517,-6.09,-6.9480320284697505
1621786018974.524,0.04609201840368073,-0.024,0.008402280456091218,-0.324,-6.09,-6.963
1621786018975.983,0.044,-0.024,0.009,-0.32214815388667667,-6.094537022977642,-6.96661109992098
1621786018980.862,0.037,-0.019,0.019,-0.315955191273764,-6.109709781379278,-6.97868737701616
1621786018985.74,0.031,-0.016,0.017,-0.3097637780635565,-6.124878743744286,-6.990760632776064
1621786018990.281,0.030068696174644503,-0.012274784698578008,0.020725215301421993,-0.304,-6.139,-7.002
1621786018990.616,0.03,-0.012,0.021,-0.30525572809208384,-6.141511456184168,-7.002830057552394
1621786018995.489,0.026,-0.009,0.024,-0.32352419217225387,-6.178048384344508,-7.014905821944371
1621786019000.362,0.03,0.0,0.023,-0.34179265625242383,-6.214585312504847,-7.0269815863363485
1621786019005.231,0.026,0.0,0.026,-0.3600455610194995,-6.251091122038999,-7.039047065758653
1621786019006.019,0.026323852520692248,0.0003238525206922498,0.02567614747930775,-0.363,-6.257,-7.041
1621786019010.098,0.028,0.002,0.024,-0.3757181674123788,-6.277245246085011,-7.041
1621786019014.965,0.03,0.0,0.024,-0.39089440405170267,-6.301403337061894,-7.041
1621786019019.828,0.037,0.0,0.024,-0.40605693823017647,-6.32553961595824,-7.041
1621786019021.734,0.03974466375370398,0.003920948219577118,0.023607905178042288,-0.412,-6.335,-7.041
1621786019024.689,0.044,0.01,0.023,-0.4193424896175203,-6.34234248961752,-7.020666951828406
1621786019029.549,0.047,0.009,0.023,-0.431418410041841,-6.35441841004184,-6.987225941422595
1621786019034.406,0.052,0.012,0.017,-0.443486444447901,-6.366486444447901,-6.953806769221197
1621786019037.43,0.05324570049280901,0.010754299507190989,0.019491400985618024,-0.451,-6.374,-6.933
1621786019039.261,0.054,0.01,0.021,-0.4578932749676756,-6.371780131790071,-6.912437010265917
1621786019044.115,0.056,0.005,0.017,-0.47616688735531915,-6.365895409156762,-6.8579258953468445
1621786019048.967,0.054,0.007,0.017,-0.49443314691633045,-6.360013054382877,-6.803436714283489
1621786019053.102,0.04973697457840423,0.007,0.017,-0.51,-6.355,-6.757
1621786019053.817,0.049,0.007,0.017,-0.5126947867594297,-6.353173025925811,-6.7516104264811405
1621786019058.664,0.038,0.005,0.016,-0.5309674289458085,-6.340784793935046,-6.715065142108383
1621786019063.509,0.035,0.009,0.016,-0.5492317879761645,-6.328402177643278,-6.678536424047671
1621786019068.353,0.019,0.002,0.016,-0.5674924656038436,-6.316022057217734,-6.642015068792313
1621786019068.753,0.01875218114882243,0.002,0.015669574865096576,-0.569,-6.315,-6.639
1621786019073.194,0.016,0.002,0.012,-0.569,-6.326364225585282,-6.633317887207359
1621786019078.032,0.0,0.002,0.012,-0.569,-6.338743616173922,-6.627128191913039
1621786019082.87,-0.009,0.003,0.009,-0.569,-6.351123631479486,-6.620938184260257
1621786019084.385,-0.010566602706523934,0.0011200767521712784,0.009,-0.569,-6.355,-6.619
1621786019087.705,-0.014,-0.003,0.009,-0.5607052033969877,-6.359041054755314,-6.63154853845071
1621786019092.538,-0.028,0.0,0.01,-0.5486305072021771,-6.364923599055349,-6.649815386540296
1621786019097.37,-0.031,-0.005,0.003,-0.536558250832825,-6.37080495472247,-6.66807854361188
1621786019099.995,-0.034805247990292734,-0.002281965721219475,0.002456393144243895,-0.53,-6.374,-6.678
1621786019102.199,-0.038,0.0,0.002,-0.5243457563419981,-6.382340009395552,-6.6918528969621045
1621786019107.025,-0.044,-0.002,0.002,-0.5119642968994675,-6.400602662073285,-6.722187472596304
1621786019111.851,-0.044,0.0,0.007,-0.49958221108675227,-6.41886623864704,-6.752523582837457
1621786019115.586,-0.044,-0.0023231586940015187,0.0031280688433308022,-0.49,-6.433,-6.776
1621786019116.674,-0.044,-0.003,0.002,-0.4858767071736574,-6.438521019208154,-6.7828488592708736
1621786019121.494,-0.042,0.0,0.002,-0.4676128420227362,-6.4629760250882,-6.813185448843591
1621786019126.314,-0.04,-0.005,0.0,-0.44934805174441395,-6.487432269698157,-6.8435235750686
1621786019131.131,-0.033,0.0,0.0,-0.43109436299490395,-6.511873649549196,-6.873843261466091
1621786019131.156,-0.032963789430976775,-3.621056902322751e-05,0.0,-0.431,-6.512,-6.874
1621786019135.945,-0.026,-0.007,0.0,-0.431,-6.520932464473581,-6.874
1621786019140.759,-0.014,-0.005,-0.003,-0.431,-6.529911376305252,-6.874
1621786019145.57,-0.005,0.0,-0.005,-0.431,-6.538884823741855,-6.874
1621786019146.704,-0.003820646930381354,0.0,-0.004528258772152542,-0.431,-6.541,-6.874
1621786019150.378,0.0,0.0,-0.003,-0.431,-6.534139137817188,-6.86477332327139
1621786019155.186,0.003,-0.002,-0.003,-0.431,-6.525160016350659,-6.852697953023299
1621786019159.99,0.009,0.0,-0.003,-0.431,-6.516188645725245,-6.840633006320158
1621786019162.233,0.009,-0.0023349260407665327,-0.0039339704163066135,-0.431,-6.512,-6.835
1621786019164.793,0.009,-0.005,-0.005,-0.4376035864414251,-6.5022597099988975,-6.831863296440323
1621786019169.594,0.007,-0.005,-0.003,-0.4499876725915896,-6.483993182927406,-6.825980855518995
1621786019174.392,0.002,-0.005,-0.003,-0.46236420170977843,-6.465737802478077,-6.820102004187855
1621786019177.74,0.0026979336319218243,-0.0029061991042345276,-0.0009061991042345276,-0.471,-6.453,-6.816
1621786019179.189,0.003,-0.002,0.0,-0.46912879325293605,-6.454777646409711,-6.8196488531567745
1621786019183.984,0.003,-0.009,-0.002,-0.46293662804445496,-6.460660203357768,-6.831723575313313
1621786019188.776,0.009,-0.016,0.0,-0.4567482462363049,-6.466539166075511,-6.843790919839206
1621786019193.227,0.0052837342030167146,-0.007638401956787605,0.0,-0.451,-6.472,-6.855
1621786019193.567,0.005,-0.007,0.0,-0.4494838276847306,-6.47243947023631,-6.854143033039196
1621786019198.356,0.003,-0.007,0.0,-0.4281179971270265,-6.478632464600862,-6.842066694028319
1621786019203.142,0.01,-0.007,0.0,-0.40676523702031603,-6.484821670428894,-6.829997742663657
1621786019207.927,0.016,-0.007,0.002,-0.385417922934853,-6.491009297700042,-6.817931869484917
1621786019208.693,0.016480624904273242,-0.005878541890029101,0.002,-0.382,-6.492,-6.816
1621786019212.709,0.019,0.0,0.002,-0.3770591108862681,-6.486799064090809,-6.816
1621786019217.49,0.019,-0.005,0.0,-0.3711768425712208,-6.480607202706548,-6.816
1621786019222.269,0.026,0.009,0.007,-0.3652969772662598,-6.474417870806589,-6.816
1621786019224.136,0.025218178100398732,0.006263623351395562,0.007,-0.363,-6.472,-6.816
1621786019227.045,0.024,0.002,0.007,-0.366584309689677,-6.468415690310324,-6.8048697751741605
1621786019231.819,0.023,0.007,0.012,-0.37246690943635213,-6.462533090563649,-6.786602754908169
1621786019236.592,0.017,0.01,0.009,-0.3783480050664978,-6.456651994933503,-6.768340405319822
1621786019239.556,0.019485413041252946,0.009378646739686764,0.010864059780939708,-0.382,-6.453,-6.757
1621786019241.362,0.021,0.009,0.012,-0.38551799895382566,-6.448426601360027,-6.7592280660040895
1621786019246.13,0.009,0.014,0.014,-0.39480469827381237,-6.436353892244044,-6.7651096422400805
1621786019250.896,0.009,0.017,0.017,-0.4040880688572923,-6.42428551048552,-6.770989110276285
1621786019254.958,0.0055900497002613105,0.01614751242506533,0.017,-0.412,-6.414,-6.776
1621786019255.661,0.005,0.016,0.017,-0.4128682560594276,-6.4166504658656205,-6.77869616355296
1621786019260.423,0.005,0.017,0.017,-0.41875092458849855,-6.434608085585943,-6.79696339740639
1621786019265.183,0.012,0.01,0.016,-0.4246308788749385,-6.4525574197234965,-6.815222202822177
1621786019269.941,0.014,0.01,0.017,-0.4305081189187473,-6.470498468278282,-6.83347257980032
1621786019270.339,0.013665178342314602,0.011171875801898897,0.01691629458557865,-0.431,-6.472,-6.835
1621786019274.698,0.01,0.024,0.016,-0.43667604514385633,-6.477676045143856,-6.846068288030519
1621786019279.452,0.016,0.019,0.016,-0.44286647591797806,-6.483866475917978,-6.858139628040057
1621786019284.204,0.023,0.017,0.016,-0.4490546812907328,-6.490054681290733,-6.870206628516929
1621786019285.698,0.024572522615131577,0.013854954769736843,0.015370990953947368,-0.451,-6.492,-6.874
1621786019288.954,0.028,0.007,0.014,-0.4592814768819259,-6.483718523118074,-6.8782469112215
1621786019293.702,0.037,0.01,0.014,-0.4713568972105464,-6.471643102789454,-6.884439434466946
1621786019298.448,0.038,0.014,0.01,-0.4834279709591135,-6.459572029040887,-6.8906297286969815
1621786019301.032,0.04017878647522001,0.014,0.011089393237610004,-0.49,-6.453,-6.894
1621786019303.192,0.042,0.014,0.012,-0.492821019737891,-6.447499011511113,-6.888499011511112
1621786019307.934,0.047,0.007,0.012,-0.4990146997863589,-6.4354213354166,-6.876421335416601
1621786019312.675,0.047,0.003,0.007,-0.5052067854979114,-6.423346768279073,-6.8643467682790735
1621786019316.345,0.047,-0.0008736277895170846,0.010873627789517084,-0.51,-6.414,-6.855
1621786019317.412,0.047,-0.002,0.012,-0.51,-6.411208277447787,-6.8536041387238935
1621786019322.148,0.051,0.002,0.005,-0.51,-6.398818930829661,-6.847409465414831
1621786019326.882,0.047,0.003,0.003,-0.51,-6.386434055055247,-6.841217027527623
1621786019331.614,0.045,0.0,0.002,-0.51,-6.374054927508462,-6.835027463754232
1621786019331.635,0.04499556014455343,-1.3319566339700569e-05,0.0019911202891068664,-0.51,-6.374,-6.835
1621786019336.343,0.044,-0.003,0.0,-0.5161663415726025,-6.380166341572602,-6.816809292360823
1621786019341.072,0.042,-0.003,0.0,-0.5223601829053817,-6.386360182905381,-6.798537460429124
1621786019345.797,0.04,0.0,-0.003,-0.5285489080037094,-6.392548908003709,-6.780280721389057
1621786019346.905,0.039296397746653576,-0.0021108067600392783,-0.0027654659155511912,-0.53,-6.394,-6.776
1621786019350.521,0.037,-0.009,-0.002,-0.53,-6.398742251536885,-6.771494861039959
1621786019355.243,0.038,-0.012,-0.005,-0.53,-6.40493493852459,-6.765611808401639
1621786019359.962,0.031,-0.005,-0.01,-0.53,-6.41112378329918,-6.759732405865778
1621786019362.155,0.03192986905439677,-0.004070130945603229,-0.011859738108793542,-0.53,-6.414,-6.757
1621786019364.679,0.033,-0.003,-0.014,-0.53,-6.417148898650165,-6.7472218410336975
1621786019369.396,0.033,-0.01,-0.016,-0.53,-6.423033970310045,-6.7289471448267015
1621786019374.109,0.031,-0.019,-0.012,-0.53,-6.428913863862259,-6.710688528006669
1621786019377.384,0.031,-0.01691487487694938,-0.0154752085384177,-0.53,-6.433,-6.698
1621786019378.821,0.031,-0.016,-0.017,-0.5281100693552531,-6.433,-6.68873933984074
1621786019383.531,0.024,-0.017,-0.021,-0.5219156177754944,-6.433,-6.658386527099923
1621786019388.238,0.016,-0.016,-0.023,-0.5157250192653481,-6.433,-6.628052594400206
1621786019392.591,0.012300062253579581,-0.016,-0.02115003112678979,-0.51,-6.433,-6.6
1621786019392.944,0.012,-0.016,-0.021,-0.5104648770294165,-6.432558366822054,-6.598628612763221
1621786019397.647,0.0,-0.017,-0.024,-0.5166577720623694,-6.426675116540749,-6.58035957241601
1621786019402.348,-0.007,-0.012,-0.026,-0.5228480951615496,-6.420794309596528,-6.562098119273429
1621786019407.048,-0.016,-0.019,-0.023,-0.5290374537855651,-6.414914418903713,-6.543839511332584
1621786019407.779,-0.017867456728520192,-0.0193112427880867,-0.023778106970216747,-0.53,-6.414,-6.541
1621786019411.745,-0.028,-0.021,-0.028,-0.5349683697121885,-6.424198232567123,-6.538385068572532
1621786019416.44,-0.038,-0.024,-0.031,-0.5408496716244929,-6.436270378597643,-6.535289646513425
1621786019421.134,-0.051,-0.019,-0.031,-0.5467300560169983,-6.448340641298049,-6.532194707359475
1621786019422.946,-0.05370396585822838,-0.019772561673779537,-0.031,-0.549,-6.453,-6.531
1621786019425.825,-0.058,-0.021,-0.031,-0.549,-6.46041396098662,-6.544117007899403
1621786019430.514,-0.063,-0.016,-0.033,-0.549,-6.472489311623408,-6.56548108979526
1621786019435.202,-0.066,-0.019,-0.031,-0.549,-6.484562147348058,-6.5868407222311784
1621786019438.09,-0.07154820218863991,-0.02146586763939552,-0.03346586763939552,-0.549,-6.492,-6.6
1621786019439.887,-0.075,-0.023,-0.035,-0.5513765317489788,-6.496634236910508,-6.609268473821017
1621786019444.57,-0.075,-0.023,-0.037,-0.5575703676197549,-6.508712216858522,-6.633424433717044
1621786019449.252,-0.072,-0.026,-0.038,-0.5637625889988537,-6.520787048547764,-6.657574097095529
1621786019453.212,-0.07030697771515057,-0.03192557799697302,-0.03969302228484944,-0.569,-6.531,-6.678
1621786019453.93,-0.07,-0.033,-0.04,-0.569,-6.533329674415596,-6.681756005690453
1621786019458.607,-0.068,-0.028,-0.044,-0.569,-6.548504639658573,-6.706221765980148
1621786019463.283,-0.066,-0.04,-0.038,-0.569,-6.563676436354231,-6.730682417795596
1621786019467.956,-0.059,-0.04,-0.045,-0.569,-6.578838727407934,-6.755127744188302
1621786019468.314,-0.05892337445118127,-0.040689629939368595,-0.045459753292912394,-0.569,-6.58,-6.757
1621786019472.627,-0.058,-0.049,-0.051,-0.569,-6.585719373219373,-6.773872150997151
1621786019477.296,-0.051,-0.04,-0.049,-0.569,-6.591910774410774,-6.792136784511785
1621786019481.963,-0.04,-0.049,-0.051,-0.569,-6.598099585599585,-6.810393777518778
1621786019483.396,-0.03907839648314842,-0.04838559765543228,-0.0525360058614193,-0.569,-6.6,-6.816
1621786019486.628,-0.037,-0.047,-0.056,-0.569,-6.59163048341601,-6.82436951658399
1621786019491.291,-0.03,-0.054,-0.056,-0.569,-6.5795548098434,-6.8364451901566
1621786019495.952,-0.023,-0.052,-0.056,-0.569,-6.567484826378757,-6.8485151736212435
1621786019498.456,-0.020850136239782015,-0.05522479564032698,-0.05761239782016349,-0.569,-6.561,-6.855
1621786019500.611,-0.019,-0.058,-0.059,-0.5717226136363636,-6.556701136363636,-6.852134090909091
1621786019505.268,-0.012,-0.059,-0.059,-0.5776061363636363,-6.547411363636363,-6.845940909090909
1621786019509.922,-0.003,-0.063,-0.068,-0.5834859577922078,-6.5381274350649345,-6.839751623376624
1621786019513.495,-0.0022320810158463636,-0.0653037569524609,-0.068,-0.588,-6.531,-6.835
1621786019514.575,-0.002,-0.066,-0.068,-0.586693840438925,-6.529693840438925,-6.830944030836662
1621786019519.226,0.0,-0.072,-0.068,-0.5810678748504018,-6.5240678748504015,-6.813473927167037
1621786019524.112,0.003,-0.077,-0.075,-0.5751578202956216,-6.518157820295621,-6.79512165249693
1621786019529.203,6.603502727533638e-06,-0.08398459182696909,-0.07300440233515168,-0.569,-6.512,-6.776
1621786019529.214,0.0,-0.084,-0.073,-0.5689860073917473,-6.511958721805654,-6.7759867070221595
1621786019534.093,0.002,-0.082,-0.075,-0.5629071316674018,-6.494026038418835,-6.770211775084031
1621786019539.104,-0.003,-0.077,-0.079,-0.5566636907025202,-6.475607887572434,-6.764280506167394
1621786019544.114,-0.002,-0.087,-0.075,-0.5504214664861823,-6.457193326134238,-6.758350393161873
1621786019545.255,-0.002683153842405341,-0.08745543589493689,-0.07591087178987378,-0.549,-6.453,-6.757
1621786019549.124,-0.005,-0.089,-0.079,-0.5444571075103347,-6.453,-6.771106876678434
1621786019554.132,-0.003,-0.089,-0.08,-0.5385769741407924,-6.453,-6.789366238194381
1621786019559.141,-0.005,-0.096,-0.08,-0.532695694155276,-6.453,-6.8076291602546695
1621786019561.437,-0.005917105519797152,-0.09691710551979715,-0.08091710551979715,-0.53,-6.453,-6.816
1621786019564.148,-0.007,-0.098,-0.082,-0.5232964064174351,-6.453,-6.819184206951718
1621786019569.156,-0.003,-0.084,-0.086,-0.5109125073577132,-6.453,-6.825066559005086
1621786019574.163,-0.005,-0.093,-0.084,-0.49853102313717795,-6.453,-6.83094776400984
1621786019577.613,-0.0029328554710356934,-0.09506714452896431,-0.08537809635264287,-0.49,-6.453,-6.835
1621786019579.17,-0.002,-0.096,-0.086,-0.4881708484299517,-6.453,-6.833170848429952
1621786019584.177,-0.002,-0.099,-0.086,-0.482288134057971,-6.453,-6.827288134057971
1621786019589.182,-0.002,-0.103,-0.087,-0.47640800120772947,-6.453,-6.821408001207729
1621786019593.785,-0.00016103389417215308,-0.09472465252377468,-0.08608051694708607,-0.471,-6.453,-6.816
1621786019594.188,0.0,-0.094,-0.086,-0.471,-6.4525013591060105,-6.81647370884929
1621786019599.192,0.0,-0.099,-0.089,-0.471,-6.446311084264573,-6.822354469948656
1621786019604.196,0.0,-0.094,-0.091,-0.471,-6.440120507399577,-6.828235517970402
1621786019609.2,-0.002,-0.101,-0.089,-0.471,-6.433930232558139,-6.834116279069767
1621786019609.952,-0.0016993948858090963,-0.10130060511419091,-0.0896012102283818,-0.471,-6.433,-6.835
1621786019614.203,0.0,-0.103,-0.093,-0.4554780007252508,-6.428001390064064,-6.830001390064064
1621786019619.206,0.0,-0.108,-0.087,-0.4372094312824852,-6.422118291429952,-6.8241182914299525
1621786019624.209,-0.002,-0.105,-0.091,-0.4189417532938474,-6.41623547987429,-6.81823547987429
1621786019626.11,-9.92481937121658e-05,-0.10538015036125756,-0.08947939855496972,-0.412,-6.414,-6.816
1621786019629.21,0.003,-0.106,-0.087,-0.4100811546017833,-6.417645806256611,-6.804678812150521
1621786019634.212,0.0,-0.105,-0.086,-0.4069848874112135,-6.423528713918694,-6.786410835726159
1621786019639.213,0.0,-0.094,-0.084,-0.40388922472419525,-6.429410473024029,-6.768146425872752
1621786019642.265,-0.003052001953125,-0.094,-0.084,-0.402,-6.433,-6.757
1621786019644.213,-0.005,-0.094,-0.084,-0.39958734862343714,-6.435412651376563,-6.759292018807734
1621786019649.214,-0.009,-0.096,-0.08,-0.3933931935352192,-6.4416068064647805,-6.765176466141542
1621786019654.213,-0.003,-0.098,-0.079,-0.3872020621985698,-6.447797937801431,-6.771058040911359
1621786019658.413,-0.003,-0.09631926533802267,-0.07984036733098866,-0.382,-6.453,-6.776
1621786019659.211,-0.003,-0.096,-0.08,-0.38106111833550066,-6.448157347204162,-6.779903771131339
1621786019664.211,-0.007,-0.094,-0.079,-0.3751773066803762,-6.417809266035625,-6.804368040644752
1621786019669.208,-0.005,-0.098,-0.086,-0.3692969425711434,-6.387478966945898,-6.828817975625246
1621786019674.206,-0.007,-0.098,-0.084,-0.36341542927994674,-6.357142740496568,-6.853272688783379
1621786019674.559,-0.007353251575707236,-0.09785869936971711,-0.084,-0.363,-6.355,-6.855
1621786019679.203,-0.012,-0.096,-0.084,-0.35724591230166536,-6.366220471011753,-6.82680497027816
1621786019684.2,-0.019,-0.096,-0.08,-0.3510540892108965,-6.3782945260387525,-6.796465037133393
1621786019689.197,-0.019,-0.093,-0.077,-0.34486226612012766,-6.390368581065752,-6.766125103988625
1621786019690.7,-0.022309839190576275,-0.09179642211251772,-0.07639821105625885,-0.343,-6.394,-6.757
1621786019694.192,-0.03,-0.089,-0.075,-0.35144039098791025,-6.406768796622736,-6.757
1621786019699.187,-0.028,-0.089,-0.079,-0.3635141097610798,-6.425034166048813,-6.757
1621786019704.182,-0.035,-0.075,-0.075,-0.37558723842091724,-6.443298642739337,-6.757
1621786019706.835,-0.03234381110676574,-0.08084361556511536,-0.0760624755572937,-0.382,-6.453,-6.757
1621786019709.176,-0.03,-0.086,-0.077,-0.3849025471826616,-6.461562514188852,-6.765562514188852
1621786019714.169,-0.031,-0.077,-0.072,-0.3910929729238872,-6.479824270125468,-6.783824270125467
1621786019719.163,-0.026,-0.079,-0.072,-0.3972849121426301,-6.498090490820759,-6.802090490820759
1621786019722.966,-0.022191628771209233,-0.08509339396606522,-0.07428502273727446,-0.402,-6.512,-6.816
1621786019724.156,-0.021,-0.087,-0.075,-0.40414017927442314,-6.513402186421174,-6.816
1621786019729.147,-0.009,-0.084,-0.073,-0.4131167252134941,-6.519283371691599,-6.816
1621786019734.14,0.0,-0.091,-0.077,-0.422096783962207,-6.525166858457998,-6.816
1621786019739.09,0.0019835648601056544,-0.08604108784973585,-0.07898356486010566,-0.431,-6.531,-6.816
1621786019739.131,0.002,-0.086,-0.079,-0.43092621647408036,-6.530900773878935,-6.815699777377293
1621786019744.123,0.007,-0.087,-0.08,-0.42194614650694373,-6.518824128061062,-6.7791601823385985
1621786019749.113,0.0,-0.084,-0.082,-0.41296959004104133,-6.506752207296572,-6.742634883615271
1621786019754.102,0.0,-0.082,-0.079,-0.4039947903257561,-6.494682649058776,-6.706116733049629
1621786019755.211,-0.00044444444444444447,-0.082,-0.079,-0.402,-6.492,-6.698
1621786019759.092,-0.002,-0.082,-0.079,-0.402,-6.482607314375748,-6.688607314375748
1621786019764.081,-0.002,-0.087,-0.075,-0.402,-6.470533367673125,-6.676533367673126
1621786019769.069,-0.012,-0.084,-0.077,-0.402,-6.458461784356205,-6.664461784356204
1621786019771.326,-0.014261805725471007,-0.0849047222901884,-0.0760952777098116,-0.402,-6.453,-6.659
1621786019774.058,-0.017,-0.086,-0.075,-0.402,-6.459613765513479,-6.669005440135776
1621786019779.045,-0.021,-0.086,-0.075,-0.402,-6.471685320725554,-6.687267536482247
1621786019784.032,-0.023,-0.087,-0.07,-0.402,-6.483757466927308,-6.705530526890031
1621786019787.437,-0.021634454398590103,-0.08358613599647526,-0.0686344543985901,-0.402,-6.492,-6.718
1621786019789.019,-0.021,-0.082,-0.068,-0.4000352324065371,-6.4958312968072525,-6.721831296807252
1621786019794.005,-0.023,-0.075,-0.072,-0.39384318243837363,-6.507905794245171,-6.733905794245171
1621786019798.99,-0.023,-0.08,-0.07,-0.3876520420848367,-6.519978517934568,-6.745978517934568
1621786019803.541,-0.021174509131861138,-0.07726176369779171,-0.07,-0.382,-6.531,-6.757
1621786019803.976,-0.021,-0.077,-0.07,-0.382,-6.531,-6.757513388931008
1621786019808.96,-0.017,-0.075,-0.07,-0.382,-6.531,-6.76339460197119
1621786019813.945,-0.009,-0.08,-0.065,-0.382,-6.531,-6.769277255496588
1621786019818.928,-0.016,-0.08,-0.07,-0.382,-6.531,-6.775157316148597
1621786019819.642,-0.014996815286624204,-0.08,-0.06971337579617835,-0.382,-6.531,-6.776
1621786019823.911,-0.009,-0.08,-0.068,-0.382,-6.531,-6.760617846471204
1621786019828.895,-0.009,-0.082,-0.07,-0.382,-6.531,-6.742658071561832
1621786019833.876,-0.005,-0.086,-0.068,-0.382,-6.531,-6.724709733197834
1621786019835.738,-0.006868446839784419,-0.086,-0.068,-0.382,-6.531,-6.718
1621786019838.859,-0.01,-0.086,-0.068,-0.3744359799116964,-6.527314964572365,-6.706556995251028
1621786019843.84,-0.012,-0.072,-0.063,-0.36236301567312507,-6.521433264045881,-6.688292767300369
1621786019848.821,-0.01,-0.073,-0.065,-0.3502906431595078,-6.515551851795657,-6.670029434523358
1621786019851.829,-0.011208059613687617,-0.06997985096578097,-0.06379194038631239,-0.343,-6.512,-6.659
1621786019853.801,-0.012,-0.068,-0.063,-0.3454520340012143,-6.509547965998785,-6.659
1621786019858.781,-0.012,-0.072,-0.059,-0.3516445051608986,-6.503355494839101,-6.659
1621786019863.76,-0.019,-0.075,-0.052,-0.3578357619914997,-6.497164238008501,-6.659
1621786019867.913,-0.017332091381507993,-0.06499254828904795,-0.05116604569075399,-0.363,-6.492,-6.659
1621786019868.74,-0.017,-0.063,-0.051,-0.3619715639090895,-6.492,-6.661005450377275
1621786019873.718,-0.019,-0.065,-0.056,-0.3557802996948396,-6.492,-6.673078415595063
1621786019878.696,-0.021,-0.063,-0.044,-0.34958903548058967,-6.492,-6.68515138081285
1621786019883.674,-0.026,-0.066,-0.049,-0.34339777126633975,-6.492,-6.697224346030638
1621786019883.994,-0.02587144889848388,-0.06593572444924195,-0.04855007114469359,-0.343,-6.492,-6.698
1621786019888.65,-0.024,-0.065,-0.042,-0.34879243105333496,-6.497792431053335,-6.703792431053335
1621786019893.627,-0.026,-0.056,-0.042,-0.35498426679625805,-6.503984266796258,-6.709984266796258
1621786019898.603,-0.031,-0.049,-0.038,-0.3611748876199733,-6.510174887619973,-6.716174887619974
1621786019900.07,-0.03011532610295922,-0.049,-0.03711532610295922,-0.363,-6.512,-6.718
1621786019903.578,-0.028,-0.049,-0.035,-0.363,-6.512,-6.730661338843477
1621786019908.553,-0.023,-0.051,-0.031,-0.363,-6.512,-6.748618797289495
1621786019913.529,-0.021,-0.051,-0.028,-0.363,-6.512,-6.766579780607128
1621786019916.139,-0.018900731503755708,-0.049950365751877855,-0.026950365751877852,-0.363,-6.512,-6.776
1621786019918.502,-0.017,-0.049,-0.026,-0.363,-6.512,-6.773205619121423
1621786019923.477,-0.014,-0.04,-0.024,-0.363,-6.512,-6.767322377718011
1621786019928.449,-0.014,-0.031,-0.024,-0.363,-6.512,-6.76144288948656
1621786019932.206,-0.008711683848797253,-0.03024452626411389,-0.023244526264113892,-0.363,-6.512,-6.757
1621786019933.422,-0.007,-0.03,-0.023,-0.364438413837128,-6.510485880171443,-6.7554858801714435
1621786019938.395,-0.009,-0.031,-0.021,-0.3703205763443475,-6.504294130163845,-6.749294130163845
1621786019943.366,-0.007,-0.037,-0.016,-0.3762004286105116,-6.498104811988935,-6.743104811988935
1621786019948.269,-0.0050273071067236386,-0.02812288198025637,-0.012054614213447277,-0.382,-6.492,-6.737
1621786019948.337,-0.005,-0.028,-0.012,-0.38220714405194567,-6.492,-6.737084548592631
1621786019953.309,-0.003,-0.023,-0.012,-0.3973823086631894,-6.492,-6.743278493331914
1621786019958.279,0.0,-0.024,-0.014,-0.41255076717203204,-6.492,-6.749469700886544
1621786019963.249,-0.007,-0.021,-0.002,-0.42771922568087467,-6.492,-6.755660908441173
1621786019964.324,-0.00743266348941188,-0.02143266348941188,-0.0030816587235297007,-0.431,-6.492,-6.757
1621786019968.218,-0.009,-0.023,-0.007,-0.4358520800060841,-6.492,-6.757
1621786019973.187,-0.005,-0.031,-0.007,-0.44204357745836187,-6.492,-6.757
1621786019978.156,-0.012,-0.024,-0.007,-0.44823507491063963,-6.492,-6.757
1621786019980.375,-0.011106512656672401,-0.021766281641681002,-0.007893487343327598,-0.451,-6.492,-6.757
1621786019983.123,-0.01,-0.019,-0.009,-0.451,-6.488574558734023,-6.760254169202677
1621786019988.092,-0.003,-0.014,-0.005,-0.451,-6.482380706025563,-6.766138329275715
1621786019993.058,-0.003,-0.021,-0.005,-0.451,-6.476190505173464,-6.77201902008521
1621786019996.42,-0.002323008849557522,-0.021,-0.002969026548672566,-0.451,-6.472,-6.776
1621786019998.024,-0.002,-0.021,-0.002,-0.45300012177301513,-6.472,-6.78000024354603
1621786020002.991,0.0,-0.024,-0.005,-0.4591938017535314,-6.472,-6.792387603507063
1621786020007.956,0.005,-0.023,0.0,-0.4653850462737457,-6.472,-6.804770092547491
1621786020012.459,0.0004651848937844219,-0.01755822187254131,-0.00816266719118804,-0.471,-6.472,-6.816
1621786020012.921,0.0,-0.017,-0.009,-0.4715473286743099,-6.47145267132569,-6.814847729106716
1621786020017.886,0.002,-0.019,-0.003,-0.477430533351604,-6.465569466648397,-6.802462035049254
1621786020022.85,0.005,-0.021,-0.007,-0.48331258088582346,-6.459687419114177,-6.790078777082477
1621786020027.813,0.002,-0.019,-0.007,-0.4891931819911996,-6.4538068180088,-6.777698564229053
1621786020028.494,0.0021371661830521813,-0.01872566763389564,-0.006314169084739094,-0.49,-6.453,-6.776
1621786020032.777,0.003,-0.017,-0.002,-0.47957925036933247,-6.453,-6.765579250369332
1621786020037.74,0.0,-0.016,-0.002,-0.4675048660503511,-6.453,-6.753504866050351
1621786020042.701,-0.002,-0.017,-0.003,-0.45543523355518667,-6.453,-6.741435233555187
1621786020044.524,-0.0012653844261891877,-0.01516346106547297,-0.0018980766392837818,-0.451,-6.453,-6.737
1621786020047.664,0.0,-0.012,0.0,-0.4586416068735433,-6.449081227244337,-6.740918772755664
1621786020052.625,-0.014,-0.014,-0.003,-0.470714181253142,-6.442890163459928,-6.747109836540073
1621786020057.586,-0.012,-0.016,0.0,-0.48278675563274076,-6.436699099675518,-6.753300900324482
1621786020060.55,-0.014988038984051981,-0.016597607796810396,-0.0011952155936207915,-0.49,-6.433,-6.757
1621786020062.546,-0.017,-0.017,-0.002,-0.487632746060292,-6.430632746060292,-6.764350946444356
1621786020067.505,-0.017,-0.017,0.0,-0.48175095254061634,-6.424750952540616,-6.782615463163349
1621786020072.465,-0.021,-0.016,0.0,-0.4758677111592038,-6.418867711159203,-6.800884475874051
1621786020076.569,-0.01768964159117763,-0.011034462386766444,0.0,-0.471,-6.414,-6.816
1621786020077.424,-0.017,-0.01,0.0,-0.471,-6.412932333348577,-6.817014283318851
1621786020082.383,-0.014,-0.012,0.0,-0.471,-6.406739744820963,-6.822897242420085
1621786020087.341,-0.012,-0.014,0.002,-0.471,-6.400548375786954,-6.828779043002394
1621786020092.298,-0.017,-0.012,0.0,-0.471,-6.394358226246551,-6.834659685065777
1621786020092.585,-0.016710633896468503,-0.012231492882825198,0.00011574644141259913,-0.471,-6.394,-6.835
1621786020097.255,-0.012,-0.016,0.002,-0.4651666031320047,-6.388166603132005,-6.829458272975405
1621786020102.211,-0.014,-0.005,0.003,-0.45897578566962993,-6.3819757856696295,-6.823576996386148
1621786020107.167,-0.016,-0.009,0.003,-0.45278496820725517,-6.375784968207255,-6.817695719796892
1621786020108.596,-0.01628832512315271,-0.009,0.0035766502463054186,-0.451,-6.374,-6.816
1621786020112.123,-0.017,-0.009,0.005,-0.45540665558419374,-6.365407021610822,-6.824592978389178
1621786020117.078,-0.017,-0.01,0.0,-0.4615970809376382,-6.353335692171605,-6.836664307828395
1621786020122.033,-0.019,-0.007,0.007,-0.467787811313273,-6.341263767939117,-6.848736232060883
1621786020124.604,-0.020037945988566924,-0.011670756948551155,0.0033671890400157694,-0.471,-6.335,-6.855
1621786020126.987,-0.021,-0.016,0.0,-0.4738297070491303,-6.337978638999084,-6.857829707049131
1621786020131.94,-0.03,-0.012,0.003,-0.47971089411046686,-6.344169362221544,-6.863710894110467
1621786020136.894,-0.024,-0.016,0.007,-0.48559353066829414,-6.350361611229784,-6.869593530668294
1621786020140.605,-0.02699758418379924,-0.007756643494552089,0.00550120790810038,-0.49,-6.355,-6.874
1621786020141.846,-0.028,-0.005,0.005,-0.4931027957514345,-6.353448602124283,-6.874
1621786020146.798,-0.023,-0.016,0.003,-0.5054846783054572,-6.347257660847272,-6.874
1621786020151.75,-0.023,-0.014,0.003,-0.5178659504334026,-6.341067024783299,-6.874
1621786020156.603,-0.025940677548202572,-0.012039548301198284,0.003,-0.53,-6.335,-6.874
1621786020156.701,-0.026,-0.012,0.003,-0.5301163081808051,-6.334877570335995,-6.874122429664005
1621786020161.652,-0.024,-0.01,0.003,-0.5359984276489536,-6.32868586563268,-6.880314134367319
1621786020166.602,-0.024,0.0,0.0,-0.5418790968904087,-6.322495687483781,-6.8865043125162195
1621786020171.552,-0.028,-0.007,0.002,-0.5477597661318638,-6.316305509334881,-6.89269449066512
1621786020172.596,-0.028421883478861428,-0.007,0.0015781165211385725,-0.549,-6.315,-6.894
1621786020176.501,-0.03,-0.007,0.0,-0.5443584574264987,-6.319885834287897,-6.879586788850706
1621786020181.45,-0.03,-0.012,0.002,-0.5384760748377243,-6.32607781596029,-6.861320442917144
1621786020186.398,-0.035,-0.01,0.0,-0.5325948529973272,-6.332268575792287,-6.843057701412753
1621786020188.581,-0.03411775442750728,-0.009558877213753638,0.0,-0.53,-6.335,-6.835
1621786020191.347,-0.033,-0.009,0.0,-0.536750252085434,-6.33153833226388,-6.831711415650686
1621786020196.294,-0.037,-0.014,-0.002,-0.5488237235310294,-6.325346808445626,-6.825829468023344
1621786020201.241,-0.04,0.0,-0.005,-0.5608971949766248,-6.319155284627373,-6.819947520396004
1621786020204.561,-0.043356286095068856,-0.008055086628165259,-0.0029862283429586854,-0.569,-6.315,-6.816
1621786020206.187,-0.045,-0.012,-0.002,-0.5709340047990952,-6.3170357945253635,-6.816
1621786020211.133,-0.049,-0.016,-0.005,-0.5768170383163429,-6.323228461385624,-6.816
1621786020216.078,-0.052,-0.01,-0.009,-0.5826986198780357,-6.329419599871617,-6.816
1621786020220.535,-0.053802260723629,-0.011802260723629004,-0.011703391085443507,-0.588,-6.335,-6.816
1621786020221.024,-0.054,-0.012,-0.012,-0.5874182043324722,-6.335,-6.817194212159662
1621786020225.968,-0.056,-0.017,-0.014,-0.5815360555241312,-6.335,-6.82926809655573
1621786020230.912,-0.058,-0.014,-0.017,-0.5756539067157904,-6.335,-6.841341980951799
1621786020235.856,-0.059,-0.026,-0.017,-0.5697720483695901,-6.335,-6.8534152691361045
1621786020236.505,-0.05886872129204326,-0.02626255741591347,-0.017918950955697142,-0.569,-6.335,-6.855
1621786020240.799,-0.058,-0.028,-0.024,-0.5636201960574408,-6.35087042163055,-6.855
1621786020245.742,-0.056,-0.031,-0.024,-0.5574277172001407,-6.369138234259585,-6.855
1621786020250.684,-0.054,-0.026,-0.028,-0.5512361559283672,-6.387403340011317,-6.855
1621786020252.469,-0.052916246664690185,-0.02925126000592944,-0.02655499555292025,-0.549,-6.394,-6.855
1621786020255.625,-0.051,-0.035,-0.024,-0.5452428409716699,-6.390045095759652,-6.847287936731322
1621786020260.567,-0.049,-0.031,-0.031,-0.5393596187970385,-6.383852230312672,-6.835211849109711
1621786020265.508,-0.051,-0.023,-0.031,-0.5334772685553448,-6.3776602826898365,-6.823137551245181
1621786020268.429,-0.053956410002965305,-0.027730256004744488,-0.032182564001186124,-0.53,-6.374,-6.816
1621786020270.448,-0.056,-0.031,-0.033,-0.5274692453638534,-6.374,-6.810938490727707
1621786020275.388,-0.059,-0.038,-0.03,-0.5212773119529959,-6.374,-6.798554623905992
1621786020280.327,-0.059,-0.038,-0.035,-0.5150866026072587,-6.374,-6.786173205214517
1621786020284.385,-0.06064322079976274,-0.03964322079976274,-0.03335677920023726,-0.51,-6.374,-6.776
1621786020285.266,-0.061,-0.04,-0.033,-0.5111047677355169,-6.375104767735516,-6.7771047677355165
1621786020290.204,-0.061,-0.038,-0.035,-0.5172962424427948,-6.381296242442795,-6.783296242442795
1621786020295.142,-0.065,-0.042,-0.035,-0.5234877171500727,-6.387487717150073,-6.789487717150073
1621786020300.08,-0.066,-0.042,-0.038,-0.5296791918573506,-6.393679191857351,-6.795679191857351
1621786020300.336,-0.06610366999703235,-0.042,-0.038,-0.53,-6.394,-6.796
1621786020305.016,-0.068,-0.042,-0.038,-0.5241299854551023,-6.394,-6.796
1621786020309.952,-0.075,-0.04,-0.044,-0.5179393707417898,-6.394,-6.796
1621786020314.889,-0.07,-0.047,-0.042,-0.5117472249866034,-6.394,-6.796
1621786020316.282,-0.07084683882457703,-0.047,-0.04256455921638468,-0.51,-6.394,-6.796
1621786020319.824,-0.073,-0.047,-0.044,-0.5013343951971084,-6.402665604802892,-6.796
1621786020324.759,-0.072,-0.047,-0.042,-0.48926060587496556,-6.414739394125035,-6.796
1621786020329.694,-0.072,-0.052,-0.042,-0.4771868165528226,-6.426813183447178,-6.796
1621786020332.223,-0.06994941846077704,-0.05507587230883445,-0.044563226924028705,-0.471,-6.433,-6.796
1621786020334.627,-0.068,-0.058,-0.047,-0.4679830570789546,-6.438883038696038,-6.799016942921045
1621786020339.562,-0.066,-0.056,-0.045,-0.46178985263028893,-6.450959787370937,-6.805210147369711
1621786020344.494,-0.07,-0.047,-0.047,-0.4556006311467876,-6.463028769263764,-6.811399368853213
1621786020348.16,-0.06331168959714936,-0.05368831040285064,-0.045513708799366524,-0.451,-6.472,-6.816
1621786020349.427,-0.061,-0.056,-0.045,-0.4494093904195654,-6.473590609580435,-6.822203377363695
1621786020354.359,-0.063,-0.058,-0.044,-0.44321827208924575,-6.479781727910755,-6.846348738851941
1621786020359.291,-0.058,-0.049,-0.047,-0.4370268472830917,-6.485973152716908,-6.870495295595942
1621786020364.092,-0.05605229534987372,-0.049,-0.04505229534987372,-0.431,-6.492,-6.894
1621786020364.221,-0.056,-0.049,-0.045,-0.4308462316641376,-6.491522508851796,-6.894
1621786020369.153,-0.047,-0.051,-0.045,-0.4249628454499471,-6.473253046397204,-6.894
1621786020374.083,-0.042,-0.049,-0.042,-0.4190820802869361,-6.454991722996275,-6.894
1621786020379.013,-0.035,-0.052,-0.042,-0.4132013151239251,-6.436730399595346,-6.894
1621786020380.02,-0.03540863836742781,-0.05281727673485561,-0.042,-0.412,-6.433,-6.894
1621786020383.942,-0.037,-0.056,-0.042,-0.399929583512237,-6.408859167024474,-6.869859167024474
1621786020388.87,-0.037,-0.052,-0.042,-0.3847619149849721,-6.378523829969944,-6.839523829969944
1621786020393.799,-0.042,-0.056,-0.035,-0.3695919922713611,-6.348183984542722,-6.809183984542722
1621786020395.941,-0.04504240772851127,-0.05208833292048551,-0.03630388902650483,-0.363,-6.335,-6.796
1621786020398.727,-0.049,-0.047,-0.038,-0.35949895692723033,-6.331498956927231,-6.789172966008099
1621786020403.654,-0.059,-0.052,-0.033,-0.3533077064670512,-6.3253077064670515,-6.77710002761075
1621786020408.581,-0.063,-0.045,-0.03,-0.347116456006872,-6.319116456006872,-6.7650270892134
1621786020411.857,-0.06632507310303812,-0.04433498537939237,-0.027339941517569508,-0.343,-6.315,-6.757
1621786020413.507,-0.068,-0.044,-0.026,-0.34507420364573743,-6.319148407291475,-6.763118900754925
1621786020418.434,-0.07,-0.038,-0.024,-0.3512673540784386,-6.331534708156878,-6.781388694531394
1621786020423.359,-0.072,-0.038,-0.019,-0.35745774258884183,-6.343915485177684,-6.799650340637084
1621786020427.768,-0.072,-0.04337260151717983,-0.020790867172393278,-0.363,-6.355,-6.816
1621786020428.283,-0.072,-0.044,-0.021,-0.36361497260547276,-6.356909651774889,-6.817262312190181
1621786020433.208,-0.073,-0.033,-0.017,-0.3694973065884989,-6.3751758467748125,-6.829336576681656
1621786020438.132,-0.066,-0.031,-0.017,-0.3753784741938949,-6.3934384198652525,-6.841408447029574
1621786020443.055,-0.066,-0.033,-0.017,-0.38125818382725335,-6.411696465568839,-6.853477324698047
1621786020443.676,-0.06511706083593634,-0.03236932916852596,-0.017,-0.382,-6.414,-6.855
1621786020447.979,-0.059,-0.028,-0.017,-0.382,-6.39803385536619,-6.876107784431138
1621786020452.901,-0.061,-0.031,-0.014,-0.382,-6.379771303546753,-6.900251497005988
1621786020457.824,-0.063,-0.026,-0.014,-0.382,-6.361504222324582,-6.92440119760479
1621786020459.577,-0.06050657339881927,-0.027781019000843378,-0.01328759239966265,-0.382,-6.355,-6.933
1621786020462.745,-0.056,-0.031,-0.012,-0.3859861772385194,-6.355,-6.901708508677622
1621786020467.666,-0.068,-0.024,-0.014,-0.392177545691906,-6.355,-6.853106266318537
1621786020472.587,-0.068,-0.023,-0.012,-0.39836891414529263,-6.355,-6.804504023959453
1621786020475.473,-0.07327906515159034,-0.020653748821515407,-0.007894060437651963,-0.402,-6.355,-6.776
1621786020477.507,-0.077,-0.019,-0.005,-0.4057126701699395,-6.3599929012630225,-6.7735675609231425
1621786020482.426,-0.077,-0.017,-0.007,-0.41469045204511235,-6.372066469991703,-6.767685565901478
1621786020487.346,-0.084,-0.017,-0.005,-0.42367001628714546,-6.384142435696506,-6.761802403122215
1621786020491.362,-0.08563291641850307,-0.01863291641850308,-0.002550625372245384,-0.431,-6.394,-6.757
1621786020492.265,-0.086,-0.019,-0.002,-0.4354900023053869,-6.394,-6.760353292860985
1621786020497.184,-0.086,-0.03,-0.002,-0.4599543226004765,-6.394,-6.778624114347191
1621786020502.101,-0.08,-0.014,-0.002,-0.4844077153615615,-6.394,-6.796886774763697
1621786020507.018,-0.08,-0.016,-0.003,-0.5088611081226466,-6.394,-6.815149435180205
1621786020507.247,-0.08,-0.015813704071499502,-0.0030931479642502483,-0.51,-6.394,-6.816
1621786020511.935,-0.08,-0.012,-0.005,-0.51,-6.376848089384121,-6.83867540725489
1621786020516.922,-0.073,-0.023,-0.003,-0.51,-6.358601965118392,-6.862797402046872
1621786020521.976,-0.072,-0.017,-0.007,-0.51,-6.340111094289348,-6.887242960092049
1621786020523.373,-0.07346838431533566,-0.01670632313693287,-0.006412646273865736,-0.51,-6.335,-6.894
1621786020526.733,-0.077,-0.016,-0.005,-0.5057248256473184,-6.3183268200245415,-6.885663410012271
1621786020531.664,-0.073,-0.028,-0.01,-0.499450303661018,-6.29385618427797,-6.873428092138985
1621786020536.596,-0.08,-0.026,-0.007,-0.4931748497227443,-6.269381913918703,-6.861190956959351
1621786020539.091,-0.08354281186549795,-0.028530579903927104,-0.009530579903927104,-0.49,-6.257,-6.855
1621786020541.526,-0.087,-0.031,-0.012,-0.4840372073770869,-6.253942157629275,-6.845979365006363
1621786020546.456,-0.099,-0.026,-0.007,-0.4719633445246746,-6.247750433089577,-6.827713777614251
1621786020551.386,-0.105,-0.026,-0.009,-0.4598900795658373,-6.241559015161968,-6.809449094727805
1621786020555.016,-0.1160473525186983,-0.0223175491604339,-0.006054039328347119,-0.451,-6.237,-6.796
1621786020556.315,-0.12,-0.021,-0.005,-0.451,-6.23536799803669,-6.800814405791766
1621786020561.244,-0.136,-0.031,-0.005,-0.451,-6.22917467329284,-6.819084713786122
1621786020566.172,-0.148,-0.028,-0.003,-0.451,-6.222982268850849,-6.8373523068899935
1621786020570.933,-0.15669674446261334,-0.028,-0.004932609880580745,-0.451,-6.217,-6.855
1621786020571.099,-0.157,-0.028,-0.005,-0.4504888237730697,-6.217824141263826,-6.855615497905896
1621786020576.026,-0.164,-0.026,-0.005,-0.4353189175091665,-6.242281745240323,-6.87388130340733
1621786020580.952,-0.162,-0.024,-0.009,-0.4201512664344998,-6.26673571329948,-6.892144393476827
1621786020585.878,-0.164,-0.03,-0.007,-0.4049836153598331,-6.291189681358636,-6.910407483546323
1621786020586.847,-0.16360658175149922,-0.030196709124250383,-0.007393418248500768,-0.402,-6.296,-6.914
1621786020590.804,-0.162,-0.031,-0.009,-0.40921450169605994,-6.296,-6.923702260901598
1621786020595.728,-0.162,-0.033,0.0,-0.4181921229144603,-6.296,-6.935775613574619
1621786020600.652,-0.162,-0.023,-0.005,-0.4271697441328606,-6.296,-6.947848966247641
1621786020602.753,-0.16157341860003965,-0.025132906999801707,-0.005853162799920682,-0.431,-6.296,-6.953
1621786020605.577,-0.161,-0.028,-0.007,-0.4381025282839292,-6.2716738406275425,-6.958149333005849
1621786020610.5,-0.166,-0.035,-0.01,-0.4504845186743011,-6.229265523540518,-6.967126276038869
1621786020615.423,-0.173,-0.037,-0.01,-0.4628665090646731,-6.186857206453494,-6.976103219071888
1621786020618.657,-0.17759930555555556,-0.037,-0.011314087301587302,-0.471,-6.159,-6.982
1621786020620.345,-0.18,-0.037,-0.012,-0.4449851644807568,-6.173547071290352,-6.968514758730842
1621786020625.266,-0.18,-0.044,-0.023,-0.3691417974629112,-6.215957443867678,-6.9292000337868975
1621786020630.188,-0.175,-0.047,-0.019,-0.2932871425499892,-6.2583741284516385,-6.88987945756673
1621786020634.554,-0.16967556570067488,-0.04433778285033743,-0.019,-0.226,-6.296,-6.855
1621786020635.108,-0.169,-0.044,-0.019,-0.22460570866746551,-6.296662288382954,-6.8515839862352905
1621786020640.028,-0.169,-0.038,-0.017,-0.2122217715918518,-6.302544658493871,-6.821243340400037
1621786020644.948,-0.168,-0.033,-0.017,-0.19983844901219774,-6.308426736719206,-6.7909042000798845
1621786020649.866,-0.166,-0.037,-0.017,-0.1874600424002212,-6.314306479859895,-6.760577103880542
1621786020650.446,-0.166235807860262,-0.03676419213973799,-0.016410480349344978,-0.186,-6.315,-6.757
1621786020654.786,-0.168,-0.035,-0.012,-0.186,-6.299155158370345,-6.7621905515683345
1621786020659.703,-0.168,-0.03,-0.016,-0.186,-6.281203138207134,-6.768071385759732
1621786020664.62,-0.169,-0.033,-0.009,-0.186,-6.263250226682445,-6.773952511948854
1621786020666.332,-0.171436656076251,-0.03125953137410643,-0.010740468625893566,-0.186,-6.257,-6.776
1621786020669.538,-0.176,-0.028,-0.014,-0.1979101040689899,-6.252962676586783,-6.78791010406899
1621786020674.454,-0.18,-0.028,-0.012,-0.21617250549551903,-6.246772032035417,-6.806172505495519
1621786020679.371,-0.187,-0.031,-0.017,-0.23443853473321752,-6.240580157717553,-6.8244385347332175
1621786020682.214,-0.18410769460036758,-0.034470766479558886,-0.01642153892007352,-0.245,-6.237,-6.835
1621786020684.286,-0.182,-0.037,-0.016,-0.2500887815978842,-6.237,-6.847787194784427
1621786020689.2,-0.188,-0.038,-0.014,-0.2621588966111077,-6.237,-6.8781172273817575
1621786020694.114,-0.187,-0.033,-0.017,-0.2742290116243311,-6.237,-6.908447259979089
1621786020698.092,-0.18295240461049284,-0.04190470985691574,-0.021857114467408584,-0.284,-6.237,-6.933
1621786020699.028,-0.182,-0.044,-0.023,-0.2782205746631391,-6.240479449947702,-6.930700024610841
1621786020703.941,-0.176,-0.044,-0.019,-0.24788688242170676,-6.258741570786932,-6.918628453208639
1621786020708.854,-0.182,-0.052,-0.023,-0.21755168276625853,-6.277004599150926,-6.906556281917185
1621786020713.766,-0.173,-0.056,-0.021,-0.1872225127668738,-6.295263997415862,-6.894486510182736
1621786020713.964,-0.1733627913912222,-0.056,-0.021,-0.186,-6.296,-6.894
1621786020718.678,-0.182,-0.056,-0.021,-0.15123864772954593,-6.296,-6.858941542154585
1621786020723.59,-0.183,-0.061,-0.016,-0.11501540308061613,-6.296,-6.8224086971240405
1621786020728.5,-0.19,-0.045,-0.012,-0.07880836167233447,-6.296,-6.78589219382338
1621786020729.83,-0.19108358609716075,-0.04689627567003132,-0.012,-0.069,-6.296,-6.776
1621786020733.41,-0.194,-0.052,-0.012,-0.05342651540805961,-6.296,-6.771711649170335
1621786020738.32,-0.195,-0.056,-0.005,-0.032065680509805135,-6.296,-6.7658296801403806
1621786020743.228,-0.202,-0.059,0.0,-0.010714404457716348,-6.296,-6.759950343256472
1621786020745.691,-0.21002745312577709,-0.05849828417963893,0.001505147461083205,0.0,-6.296,-6.757
1621786020748.137,-0.218,-0.058,0.003,-0.007559995688194894,-6.286897148048909,-6.759931426899504
1621786020753.045,-0.222,-0.063,0.009,-0.022729033847670086,-6.268632387816071,-6.765813298838892
1621786020757.953,-0.232,-0.056,0.009,-0.03789807200714528,-6.250367627583233,-6.771695170778281
1621786020761.545,-0.232,-0.0625879104477612,0.01485592039800995,-0.049,-6.237,-6.776
1621786020762.86,-0.232,-0.065,0.017,-0.045764315416602495,-6.243471369166795,-6.776
1621786020767.766,-0.239,-0.063,0.016,-0.03369431695672263,-6.267611366086555,-6.776
1621786020772.672,-0.239,-0.066,0.021,-0.021624318496842754,-6.291751363006314,-6.776
1621786020777.397,-0.24381657541065205,-0.059256794425087106,0.02388994524639124,-0.01,-6.315,-6.776
1621786020777.577,-0.244,-0.059,0.024,-0.01,-6.31545423028921,-6.776669989676584
1621786020782.482,-0.243,-0.07,0.031,-0.01,-6.32783678217593,-6.794934253709496
1621786020787.387,-0.239,-0.065,0.028,-0.01,-6.34021933406265,-6.813198517742408
1621786020792.29,-0.239,-0.059,0.035,-0.01,-6.352596955362784,-6.831455509160105
1621786020793.242,-0.23802927849424887,-0.060359010108051586,0.035388288602300456,-0.01,-6.355,-6.835
1621786020797.193,-0.234,-0.066,0.037,-0.0050114818525082835,-6.355,-6.825272389612391
1621786020802.096,-0.232,-0.07,0.042,0.001178546659474455,-6.355,-6.813201834014025
1621786020806.998,-0.227,-0.066,0.045,0.007367650458503508,-6.355,-6.801133081605919
1621786020809.083,-0.2252989742057564,-0.06685051289712181,0.0467010257942436,0.01,-6.355,-6.796
1621786020811.901,-0.223,-0.068,0.049,0.013381306278524734,-6.351440730233132,-6.792440730233132
1621786020816.801,-0.225,-0.065,0.059,0.019261240286172446,-6.345251326014555,-6.786251326014555
1621786020821.702,-0.227,-0.059,0.066,0.025142053163932407,-6.339060996669545,-6.780060996669545
1621786020824.917,-0.22831224154252405,-0.05834387922873798,0.07059284539883413,0.029,-6.335,-6.776
1621786020826.602,-0.229,-0.058,0.073,0.029,-6.341281126604146,-6.778129195459033
1621786020831.501,-0.223,-0.056,0.08,0.029,-6.3595420779861795,-6.784319348469891
1621786020836.4,-0.229,-0.059,0.087,0.029,-6.377803029368214,-6.79050950148075
1621786020840.745,-0.229,-0.05633921363432501,0.09320850151990831,0.029,-6.394,-6.796
1621786020841.299,-0.229,-0.056,0.094,0.02798464648335031,-6.393299756195414,-6.799431194642471
1621786020846.197,-0.222,-0.049,0.103,0.019007113538869858,-6.387108354164738,-6.829769064592785
1621786020851.095,-0.215,-0.051,0.106,0.010029580594389409,-6.380916952134061,-6.860106934543098
1621786020855.992,-0.215,-0.044,0.113,0.0010538376076289213,-6.3747267845569855,-6.890438755670772
1621786020856.567,-0.21476513413782786,-0.044,0.11346973172434427,0.0,-6.374,-6.894
1621786020860.888,-0.213,-0.044,0.117,-0.018852266938359657,-6.374,-6.8994644251995245
1621786020865.784,-0.199,-0.049,0.119,-0.040212985689806885,-6.374,-6.905655937881104
1621786020870.679,-0.194,-0.047,0.126,-0.06156944380123189,-6.374,-6.91184621559456
1621786020872.382,-0.1926085568963798,-0.047,0.12634786077590507,-0.069,-6.374,-6.914
1621786020875.575,-0.19,-0.047,0.127,-0.08878883982336412,-6.366124849458049,-6.905922922521076
1621786020880.469,-0.183,-0.044,0.136,-0.11912123645122441,-6.354053793657165,-6.893542352468888
1621786020885.362,-0.176,-0.045,0.14,-0.14944758052064355,-6.341985146527499,-6.881164252848716
1621786020888.194,-0.176,-0.050208021550434,0.141736007183478,-0.167,-6.335,-6.874
1621786020890.256,-0.176,-0.054,0.143,-0.18996491526209275,-6.309425435276306,-6.863822367099754
1621786020895.148,-0.171,-0.061,0.14,-0.2444460906239862,-6.248753217259652,-6.839677300746188
1621786020900.04,-0.164,-0.056,0.143,-0.2989299850144449,-6.188077971233914,-6.815531029368598
1621786020903.997,-0.1696609120846223,-0.05761740345274923,0.13733908791537772,-0.343,-6.139,-6.796
1621786020904.933,-0.171,-0.058,0.136,-0.364509365727003,-6.1209866468842735,-6.7901930637982195
1621786020909.823,-0.169,-0.07,0.134,-0.4768753245548961,-6.026884025717112,-6.759857350395648
1621786020914.715,-0.171,-0.077,0.124,-0.589291774851632,-5.9327391196834816,-6.729508005687438
1621786020919.604,-0.173,-0.08,0.113,-0.7016352930267062,-5.838655291790307,-6.699178350642928
1621786020919.794,-0.17346621722846442,-0.08054392009987515,0.11241722846441948,-0.706,-5.835,-6.698
1621786020924.493,-0.185,-0.094,0.098,-0.8928756338899196,-5.703770454545454,-6.648305364873222
1621786020929.383,-0.197,-0.117,0.077,-1.0873536796536798,-5.567202272727273,-6.596589069264069
1621786020934.271,-0.206,-0.136,0.054,-1.2817443413729128,-5.430695454545455,-6.544896011131725
1621786020935.585,-0.21218280805154588,-0.13895699515508717,0.047548374207082564,-1.334,-5.394,-6.531
1621786020939.159,-0.229,-0.147,0.03,-1.4471998144138571,-5.316118527683266,-6.482097680173213
1621786020944.047,-0.244,-0.168,0.005,-1.6020250541292917,-5.209598762759048,-6.415213176616146
1621786020948.934,-0.278,-0.192,-0.019,-1.7568116300649552,-5.10310559851531,-6.34834537581194
1621786020951.371,-0.294954988259979,-0.205962931508218,-0.031466903132337506,-1.834,-5.05,-6.315
1621786020953.821,-0.312,-0.22,-0.044,-1.9176676875957122,-5.037892245579841,-6.283178337741891
1621786020958.706,-0.354,-0.248,-0.077,-2.084494469967671,-5.013750336442526,-6.219728448342537
1621786020963.591,-0.401,-0.26,-0.099,-2.251321252339629,-4.989608427305211,-6.156278558943184
1621786020967.154,-0.4360028481487034,-0.2636461300154899,-0.11868910208364564,-2.373,-4.972,-6.11
1621786020968.477,-0.449,-0.265,-0.126,-2.3343443660446264,-5.02709056726395,-6.132136848946245
1621786020973.361,-0.492,-0.262,-0.134,-2.1916416612508898,-5.230465137870207,-6.213858137591681
1621786020978.244,-0.546,-0.246,-0.127,-2.048974623216662,-5.433788877541547,-6.29555900102126
1621786020982.932,-0.5949528617845539,-0.234481679580105,-0.10876265933516621,-1.912,-5.629,-6.374
1621786020983.128,-0.597,-0.234,-0.108,-1.9057846372952723,-5.642773243753676,-6.383758119446422
1621786020988.01,-0.648,-0.23,-0.087,-1.7510043035388092,-5.985766463357998,-6.626763243444069
1621786020992.893,-0.675,-0.218,-0.065,-1.5961930090714882,-6.328828291897582,-6.869816975757763
1621786020997.774,-0.7,-0.209,-0.035,-1.4414513762035976,-6.671735750332828,-7.112761339360351
1621786020998.703,-0.7,-0.2101418996648827,-0.029671134897214027,-1.412,-6.737,-7.159
1621786021002.655,-0.7,-0.215,-0.007,-1.2866476691962212,-6.928789066129782,-7.461349821898715
1621786021007.537,-0.681,-0.23,0.019,-1.1318002168189563,-7.165705668266997,-7.8348418770326775
1621786021012.416,-0.642,-0.232,0.044,-0.977053430385628,-7.402468251509989,-8.208091125909865
1621786021014.467,-0.6172021713027817,-0.24544966980188115,0.05324664798879328,-0.912,-7.502,-8.365
1621786021017.296,-0.583,-0.264,0.066,-0.8434240607328221,-7.588348237663645,-8.437166302579596
1621786021022.175,-0.51,-0.281,0.087,-0.7251458052521497,-7.737279758308157,-8.561637136881245
1621786021027.053,-0.412,-0.295,0.108,-0.6068971415291657,-7.886174018126888,-8.686076830118521
1621786021030.225,-0.3508840072057646,-0.30280204163330665,0.12035323258606885,-0.53,-7.983,-8.767
1621786021031.932,-0.318,-0.307,0.127,-0.5119082470712205,-7.9680499287175355,-8.744683226926176
1621786021036.809,-0.229,-0.305,0.148,-0.46021050021694665,-7.9253296349098115,-8.680912353561023
1621786021041.686,-0.127,-0.302,0.162,-0.40851534122605837,-7.882611479576024,-8.617144672410587
1621786021045.98,-0.03191069283139768,-0.29231497797356826,0.17344593512214657,-0.363,-7.845,-8.561
1621786021046.563,-0.019,-0.291,0.175,-0.34556420909034535,-7.824676753270912,-8.537419110807962
1621786021051.438,0.063,-0.274,0.178,-0.19976945495132387,-7.654737644943263,-8.340240218267502
1621786021056.314,0.129,-0.26,0.208,-0.05394549513238672,-7.484764494326285,-8.143021826750171
1621786021061.189,0.175,-0.248,0.255,0.09184925900663482,-7.3148253859986365,-7.945842934209711
1621786021061.729,0.17821318373071526,-0.2436788218793829,0.2605399719495091,0.108,-7.296,-7.924
1621786021066.063,0.204,-0.209,0.305,0.10249336952307095,-7.125845118262893,-7.5757056223342385
1621786021070.937,0.206,-0.169,0.354,0.09630058162078324,-6.934487972082202,-7.184011787514541
1621786021075.81,0.176,-0.14,0.391,0.09010903450949981,-6.743169166343544,-6.792396432725862
1621786021077.47,0.1637372745490982,-0.13216548096192385,0.404625250501002,0.088,-6.678,-6.659
1621786021080.683,0.14,-0.117,0.431,0.044090515502312154,-6.5258485304615,-6.572814872288259
1621786021085.555,0.087,-0.079,0.473,-0.022486018435182026,-6.295153098910649,-6.44213907079234
1621786021090.427,0.038,-0.059,0.515,-0.08906588870612334,-6.064446106576456,-6.311456720772167
1621786021093.203,0.01235595429029671,-0.047032778668805134,0.5389344426623898,-0.127,-5.933,-6.237
1621786021095.298,-0.007,-0.038,0.557,-0.20412092005401128,-5.882118840309789,-6.247389346743027
1621786021100.168,-0.047,-0.024,0.585,-0.38337179308097036,-5.763856606292002,-6.271537132746659
1621786021105.038,-0.087,-0.003,0.606,-0.5626316524654281,-5.645588443451134,-6.295686129347675
1621786021108.933,-0.12219205895623403,0.018595127086779968,0.623596029478117,-0.706,-5.551,-6.315
1621786021109.908,-0.131,0.024,0.628,-0.7309202179684224,-5.559492711098692,-6.315
1621786021114.777,-0.175,0.054,0.649,-0.8553902473103255,-5.60191160169531,-6.315
1621786021119.646,-0.223,0.068,0.661,-0.9798540356760281,-5.644328365392079,-6.315
1621786021124.514,-0.267,0.082,0.682,-1.1042928601369288,-5.686736621489451,-6.315
1621786021124.659,-0.2684003812199037,0.08268529293739968,0.6826852929373998,-1.108,-5.688,-6.315
1621786021129.381,-0.314,0.105,0.705,-1.2053273074593487,-5.76760412492817,-6.430050489990527
1621786021134.249,-0.351,0.126,0.723,-1.3056586684060942,-5.849665268912392,-6.548652067899797
1621786021139.115,-0.38,0.147,0.735,-1.4059497740297255,-5.93169348801814,-6.667206060041312
1621786021140.379,-0.3841567722185979,0.14829899131831184,0.7373381843729613,-1.432,-5.953,-6.698
1621786021143.98,-0.396,0.152,0.744,-1.5600934922089826,-6.035951420714941,-6.859778185151238
1621786021148.846,-0.41,0.157,0.75,-1.733180366325405,-6.148039879445075,-7.078381643337631
1621786021153.711,-0.41,0.147,0.754,-1.9062325032236014,-6.260105842874676,-7.296941229473815
1621786021156.094,-0.40755031872709935,0.15091949003664107,0.7584094262912212,-1.991,-6.315,-7.404
1621786021158.575,-0.405,0.155,0.763,-2.065223596692982,-6.339793839746379,-7.498437682600858
1621786021163.439,-0.387,0.152,0.756,-2.210741872319264,-6.388403136072606,-7.683586467333872
1621786021168.302,-0.365,0.133,0.745,-2.3562309318082924,-6.4370026729657495,-7.868698079194381
1621786021171.804,-0.3419562729052663,0.12867930116973744,0.7392390682263166,-2.461,-6.472,-8.002
1621786021173.165,-0.333,0.127,0.737,-2.4627331965429335,-6.458394407137972,-8.019851924392215
1621786021178.027,-0.286,0.106,0.726,-2.4689245165702913,-6.409792544923211,-8.083622520674004
1621786021182.889,-0.243,0.089,0.717,-2.475115525710377,-6.361193123173537,-8.147389914816888
1621786021187.51,-0.19641911506202603,0.07949369695143388,0.7093949575611471,-2.481,-6.315,-8.208
1621786021187.75,-0.194,0.079,0.709,-2.479945262568616,-6.310658761876623,-8.201549287013856
1621786021192.611,-0.164,0.061,0.7,-2.458581196448287,-6.222725504221936,-8.07088789711851
1621786021197.471,-0.155,0.051,0.686,-2.4372224952182497,-6.134814328144681,-7.94025931858118
1621786021202.331,-0.141,0.049,0.681,-2.4158627210101544,-6.04689873575194,-7.809624177772248
1621786021203.21,-0.14045723188260126,0.0473716956478038,0.6799144637652026,-2.412,-6.031,-7.786
1621786021207.189,-0.138,0.04,0.675,-2.3673750369483035,-6.001080990681249,-7.689143546103704
1621786021212.049,-0.134,0.042,0.674,-2.312868401810856,-5.964536769395915,-7.570839372112198
1621786021216.906,-0.136,0.051,0.674,-2.2583973615022015,-5.92801641282534,-7.452612455078642
1621786021218.903,-0.13764471700010053,0.05305589625012566,0.6723552829998996,-2.236,-5.913,-7.404
1621786021221.763,-0.14,0.056,0.67,-2.207377688548573,-5.913,-7.384310766644878
1621786021226.621,-0.14,0.072,0.663,-2.1587559218103154,-5.913,-7.350863946213465
1621786021231.477,-0.129,0.075,0.66,-2.1101561459208766,-5.913,-7.3174322532449345
1621786021234.59,-0.12258924082453494,0.07820537958773253,0.6619232277526396,-2.079,-5.913,-7.296
1621786021236.333,-0.119,0.08,0.663,-2.0767772934601556,-5.923891262045239,-7.27855175366222
1621786021241.188,-0.106,0.099,0.661,-2.0705858461634263,-5.954229353799213,-7.229948892382895
1621786021246.043,-0.093,0.105,0.66,-2.064394398866697,-5.984567445553186,-7.18134603110357
1621786021250.273,-0.08690113647792416,0.11719772704415166,0.6582574675651213,-2.059,-6.011,-7.139
1621786021250.898,-0.086,0.119,0.658,-2.061352318210843,-6.009445077792833,-7.130029294958651
1621786021255.751,-0.072,0.14,0.653,-2.079617701568316,-5.997371349810774,-7.060373171985236
1621786021260.604,-0.065,0.138,0.651,-2.097883084925789,-5.985297621828716,-6.9907170490118204
1621786021265.458,-0.049,0.15,0.639,-2.1161521437804667,-5.973221464280709,-6.921046909311778
1621786021265.949,-0.04738067438349271,0.15121449421238048,0.6387975842979366,-2.118,-5.972,-6.914
1621786021270.309,-0.033,0.162,0.637,-2.1235645048216982,-5.950298431195376,-6.815786489897023
1621786021275.162,-0.021,0.175,0.628,-2.129758089392263,-5.926143451370173,-6.70646972222655
1621786021280.012,-0.017,0.178,0.621,-2.135947623424574,-5.90200426864416,-6.597224446556264
1621786021281.62,-0.017,0.180983543029693,0.618347961751384,-2.138,-5.894,-6.561
1621786021284.863,-0.017,0.187,0.613,-2.178578375598123,-5.877644430243613,-6.473632272946897
1621786021289.714,-0.017,0.192,0.599,-2.239279446375411,-5.8531781823282785,-6.342939151171309
1621786021294.563,-0.023,0.199,0.588,-2.2999530229585874,-5.828723016256488,-6.212305226078961
1621786021297.284,-0.027488973920048333,0.2001222434800121,0.5801442956399154,-2.334,-5.815,-6.139
1621786021299.412,-0.031,0.201,0.574,-2.3592753320446467,-5.812418111242751,-6.100407557523228
1621786021304.261,-0.037,0.209,0.557,-2.416863191369957,-5.806535480451457,-6.012477707800711
1621786021309.108,-0.051,0.22,0.541,-2.474427854336846,-5.800655219180645,-5.924583276173848
1621786021312.945,-0.05891469432974116,0.22,0.5259620807734918,-2.52,-5.796,-5.855
1621786021313.956,-0.061,0.22,0.522,-2.525102458121471,-5.797227173472253,-5.848670368406276
1621786021318.803,-0.066,0.23,0.501,-2.549564931216271,-5.803110553077332,-5.818324515706398
1621786021323.649,-0.079,0.234,0.485,-2.574022475590355,-5.808992747293883,-5.787984777115763
1621786021328.496,-0.084,0.234,0.466,-2.5984861808653337,-5.814876423246093,-5.757637395888573
1621786021328.598,-0.0841050642479214,0.23406303854875285,0.46566379440665157,-2.599,-5.815,-5.757
1621786021333.341,-0.089,0.237,0.45,-2.616881409606415,-5.797421665132677,-5.730026348220832
1621786021338.185,-0.094,0.237,0.433,-2.6351429418279957,-5.779469650406377,-5.70247929114082
1621786021343.03,-0.096,0.243,0.405,-2.653408155624542,-5.761514016504687,-5.674926680498572
1621786021344.248,-0.09725724509853334,0.24249710196058666,0.40097681568469334,-2.658,-5.757,-5.668
1621786021347.874,-0.101,0.241,0.389,-2.6306499578638536,-5.766039420706014,-5.622571116451825
1621786021352.717,-0.108,0.246,0.372,-2.594120009987827,-5.778112878054871,-5.561894253878086
1621786021357.56,-0.108,0.253,0.349,-2.5575900621118013,-5.790186335403727,-5.5012173913043485
1621786021359.892,-0.10992648615943125,0.2520367569202844,0.3432205415217062,-2.54,-5.796,-5.472
1621786021362.402,-0.112,0.251,0.337,-2.516406840782428,-5.811728772811715,-5.4468018639649065
1621786021367.244,-0.115,0.267,0.321,-2.4708957490984593,-5.842069500601028,-5.398194779649375
1621786021372.085,-0.112,0.274,0.309,-2.425391541907988,-5.872405638728008,-5.349595048160233
1621786021375.531,-0.11057604035308953,0.28539167717528374,0.30116822194199244,-2.393,-5.894,-5.315
1621786021376.925,-0.11,0.29,0.298,-2.384261614379187,-5.9132601152458735,-5.307153286381311
1621786021381.766,-0.119,0.293,0.288,-2.353916001686525,-5.9801443228133735,-5.279904164779737
1621786021386.605,-0.119,0.309,0.274,-2.3235841622811813,-6.046998172931274,-5.252667411028
1621786021391.165,-0.119,0.3118264312736444,0.26269427490542246,-2.295,-6.11,-5.227
1621786021391.445,-0.119,0.312,0.262,-2.295,-6.116844872836343,-5.228576829344498
1621786021396.283,-0.126,0.339,0.258,-2.295,-6.235099450103106,-5.255818721489721
1621786021401.121,-0.129,0.36,0.244,-2.295,-6.353359995000938,-5.283061988377179
1621786021405.959,-0.133,0.368,0.241,-2.295,-6.4716145722677,-5.310303880522403
1621786021406.793,-0.13179281098546042,0.37162156704361876,0.2397928109854604,-2.295,-6.492,-5.315
1621786021410.795,-0.126,0.389,0.234,-2.23967008376047,-6.687960120015002,-5.405423427928492
1621786021415.632,-0.119,0.417,0.23,-2.1727928491061386,-6.9248169927490935,-5.514718167895987
1621786021420.468,-0.105,0.435,0.227,-2.1059324915614455,-7.161614092386548,-5.623985326290787
1621786021422.416,-0.09573333669965664,0.4462811553221572,0.2282086952130883,-2.079,-7.257,-5.668
1621786021425.303,-0.082,0.463,0.23,-1.9847209185986525,-7.46552314474651,-5.765976300279832
1621786021430.138,-0.037,0.487,0.236,-1.826826379226789,-7.814748714180749,-5.930062782372161
1621786021434.972,0.014,0.517,0.246,-1.668963731298951,-8.163903747244673,-6.0941161223756
1621786021438.033,0.05578489194102201,0.5423241769339527,0.2561296707735811,-1.569,-8.385,-6.198
1621786021439.807,0.08,0.557,0.262,-1.546729432186029,-8.45294795690181,-6.261516568408213
1621786021444.64,0.157,0.588,0.274,-1.486053935290162,-8.638070136206546,-6.434565562106119
1621786021449.472,0.246,0.616,0.288,-1.4253906985472344,-8.823154909534459,-6.607579589347428
1621786021453.645,0.3409802990503132,0.6436306324510002,0.29231728632046877,-1.373,-8.983,-6.757
1621786021454.305,0.356,0.648,0.293,-1.3688559807265104,-8.99086517943744,-6.738309627358342
1621786021459.136,0.475,0.661,0.298,-1.338518632082851,-9.048444228903977,-6.601481993679797
1621786021463.967,0.593,0.677,0.305,-1.3081812834391915,-9.106023278370515,-6.464654360001251
1621786021468.798,0.714,0.693,0.314,-1.277843934795532,-9.163602327837053,-6.327826726322706
1621786021469.251,0.7249707829955011,0.6939376737602992,0.31568781276853863,-1.275,-9.169,-6.315
1621786021473.628,0.831,0.703,0.332,-1.2803302037367383,-9.056224110412169,-5.927297812411981
1621786021478.458,0.939,0.712,0.346,-1.2862122179451068,-8.931773072950897,-5.499458673676963
1621786021483.287,1.033,0.738,0.365,-1.2920930429067694,-8.807347197446248,-5.071706036991832
1621786021484.853,1.053433982300885,0.7441626295828065,0.3666217446270544,-1.294,-8.767,-4.933
1621786021488.115,1.096,0.757,0.37,-2.168334450514975,-7.5458762070918075,-5.618808640558285
1621786021493.031,1.091,0.791,0.407,-3.486020139877263,-5.705553724193869,-6.652372205132915
1621786021498.032,0.942,0.728,0.442,-4.82647870468145,-3.833425906370996,-7.703798310454067
1621786021500.806,0.7911573604060913,0.6608972081218274,0.3748972081218274,-5.57,-2.795,-8.287
1621786021503.034,0.67,0.607,0.321,-5.007409070987048,-2.2173753834993275,-9.423077833361042
1621786021508.036,0.293,0.7,0.07,-3.7443844212371724,-0.9205998911844271,-11.973588752701499
1621786021513.037,-0.246,0.843,-0.099,-2.4815447126210946,0.3759857179560808,-14.523726207928425
1621786021516.96,-0.5597055837563452,0.6265431472081218,0.017071065989847728,-1.491,1.393,-16.524
1621786021518.039,-0.646,0.567,0.049,-1.6698037778617303,0.5466710238005288,-16.149360332451835
1621786021523.04,-0.693,0.131,0.3,-2.4984500642236496,-3.375546792595392,-14.413134325651681
1621786021528.041,-0.574,-0.176,0.429,-3.3270963505855686,-7.297764608991312,-12.67690831885153
1621786021533.043,-0.328,-0.34,0.443,-4.155904450321119,-11.220748333962979,-10.940343271628258
1621786021533.116,-0.32229266744776414,-0.3397956453817614,0.4428978226908807,-4.168,-11.278,-10.915
1621786021538.044,0.063,-0.326,0.436,-3.1299386891538594,-10.051422118450681,-11.95306131084614
1621786021543.046,0.524,-0.374,0.447,-2.076294887488477,-8.80643189614786,-13.006705112511522
1621786021548.047,0.92,-0.417,0.363,-1.022805367910414,-7.561623974248537,-14.060194632089585
1621786021549.271,0.9877763080827802,-0.41479788168684106,0.3319256638032019,-0.765,-7.257,-14.318
1621786021553.049,1.197,-0.408,0.236,-0.3296116235053776,-6.0851939103527,-13.846116174968454
1621786021558.051,1.344,-0.363,0.197,0.2468172655170343,-4.533790797933065,-13.221369434597127
1621786021563.116,1.326,-0.302,0.225,0.8305049720603258,-2.962851273808809,-12.588755422700235
1621786021565.524,1.2447389544688028,-0.264458347386172,0.2292768971332209,1.108,-2.216,-12.288
1621786021568.183,1.155,-0.223,0.234,1.0729017320344318,-2.5027983470334623,-11.51031337739255
1621786021573.249,0.909,-0.169,0.195,1.0060371469916904,-3.049168683146604,-10.028767525473288
1621786021578.314,0.674,-0.127,0.166,0.9391854515075115,-3.5954336948576033,-8.547507272754398
1621786021581.889,0.5110570355026736,-0.058578062527096686,0.17234842718820753,0.892,-3.981,-7.502
1621786021583.382,0.443,-0.03,0.175,0.9689927808603306,-4.150128691605513,-7.463503609569835
1621786021588.448,0.208,0.091,0.215,1.2302092953881034,-4.72393842849472,-7.332895352305949
1621786021593.515,-0.019,0.227,0.257,1.4914761649066284,-5.29785877930911,-7.202261917546686
1621786021598.257,-0.20243069139966272,0.35147082630691395,0.27010219224283305,1.736,-5.835,-7.08
1621786021598.582,-0.215,0.36,0.271,1.7227580955506168,-5.839288232925138,-7.128282326268216
1621786021603.649,-0.353,0.485,0.265,1.5162798949927658,-5.906153737153767,-7.881138373879451
1621786021608.717,-0.428,0.604,0.25,1.30975195024089,-5.973035350446728,-8.634175797622422
1621786021613.784,-0.457,0.717,0.225,1.1032737496830392,-6.039900854675357,-9.387031845233658
1621786021614.625,-0.45766380846861604,0.7339271159497085,0.2218469097740739,1.069,-6.051,-9.512
1621786021618.852,-0.461,0.819,0.206,0.7245121631094604,-6.18760724566349,-9.760423762435307
1621786021623.92,-0.435,0.909,0.173,0.31150081286261866,-6.35138760869241,-10.058262532253494
1621786021628.988,-0.384,0.986,0.141,-0.1015304338747447,-6.515175861708951,-10.356115650215521
1621786021630.994,-0.3570856537238655,0.9970823778784084,0.11962684266306965,-0.265,-6.58,-10.474
1621786021634.056,-0.316,1.014,0.087,-0.5015885773933791,-6.5268844616761115,-10.474
1621786021639.125,-0.241,0.998,0.012,-0.8932556665672533,-6.438952878019684,-10.474
1621786021644.193,-0.133,0.972,-0.07,-1.2848473009245454,-6.35103823441694,-10.474
1621786021647.366,-0.047887026870846575,0.9513475874024848,-0.11005316382548397,-1.53,-6.296,-10.474
1621786021649.263,0.003,0.939,-0.134,-1.5583838790481304,-6.178988906781178,-10.30242234746824
1621786021654.331,0.126,0.894,-0.19,-1.6342166905230513,-5.866372010496809,-9.844020740144332
1621786021659.4,0.199,0.857,-0.244,-1.7100604610246317,-5.5537099361841715,-9.385552886622532
1621786021663.74,0.20927225887224923,0.8313193528193769,-0.2859450570616844,-1.775,-5.286,-8.993
1621786021664.47,0.211,0.827,-0.293,-1.7697403100775193,-5.229614341085271,-8.919988372093023
1621786021669.539,0.162,0.805,-0.337,-1.7332162492546213,-4.838064028026237,-8.412984883720931
1621786021674.608,0.084,0.789,-0.377,-1.6966939475253429,-4.446532573047108,-7.906005813953489
1621786021679.679,0.023,0.759,-0.387,-1.6601558139534884,-4.054831395348837,-7.398806976744186
1621786021680.117,0.018594260124235564,0.7559764530264361,-0.38820941878942555,-1.657,-4.021,-7.355
1621786021684.749,-0.028,0.724,-0.401,-1.6264572284577203,-3.8518835427566365,-7.207942211092728
1621786021689.818,-0.068,0.698,-0.401,-1.5930329115056119,-3.6668118618551477,-7.04701031465665
1621786021694.889,-0.096,0.654,-0.407,-1.559597325940169,-3.481677786224269,-6.886024161934147
1621786021696.496,-0.10550979920065488,0.6441732074926566,-0.40731699330668847,-1.549,-3.423,-6.835
1621786021699.959,-0.126,0.623,-0.408,-1.5718337705699976,-3.4105259957071308,-6.729288099212974
1621786021705.031,-0.169,0.583,-0.419,-1.6052779036489386,-3.392255589673265,-6.574454149773432
1621786021710.101,-0.208,0.541,-0.424,-1.6387091581206774,-3.373992219174815,-6.4196798235153825
1621786021712.875,-0.22331635453276202,0.5114613162582446,-0.424,-1.657,-3.364,-6.335
1621786021715.172,-0.236,0.487,-0.424,-1.6089040401782388,-3.4052251084186524,-6.335
1621786021720.244,-0.255,0.454,-0.426,-1.502713640631287,-3.496245450887468,-6.335
1621786021725.315,-0.265,0.41,-0.436,-1.3965385761762121,-3.5872526489918184,-6.335
1621786021729.257,-0.265,0.3820196389891697,-0.44066339350180506,-1.314,-3.658,-6.335
1621786021730.387,-0.265,0.374,-0.442,-1.238963280877444,-3.6931734620886982,-6.339069086790653
1621786021735.458,-0.258,0.342,-0.445,-0.9021897949451598,-3.8510360336194562,-6.357331619575584
1621786021740.53,-0.236,0.326,-0.44,-0.5653514544587507,-4.008929005722461,-6.375597669289461
1621786021745.603,-0.215,0.321,-0.424,-0.22844825941821667,-4.166852378397711,-6.393867235932285
1621786021745.64,-0.21476736796495113,0.3208109864715228,-0.4238473352269992,-0.226,-4.168,-6.394
1621786021750.674,-0.183,0.295,-0.403,-0.011893096564669442,-4.228207967106635,-6.339628519500641
1621786021755.746,-0.145,0.271,-0.394,0.20382324285671719,-4.288868515925275,-6.284848330006256
1621786021760.82,-0.108,0.264,-0.389,0.41962264994190024,-4.349552423800017,-6.230047045854065
1621786021762.028,-0.1006167027677497,0.26352365824308066,-0.38661829121540314,0.471,-4.364,-6.217
1621786021765.892,-0.077,0.262,-0.379,0.6490169087523278,-4.398660245810055,-6.096750167597765
1621786021770.966,-0.037,0.262,-0.377,0.8827772811918063,-4.444173854748604,-5.938845810055866
1621786021776.038,-0.014,0.271,-0.363,1.1164476722532588,-4.489669944134079,-5.781002234636872
1621786021778.416,-0.02196862216661052,0.2724062274411666,-0.35503137783338945,1.226,-4.511,-5.707
1621786021781.111,-0.031,0.274,-0.346,1.3356845327652729,-4.559346705596687,-5.608662143038031
1621786021786.185,-0.049,0.283,-0.328,1.5421863576099748,-4.65036849945627,-5.423522575935885
1621786021791.259,-0.082,0.29,-0.304,1.7486881824546767,-4.741390293315854,-5.238383008833738
1621786021794.805,-0.0938802867728432,0.29069884039840255,-0.2795405860559111,1.893,-4.805,-5.109
1621786021796.333,-0.099,0.291,-0.269,1.9067042062617297,-4.844341326819387,-5.11813613750782
1621786021801.406,-0.126,0.307,-0.234,1.95220024427299,-4.974949000565998,-5.148466829515327
1621786021806.48,-0.138,0.316,-0.197,1.9977050403646222,-5.105581816556943,-5.178803360243081
1621786021811.196,-0.13428286910088036,0.3225049790734594,-0.16447510463270315,2.04,-5.227,-5.207
1621786021811.555,-0.134,0.323,-0.162,2.026251452059691,-5.232801536949335,-5.213239388794567
1621786021816.629,-0.122,0.339,-0.127,1.8318731718940815,-5.3148242188663515,-5.30145246179966
1621786021821.705,-0.103,0.344,-0.101,1.6374107169451642,-5.396882420397343,-5.3897037351443124
1621786021826.779,-0.082,0.33,-0.082,1.4430324367795548,-5.47890510231436,-5.477916808149406
1621786021827.589,-0.07673257324289219,0.33,-0.08008457208832444,1.412,-5.492,-5.492
1621786021831.854,-0.049,0.33,-0.07,1.1619782709062476,-5.532846421922705,-5.522439690222653
1621786021836.929,-0.003,0.318,-0.061,0.864468299947874,-5.5814510685829175,-5.558660987415295
1621786021842.004,0.047,0.316,-0.056,0.5669583289895004,-5.630055715243131,-5.594882284607938
1621786021843.982,0.06609011348336219,0.3113248701673399,-0.05522081169455664,0.451,-5.649,-5.609
1621786021847.081,0.096,0.304,-0.054,0.30448568790397046,-5.637846007208173,-5.557200101271856
1621786021852.156,0.145,0.276,-0.065,0.06456186518928897,-5.619580838769249,-5.472375420724988
1621786021857.231,0.176,0.25,-0.072,-0.17536195752539246,-5.601315670330325,-5.387550740178119
1621786021860.375,0.1958161184843239,0.22894537411040586,-0.0806695518368917,-0.324,-5.59,-5.335
1621786021862.308,0.208,0.216,-0.086,-0.36667510347497245,-5.594597594020784,-5.270280022630497
1621786021867.384,0.232,0.168,-0.096,-0.47873093529464317,-5.606669907393622,-5.100338995920555
1621786021872.46,0.239,0.113,-0.105,-0.5907867671143139,-5.618742220766459,-4.930397969210612
1621786021876.773,0.23730101942681284,0.07647191767647625,-0.10584949028659357,-0.686,-5.629,-4.786
1621786021877.537,0.237,0.07,-0.106,-0.7001656369564248,-5.644097586756189,-4.761769305206116
1621786021882.613,0.227,0.024,-0.099,-0.7942607672954103,-5.744383186196424,-4.60081710857364
1621786021887.691,0.208,-0.023,-0.101,-0.8883921037352429,-5.844707373717824,-4.439802980452874
1621786021892.768,0.178,-0.066,-0.099,-0.982509862887258,-5.945017090708788,-4.278812076640217
1621786021893.172,0.17497571531618178,-0.06910387112286608,-0.09852248136571291,-0.99,-5.953,-4.266
1621786021897.845,0.14,-0.105,-0.093,-0.9734739631405008,-6.12623845535475,-4.305035638788817
1621786021902.922,0.112,-0.127,-0.098,-0.9555180873552267,-6.314465567034865,-4.347448655729895
1621786021908.0,0.086,-0.143,-0.094,-0.9375596212820437,-6.502719832077887,-4.389867791109655
1621786021909.572,0.07980835617096975,-0.14516707534016057,-0.094,-0.932,-6.561,-4.403
1621786021913.078,0.066,-0.15,-0.094,-0.8208660683722523,-6.741165200696522,-4.52460616749267
1621786021918.156,0.058,-0.129,-0.096,-0.659892128410055,-7.002128722596776,-4.700748805643613
1621786021923.234,0.058,-0.106,-0.099,-0.4989259275795866,-7.263079698173862,-4.876882975398491
1621786021925.976,0.06448000000000001,-0.09196,-0.10386000000000001,-0.412,-7.404,-4.972
1621786021928.312,0.07,-0.08,-0.108,-0.36871296971500855,-7.526883905052459,-5.092036074112658
1621786021933.39,0.096,-0.051,-0.127,-0.27461525411116894,-7.794009985862043,-5.352971515737779
1621786021938.469,0.14,-0.033,-0.145,-0.1804949177766203,-8.061200282759133,-5.613969685244438
1621786021942.381,0.17620111517015957,-0.02606787156316093,-0.15963449336666025,-0.108,-8.267,-5.815
1621786021943.548,0.187,-0.024,-0.164,-0.1763537937294466,-8.310956966206865,-5.853408999598233
1621786021948.626,0.232,-0.042,-0.18,-0.4737785961936223,-8.502224945314941,-6.02053635998393
1621786021953.706,0.265,-0.068,-0.237,-0.7713320982694225,-8.69357568858533,-6.187736038569707
1621786021958.785,0.295,-0.106,-0.3,-1.0688141005609868,-8.884880451765547,-6.354895540377662
1621786021958.788,0.2950281141868512,-0.1060406093810073,-0.3000293637062668,-1.069,-8.885,-6.355
1621786021963.865,0.34,-0.171,-0.347,-1.0445589526147436,-8.991117458900543,-6.585488358253366
1621786021968.944,0.393,-0.227,-0.386,-1.0201073272335044,-9.097280845049468,-6.816076471025813
1621786021974.024,0.459,-0.295,-0.419,-0.9956521758536041,-9.203459540281187,-7.046697835304619
1621786021975.198,0.479569059976932,-0.31556905997693196,-0.4275511822376009,-0.99,-9.228,-7.1
1621786021979.104,0.548,-0.384,-0.456,-0.303900205271613,-8.89435035996906,-7.916751472600702
1621786021984.184,0.648,-0.466,-0.515,0.588428348307253,-8.460411881953947,-8.979003153447968
1621786021989.265,0.738,-0.55,-0.607,1.480885553638365,-8.026410840721127,-10.041407984768252
1621786021991.611,0.775409169550173,-0.5306026528258363,-0.6481039023452518,1.893,-7.826,-10.532
1621786021994.345,0.819,-0.508,-0.696,1.7622347857132232,-6.942127099355875,-11.798007170164974
1621786021999.426,0.833,-0.22,-0.632,1.519201597667465,-5.2994085060172855,-14.150939946149384
1621786022004.506,0.585,0.134,-0.384,1.27621511982506,-3.657005637951297,-16.503420495961205
1621786022008.023,0.21613788133557532,0.1526853230843142,-0.3404009128032669,1.108,-2.52,-18.132
1621786022009.588,0.052,0.161,-0.321,0.6265540484264382,-3.095923761080374,-17.70661151763936
1621786022014.668,-0.248,-0.052,-0.574,-0.9363051341543223,-4.965474715925993,-16.325724849782855
1621786022019.75,-0.096,-0.201,-0.82,-2.49976518531739,-6.835744452376703,-14.944307275864121
1621786022024.438,0.29696944657955426,-0.20745724442736355,-0.9648267678708685,-3.942,-8.561,-13.67
1621786022024.832,0.33,-0.208,-0.977,-3.8513811351061933,-8.544772621809745,-13.655885061574157
1621786022029.913,0.906,-0.096,-1.087,-2.682880629424713,-8.335525908739365,-13.473877565589863
1621786022034.996,1.485,-0.11,-1.136,-1.5139309596049735,-8.126198762567672,-13.291800107085491
1621786022040.077,1.861,-0.284,-1.162,-0.34548659944077587,-7.916962103634957,-13.109801356416206
1621786022040.853,1.8774904899135447,-0.30186469740634003,-1.1708560038424591,-0.167,-7.885,-13.082
1621786022045.16,1.969,-0.401,-1.22,-0.2929246921658438,-6.544426714651121,-11.924279861400274
1621786022050.242,1.902,-0.424,-1.234,-0.4415131164118732,-4.962579114865267,-10.55819503598834
1621786022055.325,1.712,-0.497,-1.173,-0.5901300933912319,-3.3804275474391767,-9.191847703884362
1621786022057.27,1.6086617025365104,-0.5379525845503459,-1.1649625768639509,-0.647,-2.775,-8.669
1621786022060.407,1.442,-0.604,-1.152,-0.8118826354606554,-2.656926455718789,-8.2456165467198
1621786022065.49,1.119,-0.663,-1.155,-1.07905179028133,-2.465604859335038,-7.5595831202046035
1621786022070.574,0.761,-0.656,-1.121,-1.3462722744305002,-2.2742465056801286,-6.873417890917743
1621786022073.689,0.5299652737752162,-0.6216818443804034,-1.060943227665706,-1.51,-2.157,-6.453
1621786022075.657,0.384,-0.6,-1.023,-1.5053259838539421,-2.3733230549649873,-6.578719049672173
1621786022080.74,-0.012,-0.581,-0.906,-1.493253906424228,-2.932043561647909,-6.903426978486791
1621786022085.824,-0.4,-0.637,-0.831,-1.4811795096712805,-3.4908714113676576,-7.228197291149403
1621786022090.11,-0.6495953890489913,-0.7061446685878963,-0.7837792507204611,-1.471,-3.962,-7.502
1621786022090.907,-0.696,-0.719,-0.775,-1.3758590284796957,-4.091878827516499,-7.662832391937689
1621786022095.992,-0.869,-0.805,-0.726,-0.7687523633985375,-4.92065217908318,-8.689124383138118
1621786022101.076,-0.913,-0.908,-0.654,-0.16176229264522268,-5.749266365420061,-9.715219275819013
1621786022106.16,-0.833,-0.986,-0.572,0.445227778108092,-6.577880551756942,-10.741314168499912
1621786022106.535,-0.8212748091603053,-0.987548610110903,-0.5626345959959671,0.49,-6.639,-10.817
1621786022111.245,-0.674,-1.007,-0.445,0.8865788112542916,-7.111568243634904,-10.898437731306016
1621786022116.329,-0.485,-0.977,-0.298,1.3146282159896554,-7.621637237853183,-10.986337970600912
1621786022121.414,-0.295,-0.901,-0.164,1.742759843046328,-8.131804209212111,-11.074255094305972
1621786022122.961,-0.24450182446706356,-0.8721004417130785,-0.12901632417898984,1.873,-8.287,-11.101
1621786022126.499,-0.129,-0.806,-0.049,1.5624186817269823,-7.927742275395706,-10.73571157018652
1621786022131.584,-0.024,-0.749,0.019,1.1160491194174038,-7.4114146540833765,-10.210716578732258
1621786022136.67,0.003,-0.737,0.075,0.6695938322062869,-6.894987872482723,-9.685620762428476
