time,gyro_x,gyro_y,gyro_z,acc_x,acc_y,acc_z
1621786172919.2,,,,-2.412,-3.56,-8.846
1621786172937.856,,,,-2.501,-3.962,-8.542
1621786172956.165,0.485,0.374,0.97,-2.339732964202936,-4.42552201905743,-8.153800309039402
1621786172956.816,0.48346308420835904,0.37301198270537367,0.9658283714226888,-2.334,-4.442,-8.14
1621786172962.094,0.471,0.365,0.932,-2.3285211485339214,-4.530757393750475,-8.13452114853392
1621786172968.05,0.452,0.37,0.894,-2.322338528599306,-4.6309158366912495,-8.128338528599306
1621786172974.036,0.44,0.367,0.859,-2.3161249904964647,-4.731575153957272,-8.122124990496465
1621786172976.083,0.43149180128257164,0.3578111453851774,0.8423239305138405,-2.314,-4.766,-8.12
1621786172980.051,0.415,0.34,0.81,-2.504989933011489,-4.859467472524731,-8.133989708468993
1621786172986.096,0.375,0.337,0.744,-2.79594610980128,-5.00185685415965,-8.155301785112833
1621786172992.17,0.335,0.323,0.682,-3.088300662400359,-5.144930578945399,-8.176716290557987
1621786172995.654,0.3150158037929103,0.3178612066896055,0.655164079379051,-3.256,-5.227,-8.189
1621786172998.272,0.3,0.314,0.635,-3.307669905619051,-5.365213438997518,-8.214052075451661
1621786173003.896,0.284,0.307,0.574,-3.4186712994305286,-5.6621345227191275,-8.267870933057226
1621786173009.526,0.279,0.302,0.517,-3.529788339771415,-5.95936495294227,-8.321745861707353
1621786173014.046,0.283010658117066,0.2907701572722152,0.4744870239591006,-3.619,-6.198,-8.365
1621786173015.161,0.284,0.288,0.464,-3.6267611866402616,-6.2429171037841895,-8.340433094256811
1621786173020.802,0.286,0.286,0.422,-3.6660276588342344,-6.470167946796553,-8.216140796445966
1621786173026.45,0.283,0.278,0.384,-3.7053417143927634,-6.697694173847883,-8.091697880426056
1621786173032.105,0.283,0.283,0.347,-3.744705052721726,-6.925505620082427,-7.967098966975326
1621786173032.291,0.28283565543717376,0.2827041797869128,0.3463097528361299,-3.746,-6.933,-7.963
1621786173037.765,0.278,0.274,0.326,-3.631805418522173,-7.000560145062798,-7.87810141062905
1621786173043.431,0.278,0.25,0.311,-3.5136024906002508,-7.070491720220794,-7.790222794058825
1621786173049.103,0.281,0.236,0.298,-3.39527223274046,-7.1404986267032875,-7.702249513346311
1621786173050.602,0.2828477279566657,0.22676136021667168,0.2972081165900004,-3.364,-7.159,-7.679
1621786173054.782,0.288,0.201,0.295,-3.3260129802837857,-7.203583568050167,-7.478146476590317
1621786173060.467,0.29,0.164,0.286,-3.274347438486475,-7.264220970399108,-7.204968791518308
1621786173066.158,0.288,0.129,0.283,-3.2226286469681673,-7.324920869426583,-6.931509552532285
1621786173068.978,0.28552496250267834,0.11612980501392758,0.2834950074994643,-3.197,-7.355,-6.796
1621786173071.855,0.283,0.103,0.284,-3.0976116039509574,-7.351879485210391,-6.67664030929746
1621786173077.559,0.283,0.091,0.3,-2.900555384900564,-7.345692476762969,-6.4399872361835655
1621786173083.268,0.286,0.077,0.333,-2.703330482218044,-7.339500172126155,-6.203131583825438
1621786173087.417,0.2707541866028708,0.06683612440191387,0.35332775119617227,-2.56,-7.335,-6.031
1621786173088.983,0.265,0.063,0.361,-2.5699006293125057,-7.3009824531313905,-6.026007374962069
1621786173094.706,0.244,0.037,0.38,-2.6060856234415612,-7.176654524585405,-6.0077602411704945
1621786173100.434,0.227,0.023,0.391,-2.6423014895048618,-7.052220523239706,-5.989497539480454
1621786173105.922,0.20977177893212978,0.007686025717448692,0.3957856169632973,-2.677,-6.933,-5.972
1621786173106.168,0.209,0.007,0.396,-2.679078663651424,-6.928074758736753,-5.977322438139315
1621786173111.908,0.199,-0.002,0.405,-2.727610402587499,-6.813082358200321,-6.10158841936417
1621786173117.655,0.194,-0.014,0.405,-2.7762020037339927,-6.697948118541113,-6.226007678350732
1621786173123.408,0.18,-0.007,0.405,-2.8248431460201426,-6.582696494780299,-6.350553787898709
1621786173124.491,0.17962389249226335,-0.008692483784814957,0.405564161261605,-2.834,-6.561,-6.374
1621786173129.167,0.178,-0.016,0.408,-2.841528201768752,-6.464889957418932,-6.403610926957091
1621786173134.931,0.171,-0.035,0.41,-2.8508078611202095,-6.346419639698657,-6.440110920406157
1621786173140.703,0.162,-0.049,0.41,-2.860100491320013,-6.227783727481166,-6.476661932525385
1621786173143.125,0.15780737860795335,-0.05109631069602333,0.4091614757215906,-2.864,-6.178,-6.492
1621786173146.48,0.152,-0.054,0.408,-2.81285979917214,-6.1164523197054175,-6.463828029719389
1621786173152.264,0.133,-0.058,0.407,-2.724694867007038,-6.0103450504681195,-6.4152599793687894
1621786173158.054,0.113,-0.056,0.41,-2.636436898528394,-5.904125811211365,-6.3666406774349396
1621786173161.822,0.09544732740828103,-0.050149109136093675,0.41455069289414936,-2.579,-5.835,-6.335
1621786173163.85,0.086,-0.047,0.417,-2.4793363218779687,-5.87629232651043,-6.310678603495166
1621786173169.652,0.065,-0.026,0.429,-2.194214459524522,-5.994423076422595,-6.241098973311299
1621786173175.459,0.056,0.009,0.457,-1.9088526460981927,-6.112653242072115,-6.1714607867376285
1621786173180.584,0.048067847846166765,0.04866076076916618,0.4834405071794441,-1.657,-6.217,-6.11
1621786173181.274,0.047,0.054,0.487,-1.6458358457220086,-6.22853139619503,-6.100635331115501
1621786173187.083,0.037,0.098,0.518,-1.5518373011747584,-6.325621998128703,-6.021787867761722
1621786173192.898,0.023,0.122,0.546,-1.457743944276952,-6.422810531240254,-5.942860874311259
1621786173198.718,0.009,0.157,0.576,-1.3635676265724088,-6.520084754132446,-5.863864292026198
1621786173199.371,0.008775803545237396,0.15980245568453255,0.5785782592297699,-1.353,-6.531,-5.855
1621786173204.544,0.007,0.182,0.599,-1.3960890273442055,-6.533744524034662,-5.93019995854976
1621786173210.377,0.01,0.216,0.621,-1.4446770508154039,-6.536839302599708,-6.014996891231979
1621786173216.215,0.028,0.253,0.63,-1.493307780987293,-6.53993680133677,-6.099868356627504
1621786173218.219,0.036915402932698335,0.2656873041734553,0.6330861010151648,-1.51,-6.541,-6.129
1621786173222.059,0.054,0.29,0.639,-1.5479765658287175,-6.57694573343146,-6.212670294767014
1621786173227.908,0.079,0.33,0.651,-1.6058190597926432,-6.631695045899988,-6.340109372377374
1621786173233.763,0.112,0.372,0.658,-1.663721914500781,-6.686501491265445,-6.467681437295839
1621786173237.128,0.1361132169783813,0.38807547798558756,0.6620188694963969,-1.697,-6.718,-6.541
1621786173239.624,0.154,0.4,0.665,-1.78859474314253,-6.7049714373978295,-6.571926385974849
1621786173245.492,0.199,0.424,0.656,-2.003919435183874,-6.674343356202294,-6.6446294069945555
1621786173251.365,0.251,0.443,0.639,-2.2194322619675884,-6.643688514461506,-6.7173959505206655
1621786173256.095,0.2920397906629008,0.45426582488785516,0.6277341751121449,-2.393,-6.619,-6.776
1621786173257.243,0.302,0.457,0.625,-2.399514554014701,-6.6030755346307295,-6.752957781170222
1621786173263.127,0.349,0.478,0.618,-2.432906146168747,-6.521451642698619,-6.634850482995728
1621786173269.018,0.375,0.494,0.616,-2.4663379174096547,-6.439729535220844,-6.516601069902888
1621786173274.913,0.396,0.511,0.616,-2.4997918564226245,-6.357953239855807,-6.398273248579236
1621786173275.126,0.39625250268883927,0.5115771490030612,0.6157474973111607,-2.501,-6.355,-6.394
1621786173280.815,0.403,0.527,0.609,-2.5358685109158574,-6.290627364463032,-6.204160329458108
1621786173286.722,0.403,0.541,0.604,-2.572073283965775,-6.2237877834478,-6.007045453964112
1621786173292.636,0.401,0.557,0.597,-2.608321451866631,-6.1568680888616045,-5.809694317615009
1621786173294.215,0.39833212341197827,0.5626025408348457,0.5951324863883847,-2.618,-6.139,-5.757
1621786173298.555,0.391,0.578,0.59,-2.5858111476796592,-6.099762493886884,-5.667012186578901
1621786173304.212,0.379,0.592,0.585,-2.54385300765296,-6.048616439985725,-5.549713152781632
1621786173309.87,0.353,0.604,0.572,-2.5018858136061435,-5.997459349432306,-5.432388807380678
1621786173312.686,0.34254261290044036,0.619437095242207,0.5705060875572057,-2.481,-5.972,-5.374
1621786173315.525,0.332,0.635,0.569,-2.418535665606542,-5.9598800545206725,-5.348050885960927
1621786173321.18,0.309,0.663,0.572,-2.2941065825694205,-5.935737098110485,-5.29636019723655
1621786173326.833,0.283,0.686,0.576,-2.16972047465056,-5.911602480156079,-5.2446873613598095
1621786173330.956,0.26477265466476707,0.6983945948279584,0.576,-2.079,-5.894,-5.207
1621786173332.488,0.258,0.703,0.576,-2.0551729038813793,-5.897272030805022,-5.217738972898533
1621786173338.14,0.223,0.733,0.576,-1.96726895565093,-5.909343347639485,-5.25735765379113
1621786173343.791,0.192,0.749,0.583,-1.879376398860856,-5.921413100156432,-5.296971200513417
1621786173349.216,0.14879089966295048,0.7701244490536687,0.5916418200674098,-1.795,-5.933,-5.335
1621786173349.441,0.147,0.771,0.592,-1.7937925674229451,-5.9337269236943495,-5.342121388056507
1621786173355.092,0.108,0.794,0.59,-1.7634468107876713,-5.951996307791096,-5.5210994220890415
1621786173360.741,0.07,0.81,0.597,-1.7331128531678082,-5.9702585883989725,-5.700007866010274
1621786173366.388,0.042,0.819,0.6,-1.7027893835616439,-5.988514554794521,-5.878854452054795
1621786173367.466,0.03799222092570984,0.8203359263580967,0.5994274601322442,-1.697,-5.992,-5.913
1621786173372.037,0.021,0.826,0.597,-1.7508715656491307,-6.033844425411186,-6.109693855974734
1621786173377.683,0.014,0.819,0.59,-1.8174118544490987,-6.085529207874416,-6.352643282523454
1621786173383.328,0.012,0.827,0.579,-1.8839377567817137,-6.137202815732773,-6.595540181737886
1621786173385.709,0.018748897154225414,0.8286872242885563,0.5760473574950263,-1.912,-6.159,-6.698
1621786173388.973,0.028,0.831,0.572,-1.9331234567901234,-6.183524691358024,-6.798067901234568
1621786173394.617,0.052,0.833,0.564,-1.9696506520982298,-6.225933384215741,-6.9711077501941565
1621786173400.26,0.086,0.841,0.552,-2.0061715272756486,-6.268334739294609,-7.144117658873624
1621786173403.942,0.10818753786239722,0.8423051492860233,0.5356856339247079,-2.03,-6.296,-7.257
1621786173405.902,0.12,0.843,0.527,-2.014595510181217,-6.272837044506064,-7.288933394952805
1621786173411.545,0.159,0.836,0.504,-1.970250763241184,-6.206158081953897,-7.380859731675209
1621786173416.49,0.192,0.833,0.489,-1.9313893930482031,-6.1477241968462035,-7.461419068425623
1621786173421.375,0.22733442232131032,0.8418336055803276,0.47486623107147585,-1.893,-6.09,-7.541
1621786173422.02,0.232,0.843,0.473,-1.8901451511421146,-6.073340692107783,-7.544541458076871
1621786173427.546,0.264,0.827,0.456,-1.8656876761045,-5.930620489673095,-7.574881110655178
1621786173433.071,0.295,0.819,0.44,-1.8412334427574888,-5.7879192039392695,-7.605216741895774
1621786173438.592,0.319,0.81,0.422,-1.8167975789905622,-5.6453251128436595,-7.635529585556012
1621786173439.224,0.3198020091162544,0.8083959817674913,0.41982311811302386,-1.814,-5.629,-7.639
1621786173444.109,0.326,0.796,0.403,-1.7709537643544278,-5.559084139556554,-7.585260750404253
1621786173449.625,0.323,0.78,0.389,-1.722343875901006,-5.480131772960232,-7.524575794118453
1621786173455.136,0.302,0.764,0.387,-1.6737791679228218,-5.401252788664456,-7.463947241483267
1621786173457.04,0.293705029913583,0.7570875249279858,0.38907374252160426,-1.657,-5.374,-7.443
1621786173460.645,0.278,0.744,0.393,-1.6193000919685385,-5.389809638851903,-7.592178130705138
1621786173466.152,0.22,0.733,0.422,-1.5617085420927648,-5.413960933961098,-7.820067274299598
1621786173471.655,0.157,0.707,0.463,-1.504160395876515,-5.438094027535655,-8.047784670080027
1621786173474.826,0.12355549635943883,0.6718256082400994,0.4797222518202806,-1.471,-5.452,-8.179
1621786173477.154,0.099,0.646,0.492,-1.566196094877965,-5.417383238226194,-8.298585177036783
1621786173482.651,0.044,0.562,0.489,-1.7909591062220696,-5.335651234101065,-8.580932100378137
1621786173488.146,-0.003,0.464,0.48,-2.015652237882434,-5.253944640770023,-8.86319124097628
1621786173492.581,-0.023196113309912395,0.39371752568150487,0.4630352648196736,-2.197,-5.188,-9.091
1621786173493.636,-0.028,0.377,0.459,-2.208667277411178,-5.189131011585777,-9.069391726019093
1621786173499.124,-0.016,0.284,0.429,-2.2693635812588684,-5.195014836958768,-8.956979693893013
1621786173504.608,0.021,0.185,0.393,-2.3300139828348647,-5.200894212621747,-8.844652674647673
1621786173510.091,0.058,0.099,0.365,-2.3906562840099737,-5.206772803041783,-8.732340657675405
1621786173510.303,0.05892825951341236,0.0968727386150967,0.3639943855271366,-2.393,-5.207,-8.728
1621786173515.57,0.082,0.044,0.339,-2.284924567359443,-5.230520548701388,-8.345418923021722
1621786173521.045,0.094,0.019,0.314,-2.1725860312991636,-5.2549688802406775,-7.947746694819354
1621786173526.519,0.106,0.012,0.297,-2.0602625238055805,-5.279413941100162,-7.550127666915072
1621786173527.994,0.106,0.015235527783976792,0.2926859629546976,-2.03,-5.286,-7.443
1621786173531.989,0.106,0.024,0.281,-1.854668196648786,-5.254779627274235,-7.219027760880385
1621786173537.456,0.103,0.061,0.264,-1.614738773986617,-5.212056710722778,-6.912537272576453
1621786173542.92,0.087,0.113,0.262,-1.3749486396062598,-5.169358596471824,-6.60622471381961
1621786173545.653,0.07649014260807367,0.1370225311815459,0.2700075103938486,-1.255,-5.148,-6.453
1621786173548.381,0.066,0.161,0.278,-1.1548728879286465,-5.169356323749376,-6.384597861614315
1621786173553.839,0.052,0.222,0.295,-0.9545469780067586,-5.212084261259764,-6.247744612486843
1621786173559.293,0.033,0.284,0.311,-0.7543734003656307,-5.254779707495429,-6.1109954296160875
1621786173563.281,0.020567380014326647,0.32422318230659025,0.32635794233524357,-0.608,-5.286,-6.011
1621786173564.746,0.016,0.339,0.332,-0.5810228518307826,-5.311311892109389,-6.011
1621786173570.195,-0.019,0.408,0.347,-0.4806890791281062,-5.405452222052641,-6.011
1621786173575.64,-0.049,0.471,0.374,-0.38043172894148986,-5.499520846919095,-6.011
1621786173580.877,-0.08747885555406071,0.522946454997982,0.399973227498991,-0.284,-5.59,-6.011
1621786173581.084,-0.089,0.525,0.401,-0.28665908176432225,-5.594729871102909,-6.017471216683085
1621786173586.524,-0.126,0.569,0.428,-0.35652896368959247,-5.719011696474408,-6.187508539952548
1621786173591.975,-0.155,0.597,0.445,-0.4265430882577387,-5.843550095042526,-6.357896896202462
1621786173597.424,-0.176,0.623,0.459,-0.49652899143923523,-5.968038294506958,-6.5282165720866345
1621786173598.473,-0.1771555117227776,0.6266591204554625,0.4636220468911104,-0.51,-5.992,-6.561
1621786173602.87,-0.182,0.642,0.483,-0.620292865474339,-6.134305307153966,-6.776833884136859
1621786173608.313,-0.182,0.661,0.496,-0.7568132776049766,-6.310450691512997,-7.043992876582982
1621786173613.754,-0.161,0.661,0.501,-0.8932847006220839,-6.486532867696067,-7.311056001444124
1621786173616.055,-0.1461901319924576,0.6618462781718596,0.5039619736015085,-0.951,-6.561,-7.424
1621786173619.192,-0.126,0.663,0.508,-1.0509011224390448,-6.602997788502997,-7.537840813942168
1621786173624.627,-0.079,0.656,0.503,-1.223988427889898,-6.675762577019904,-7.735079836432675
1621786173630.059,-0.03,0.649,0.497,-1.3969824332030545,-6.748488142759782,-7.93221254016162
1621786173633.608,0.006599793174767318,0.6398500517063082,0.48458221302998966,-1.51,-6.796,-8.061
1621786173635.489,0.026,0.635,0.478,-1.5342568988814131,-6.802332553247803,-8.063146628219593
1621786173640.916,0.082,0.609,0.459,-1.604238288269464,-6.8206020310084,-8.06933967152827
1621786173646.34,0.14,0.59,0.442,-1.6741818992296655,-6.838861646259073,-8.075529371613245
1621786173651.134,0.182448567825617,0.5634696451089894,0.4260817870653936,-1.736,-6.855,-8.081
1621786173651.761,0.188,0.56,0.424,-1.741625293001451,-6.845146779774529,-8.063765822078356
1621786173657.18,0.234,0.531,0.408,-1.790246400267887,-6.759982419912937,-7.9148056144659
1621786173662.596,0.274,0.496,0.384,-1.8388412211184284,-6.674864103136511,-7.765925940395133
1621786173668.009,0.298,0.466,0.368,-1.887409755553075,-6.589791829445251,-7.617126799866056
1621786173668.632,0.300418084194378,0.46277588774082934,0.365581915805622,-1.893,-6.58,-7.6
1621786173673.42,0.319,0.438,0.347,-1.9036883882778763,-6.435021605153933,-7.436111379739229
1621786173678.827,0.323,0.408,0.337,-1.9157589474125523,-6.271295303045125,-7.251029473007532
1621786173684.232,0.318,0.38,0.326,-1.9278251463867966,-6.107628142599606,-7.066014422069119
1621786173686.102,0.3100392210022141,0.3668474086123537,0.3218465500881117,-1.932,-6.051,-7.002
1621786173689.635,0.295,0.342,0.314,-1.9159170394755352,-5.969160124926142,-6.924028178723165
1621786173695.034,0.267,0.316,0.297,-1.891339706254748,-5.844095720435553,-6.804874778424917
1621786173700.375,0.225,0.293,0.295,-1.8670257730508426,-5.720371655271377,-6.686998368081933
1621786173703.456,0.2036395242451967,0.28203110704483075,0.29384537968892954,-1.853,-5.649,-6.619
1621786173705.712,0.188,0.274,0.293,-1.8774905248536562,-5.6231998214108545,-6.626726957039389
1621786173711.047,0.15,0.257,0.29,-1.935411676328434,-5.5621812821566765,-6.645001544937848
1621786173716.378,0.113,0.244,0.283,-1.9932851189885619,-5.501213002990659,-6.663261080322594
1621786173720.681,0.0936105610561056,0.22622634763476349,0.27411317381738176,-2.04,-5.452,-6.678
1621786173721.704,0.089,0.222,0.272,-2.0563110991165026,-5.454381182352774,-6.703121473821766
1621786173727.029,0.073,0.208,0.258,-2.141198090963325,-5.466773443936252,-6.833859833527456
1621786173732.348,0.058,0.199,0.243,-2.225987784437942,-5.479151501377801,-6.964448339535808
1621786173737.664,0.044,0.182,0.227,-2.310734666628789,-5.4915233089969036,-7.094970909917332
1621786173737.869,0.044115660325337744,0.18165301902398676,0.22626748460619428,-2.314,-5.492,-7.1
1621786173742.977,0.047,0.173,0.208,-2.3199569803692683,-5.561994519338905,-7.175951499708172
1621786173748.285,0.045,0.157,0.188,-2.326146853246402,-5.634725525645224,-7.254872378891625
1621786173753.59,0.049,0.141,0.169,-2.3323335943171952,-5.707419733227042,-7.333753327544237
1621786173755.019,0.049808537090758394,0.13884390109131095,0.16495731454620804,-2.334,-5.727,-7.355
1621786173758.892,0.052,0.133,0.154,-2.2717616092445967,-5.795801711962337,-7.3927956772951
1621786173764.19,0.066,0.117,0.138,-2.1866271488693916,-5.889913988158927,-7.4444955132320425
1621786173769.484,0.077,0.106,0.124,-2.101555460446537,-5.983956872815464,-7.496157229474285
1621786173772.132,0.08500812107788852,0.10099492432631968,0.11499086378737541,-2.059,-6.031,-7.522
1621786173774.775,0.093,0.096,0.106,-1.9800678695509202,-6.062882389946099,-7.512868635889224
1621786173780.062,0.106,0.087,0.089,-1.8221598587421186,-6.126664841370831,-7.4946008464035
1621786173785.346,0.124,0.08,0.079,-1.6643466394063737,-6.190409004475073,-7.476344022990149
1621786173789.208,0.13936322434444803,0.06902626832539425,0.07241576099523656,-1.549,-6.237,-7.463
1621786173790.625,0.145,0.065,0.07,-1.513949880942135,-6.243493846286255,-7.442602662305993
1621786173795.902,0.161,0.056,0.065,-1.3834177783515504,-6.267677941303038,-7.366639799753278
1621786173801.175,0.178,0.052,0.056,-1.252988338066959,-6.291843015750064,-7.290736681297874
1621786173806.228,0.191474609375,0.0452626953125,0.045412806919642855,-1.128,-6.315,-7.218
1621786173806.425,0.192,0.045,0.045,-1.1248014038223169,-6.313860136634863,-7.2139988469631895
1621786173811.673,0.218,0.054,0.052,-1.0396006312876538,-6.2834976795134185,-7.107420426047101
1621786173816.916,0.229,0.049,0.056,-0.9544830935977631,-6.2531648842639305,-7.0009461243550195
1621786173822.155,0.232,0.054,0.061,-0.8694289729324608,-6.222854688535931,-6.894551151595515
1621786173823.167,0.2302601902807574,0.054,0.06061337561794609,-0.853,-6.217,-6.874
1621786173827.39,0.223,0.054,0.059,-0.8482515098974136,-6.175513191735298,-6.805521774310071
1621786173832.622,0.216,0.051,0.061,-0.8423681259933535,-6.124110995520878,-6.720677185377835
1621786173837.849,0.201,0.056,0.066,-0.8364905071521456,-6.072759167750325,-6.635915734720416
1621786173840.064,0.19336684896928902,0.05515187210769878,0.06769625578460245,-0.834,-6.051,-6.6
1621786173843.072,0.183,0.054,0.07,-0.830430661374895,-6.06152954894406,-6.580725571424432
1621786173848.293,0.162,0.047,0.08,-0.8242355224658883,-6.07980520872563,-6.547271821315797
1621786173853.508,0.143,0.052,0.08,-0.8180473362496016,-6.098060358063675,-6.513855615747849
1621786173856.919,0.12794786396852165,0.05592664418212479,0.08458108487914559,-0.814,-6.11,-6.492
1621786173858.72,0.12,0.058,0.087,-0.8161422970814578,-6.134100842166401,-6.507745883548715
1621786173863.928,0.099,0.063,0.093,-0.8223371569623928,-6.20379301582692,-6.553278103673588
1621786173869.132,0.087,0.056,0.094,-0.828527370408015,-6.27343291709017,-6.598776172498911
1621786173873.733,0.07815216676839289,0.06219348326212498,0.094,-0.834,-6.335,-6.639
1621786173874.332,0.077,0.063,0.094,-0.834,-6.33989349810052,-6.649501375485787
1621786173879.529,0.08,0.063,0.103,-0.834,-6.382341702691295,-6.74059460285577
1621786173884.721,0.086,0.072,0.105,-0.834,-6.424748031381454,-6.83159796515436
1621786173889.909,0.096,0.079,0.106,-0.834,-6.467122454623524,-6.922532858827125
1621786173890.506,0.09715170920048968,0.07957585460024484,0.10565448723985309,-0.834,-6.472,-6.933
1621786173895.094,0.106,0.084,0.103,-0.8446912910284463,-6.4909153610503285,-6.9277914223194745
1621786173900.274,0.127,0.084,0.106,-0.8567622319474836,-6.512271641137856,-6.921910707512764
1621786173905.45,0.14,0.089,0.103,-0.8688240700218819,-6.53361181619256,-6.916034427425236
1621786173907.242,0.14484968615791213,0.0907320307706829,0.10369281230827315,-0.873,-6.541,-6.914
1621786173910.623,0.154,0.094,0.105,-0.8590260444847404,-6.523178143690684,-6.890102510857962
1621786173915.792,0.161,0.106,0.105,-0.8376630156617874,-6.495932541713584,-6.853568635479578
1621786173920.957,0.166,0.113,0.108,-0.8163161312021994,-6.4687075296491825,-6.817062369302312
1621786173923.937,0.16888708075121814,0.10895808694829462,0.11319674535219264,-0.804,-6.453,-6.796
1621786173926.118,0.171,0.106,0.117,-0.82076206113025,-6.4247140218427035,-6.780547474895551
1621786173931.276,0.169,0.113,0.124,-0.8604051894744558,-6.3578162427618565,-6.744001465953236
1621786173936.428,0.162,0.115,0.131,-0.9000032837352488,-6.290994458696768,-6.707496972806568
1621786173940.591,0.1555317211948791,0.11661706970128023,0.12938293029871978,-0.932,-6.237,-6.678
1621786173941.577,0.154,0.117,0.129,-0.9401288075821027,-6.232371919770774,-6.67218523253251
1621786173946.722,0.14,0.115,0.133,-0.9825524061420909,-6.208218338108883,-6.641838424803468
1621786173951.865,0.124,0.115,0.131,-1.024959900080817,-6.1840739255014325,-6.611503137168467
1621786173957.002,0.11,0.124,0.133,-1.0673170670780985,-6.159958166189112,-6.581203849827346
1621786173957.206,0.1093639260069428,0.12392049075086785,0.13303975462456608,-1.069,-6.159,-6.58
1621786173962.136,0.094,0.122,0.134,-1.1097506739140042,-6.170600556807636,-6.591600556807636
1621786173967.265,0.08,0.12,0.134,-1.1521460662571625,-6.182669318131601,-6.603669318131601
1621786173972.391,0.066,0.117,0.133,-1.194519259946676,-6.194731760130806,-6.615731760130806
1621786173973.78,0.06572877234803337,0.11591508939213349,0.13245754469606674,-1.206,-6.198,-6.619
1621786173977.512,0.065,0.113,0.131,-1.2482109304626472,-6.202288811116526,-6.6501503123200285
1621786173982.631,0.056,0.113,0.124,-1.3061121989397362,-6.2081718276997595,-6.692879590661409
1621786173987.745,0.056,0.103,0.119,-1.3639554777831924,-6.214048952288132,-6.735566074513799
1621786173990.313,0.05398987099856665,0.10048733874820831,0.11799493549928333,-1.393,-6.217,-6.757
1621786173992.855,0.052,0.098,0.117,-1.4019403822523577,-6.210988363657897,-6.772106163116052
1621786173997.962,0.051,0.082,0.106,-1.419901860926466,-6.1989108176528935,-6.80245486846196
1621786174003.064,0.056,0.08,0.103,-1.437846166373044,-6.186844819162953,-6.832774556975144
1621786174006.804,0.05233200842831146,0.08,0.09639761517096064,-1.451,-6.178,-6.855
1621786174008.162,0.051,0.08,0.094,-1.4477804802041907,-6.178,-6.856568484003087
1621786174013.257,0.058,0.079,0.087,-1.4357027957499853,-6.178,-6.862452484121802
1621786174018.347,0.056,0.068,0.08,-1.423637264794919,-6.178,-6.868330563305039
1621786174023.256,0.05406997168498344,0.07186005663003311,0.07710495752747516,-1.412,-6.178,-6.874
1621786174023.434,0.054,0.072,0.077,-1.4117972895842175,-6.177797289584217,-6.874213379385034
1621786174028.517,0.049,0.073,0.073,-1.4060079468454096,-6.17200794684541,-6.880307424373253
1621786174033.719,0.049,0.07,0.07,-1.4000831857629996,-6.166083185762999,-6.886544014986316
1621786174038.918,0.049,0.059,0.063,-1.3941617614775572,-6.160161761477557,-6.892777093181519
1621786174039.938,0.049,0.05742983980833372,0.06162610983229201,-1.393,-6.159,-6.894
1621786174044.115,0.049,0.051,0.056,-1.4027075871099148,-6.146803287990107,-6.894
1621786174049.31,0.045,0.052,0.047,-1.41478121772023,-6.131633854659198,-6.894
1621786174054.501,0.044,0.051,0.04,-1.4268452025896559,-6.116476540336073,-6.894
1621786174056.719,0.04229020419685706,0.044160816787428246,0.03786275524607133,-1.432,-6.11,-6.894
1621786174059.69,0.04,0.035,0.035,-1.428453013874315,-6.10290602774863,-6.9044636090707705
1621786174064.877,0.037,0.033,0.028,-1.4222602891453888,-6.090520578290778,-6.922732147021103
1621786174070.061,0.03,0.031,0.019,-1.4160710621429404,-6.078142124285881,-6.940990366678326
1621786174073.471,0.02868366240987701,0.02639281843456953,0.017025493614815514,-1.412,-6.07,-6.953
1621786174075.242,0.028,0.024,0.016,-1.4078703471228797,-6.07,-6.960306308936444
1621786174080.421,0.021,0.007,0.01,-1.395793930458646,-6.07,-6.9816722768808575
1621786174085.597,0.012,0.002,0.003,-1.3837243453128192,-6.07,-7.0030261582927045
1621786174090.196,0.01022224319350729,0.006444392016231775,-0.0014443920162317747,-1.373,-6.07,-7.022
1621786174090.771,0.01,0.007,-0.002,-1.3702798450179106,-6.0713772936618176,-7.023342861320272
1621786174095.942,0.007,-0.009,-0.007,-1.345815776007018,-6.083764164047079,-7.035420059945903
1621786174101.11,0.007,-0.012,-0.016,-1.3213644126032604,-6.096144601213539,-7.047490986183201
1621786174106.276,0.009,-0.007,-0.017,-1.2969245997514438,-6.108519189999269,-7.059556210249287
1621786174106.894,0.009119704992435702,-0.008077344931921332,-0.017239409984871407,-1.294,-6.11,-7.061
1621786174111.44,0.01,-0.016,-0.019,-1.2754585285848172,-6.11518070524836,-7.061
1621786174116.6,0.01,-0.026,-0.021,-1.2544116682286786,-6.1210614456419865,-7.061
1621786174121.758,0.009,-0.028,-0.023,-1.2333737699156513,-6.126939681935332,-7.061
1621786174123.566,0.010753160661016146,-0.026246839338983852,-0.02335063213220323,-1.226,-6.129,-7.061
1621786174126.914,0.014,-0.023,-0.024,-1.2318501662204702,-6.129,-7.053132535082816
1621786174132.066,0.017,-0.017,-0.026,-1.2408519313936042,-6.129,-7.041026712953429
1621786174137.186,0.012,-0.024,-0.024,-1.2497982407107764,-6.129,-7.028995469388956
1621786174140.163,0.012,-0.02341819743308364,-0.029236223102247244,-1.255,-6.129,-7.022
1621786174142.303,0.012,-0.023,-0.033,-1.2575910105384511,-6.130295505269225,-7.022
1621786174147.418,0.017,-0.026,-0.03,-1.2637843090884904,-6.133392154544245,-7.022
1621786174152.529,0.019,-0.028,-0.037,-1.269972877898813,-6.136486438949406,-7.022
1621786174156.681,0.016561980311574118,-0.029625346458950586,-0.03781267322947529,-1.275,-6.139,-7.022
1621786174157.638,0.016,-0.03,-0.038,-1.2761029008899616,-6.142424797500407,-7.024263849195185
1621786174162.743,0.024,-0.035,-0.042,-1.2819859768106499,-6.160693296412019,-7.036339636611334
1621786174167.845,0.026,-0.033,-0.044,-1.287865676504124,-6.178951311249649,-7.048408493876886
1621786174172.944,0.026,-0.04,-0.049,-1.293741999970384,-6.197198842013298,-7.060470420991841
1621786174173.168,0.026395315418882022,-0.04008784787086267,-0.04891215212913733,-1.294,-6.198,-7.061
1621786174178.041,0.035,-0.042,-0.047,-1.3058464003798445,-6.209550240370349,-7.049449759629652
1621786174183.134,0.044,-0.051,-0.054,-1.3182275505964747,-6.221621861831563,-7.037378138168437
1621786174188.224,0.044,-0.058,-0.054,-1.330601578728708,-6.23368653926049,-7.02531346073951
1621786174189.622,0.044824280230326294,-0.056900959692898274,-0.055923320537428024,-1.334,-6.237,-7.022
1621786174193.312,0.047,-0.054,-0.061,-1.334,-6.228237870139137,-7.017506600071353
1621786174198.396,0.056,-0.068,-0.065,-1.334,-6.2161654477345705,-7.011315614222856
1621786174203.477,0.065,-0.068,-0.072,-1.334,-6.20409998216197,-7.005128195980497
1621786174206.046,0.061965828807612824,-0.07255125678858076,-0.07098860960253761,-1.334,-6.198,-7.002
1621786174208.557,0.059,-0.077,-0.07,-1.334,-6.181456256888386,-6.991430386345358
1621786174213.632,0.054,-0.084,-0.072,-1.334,-6.148018110869501,-6.970067126388847
1621786174218.704,0.047,-0.089,-0.077,-1.334,-6.114600875755861,-6.948717226177355
1621786174222.438,0.041843560350640595,-0.089,-0.07847326847124554,-1.334,-6.09,-6.933
1621786174223.773,0.04,-0.089,-0.079,-1.3291847517836355,-6.093999104450879,-6.928184751783635
1621786174228.841,0.031,-0.094,-0.082,-1.3109038926535121,-6.109181512880982,-6.909903892653512
1621786174233.904,0.028,-0.101,-0.087,-1.2926415266127347,-6.124348562643661,-6.891641526612735
1621786174238.795,0.0173611258629846,-0.09422980736735384,-0.087,-1.275,-6.139,-6.874
1621786174238.961,0.017,-0.094,-0.087,-1.2746032731461396,-6.139600176522507,-6.874803626191152
1621786174244.016,0.019,-0.099,-0.082,-1.2625229404460931,-6.157875551632833,-6.89927404371176
1621786174249.066,0.016,-0.094,-0.093,-1.250455443026613,-6.176131509267432,-6.923718461561476
1621786174254.115,0.019,-0.096,-0.091,-1.2383896958726643,-6.194384819064431,-6.948159334001526
1621786174255.115,0.019,-0.096,-0.09258606001936108,-1.236,-6.198,-6.953
1621786174259.159,0.019,-0.096,-0.099,-1.2335172372444392,-6.207682774746687,-6.984531086995624
1621786174264.201,0.024,-0.094,-0.099,-1.230421727921338,-6.219755261106781,-7.023844055399005
1621786174269.239,0.031,-0.099,-0.098,-1.2273286168235507,-6.231818394388153,-7.063126566340908
1621786174271.403,0.033577868256507194,-0.099,-0.10014822354708933,-1.226,-6.237,-7.08
1621786174274.276,0.037,-0.099,-0.103,-1.226,-6.237,-7.090426724137931
1621786174279.308,0.045,-0.11,-0.112,-1.226,-6.237,-7.108690991829869
1621786174284.337,0.058,-0.119,-0.108,-1.226,-6.237,-7.126942854139132
1621786174287.659,0.06130411344762275,-0.1163567092419018,-0.1106432907580982,-1.226,-6.237,-7.139
1621786174289.364,0.063,-0.115,-0.112,-1.2219012850994673,-6.232901285099468,-7.130802570198934
1621786174294.387,0.073,-0.12,-0.115,-1.2098269780600115,-6.220826978060011,-7.106653956120023
1621786174299.408,0.077,-0.12,-0.117,-1.1977573659975322,-6.208757365997532,-7.082514731995064
1621786174303.883,0.077,-0.12,-0.12145985401459854,-1.187,-6.198,-7.061
1621786174304.425,0.077,-0.12,-0.122,-1.1850246131571804,-6.197330377341418,-7.057718848972944
1621786174309.439,0.079,-0.119,-0.12,-1.1667505052333123,-6.191135764485868,-7.027365245980756
1621786174314.45,0.084,-0.119,-0.119,-1.148487075076162,-6.184944771212258,-6.9970293789400655
1621786174319.459,0.084,-0.127,-0.122,-1.130230763430157,-6.178756190993274,-6.966705335867041
1621786174320.071,0.08338856641139457,-0.127,-0.12175542656455782,-1.128,-6.178,-6.963
1621786174324.464,0.079,-0.127,-0.12,-1.1173965822038892,-6.172834232355741,-6.963
1621786174329.466,0.08,-0.131,-0.122,-1.1053235120801415,-6.166952480244172,-6.963
1621786174334.465,0.07,-0.131,-0.122,-1.0932575132586917,-6.161074173126029,-6.963
1621786174336.229,0.07,-0.131,-0.12270515323052898,-1.089,-6.159,-6.963
1621786174339.468,0.07,-0.131,-0.124,-1.0809851386455627,-6.159,-6.963
1621786174344.472,0.072,-0.129,-0.124,-1.0686030930949073,-6.159,-6.963
1621786174349.475,0.068,-0.141,-0.124,-1.056222859904549,-6.159,-6.963
1621786174352.394,0.068,-0.13691167993747252,-0.12166381710712715,-1.049,-6.159,-6.963
1621786174354.473,0.068,-0.134,-0.12,-1.0465517168323724,-6.164025423344078,-6.963
1621786174359.468,0.061,-0.126,-0.126,-1.0406689366081021,-6.1761006038044215,-6.963
1621786174364.46,0.063,-0.124,-0.124,-1.0347898942207292,-6.188168111862714,-6.963
1621786174368.527,0.06463011889035668,-0.12236988110964332,-0.126445178335535,-1.03,-6.198,-6.963
1621786174369.45,0.065,-0.122,-0.127,-1.0288537291707731,-6.198,-6.96128059375616
1621786174374.436,0.061,-0.126,-0.12,-1.0226605309841856,-6.198,-6.951990796476278
1621786174379.421,0.065,-0.124,-0.122,-1.0164688490288538,-6.198,-6.94270327354328
1621786174384.401,0.068,-0.126,-0.119,-1.0102832319985444,-6.198,-6.933424847997816
1621786174384.629,0.068,-0.126,-0.11904581575591092,-1.01,-6.198,-6.933
1621786174389.378,0.068,-0.126,-0.12,-1.0159111144875788,-6.192088885512422,-6.933
1621786174394.353,0.068,-0.127,-0.122,-1.022103623793968,-6.185896376206032,-6.933
1621786174399.324,0.061,-0.129,-0.12,-1.0282909671047633,-6.179709032895237,-6.933
1621786174400.697,0.06044724556489262,-0.12844724556489262,-0.12,-1.03,-6.178,-6.933
1621786174404.292,0.059,-0.127,-0.12,-1.03,-6.169259132420091,-6.933
1621786174409.258,0.058,-0.129,-0.117,-1.03,-6.157184566210046,-6.933
1621786174414.221,0.052,-0.131,-0.115,-1.03,-6.145117716894977,-6.933
1621786174416.737,0.047940921622686095,-0.1335369239858212,-0.1134778456085073,-1.03,-6.139,-6.933
1621786174419.18,0.044,-0.136,-0.112,-1.0269481341405762,-6.139,-6.9301007274335475
1621786174424.136,0.042,-0.129,-0.112,-1.0207565613895964,-6.139,-6.924218733320116
1621786174429.09,0.037,-0.126,-0.112,-1.0145674286672868,-6.139,-6.918339057233922
1621786174432.746,0.03552281134401973,-0.1319087546239211,-0.10904562268803945,-1.01,-6.139,-6.914
1621786174434.04,0.035,-0.134,-0.108,-1.0116200767243884,-6.139,-6.91950826086292
1621786174438.987,0.023,-0.122,-0.105,-1.0178139662840637,-6.139,-6.940567485365817
1621786174443.933,0.014,-0.12,-0.096,-1.0240066331443245,-6.139,-6.961622552690703
1621786174448.72,0.00043650558355568837,-0.11321825279177784,-0.09890646308923808,-1.03,-6.139,-6.982
1621786174448.874,0.0,-0.113,-0.099,-1.0286667177045214,-6.140140052977293,-6.98134302031817
1621786174453.812,-0.003,-0.11,-0.093,-0.9859298433648237,-6.176683177412687,-6.960284270643537
1621786174458.748,-0.012,-0.099,-0.087,-0.943209872762628,-6.2132118479276075,-6.9392338503468025
1621786174463.68,-0.012,-0.093,-0.082,-0.9005258226026244,-6.249709803861524,-6.9182011299781045
1621786174464.665,-0.012999306553073455,-0.09399930655307345,-0.08060097082569716,-0.892,-6.257,-6.914
1621786174468.609,-0.017,-0.098,-0.075,-0.836235873517544,-6.285997345770877,-6.894420595590604
1621786174473.536,-0.026,-0.089,-0.077,-0.7665704137835806,-6.3222233848325375,-6.869960278617346
1621786174478.459,-0.028,-0.087,-0.068,-0.696960186563157,-6.358420702987158,-6.845519354393286
1621786174480.578,-0.02584704306410002,-0.08183290335384004,-0.06498586028974003,-0.667,-6.374,-6.835
1621786174483.38,-0.023,-0.075,-0.061,-0.6601641747735916,-6.377505551398158,-6.838505551398158
1621786174488.298,-0.014,-0.077,-0.052,-0.648165595076284,-6.383658669191649,-6.84465866919165
1621786174493.212,-0.005,-0.066,-0.045,-0.6361777363734938,-6.389806289039234,-6.850806289039235
1621786174496.564,-0.005,-0.06133605085650507,-0.03833721550929296,-0.628,-6.394,-6.855
1621786174498.243,-0.005,-0.059,-0.035,-0.6444850599282388,-6.387804977479197,-6.859095014886633
1621786174503.195,0.0,-0.052,-0.03,-0.6931084357584548,-6.36953249866402,-6.871173433086495
1621786174508.145,0.005,-0.035,-0.021,-0.741710237422704,-6.351268127337964,-6.883246492098634
1621786174512.554,0.013022656597067972,-0.030542968557184462,-0.016542968557184463,-0.785,-6.335,-6.894
1621786174513.091,0.014,-0.03,-0.016,-0.7899460885524203,-6.334327062781983,-6.894
1621786174518.035,0.021,-0.024,-0.014,-0.8354725854553797,-6.328132981570697,-6.894
1621786174522.976,0.024,-0.023,-0.01,-0.880974351915577,-6.3219422650455,-6.894
1621786174527.915,0.021,-0.012,-0.009,-0.9264558843771508,-6.315754301445286,-6.894
1621786174528.517,0.02295191451469279,-0.011146037399821906,-0.009,-0.932,-6.315,-6.894
1621786174532.85,0.037,-0.005,-0.009,-0.9477733408927231,-6.320439083066456,-6.888560916933543
1621786174537.784,0.035,-0.01,-0.003,-0.9657338686198496,-6.326632368489603,-6.882367631510396
1621786174542.714,0.038,-0.005,-0.002,-0.9836810652610288,-6.332821056986561,-6.876178943013438
1621786174544.45,0.03940896705474362,-0.004295516472628189,-0.0023522417636859055,-0.99,-6.335,-6.874
1621786174547.642,0.042,-0.003,-0.003,-0.9940137526668815,-6.339013752666881,-6.874
1621786174552.567,0.047,-0.002,-0.003,-1.0002061365136377,-6.345206136513638,-6.874
1621786174557.489,0.054,-0.005,0.0,-1.0063951435895075,-6.3513951435895075,-6.874
1621786174560.356,0.054,-0.0020863934100833663,0.0011654426359666533,-1.01,-6.355,-6.874
1621786174562.409,0.054,0.0,0.002,-1.0202145119626054,-6.352414047604404,-6.861328833261578
1621786174567.326,0.058,0.005,0.002,-1.044678808659819,-6.346220554769666,-6.830980718371364
1621786174572.24,0.059,0.0,0.003,-1.0691285288148102,-6.340030752198782,-6.800650685774032
1621786174576.234,0.06225228628230616,0.002439214711729622,0.006252286282306163,-1.089,-6.335,-6.776
1621786174577.152,0.063,0.003,0.007,-1.089,-6.331581857112049,-6.773740549616439
1621786174582.06,0.054,0.002,0.005,-1.089,-6.313311469854278,-6.761663513971472
1621786174586.966,0.049,0.007,0.009,-1.089,-6.295048353307249,-6.749591284389537
1621786174591.87,0.044,0.012,0.009,-1.089,-6.276792507470963,-6.7375238608706365
1621786174592.083,0.04361393152302243,0.01221448248720976,0.009300275482093664,-1.089,-6.276,-6.737
1621786174596.833,0.035,0.017,0.016,-1.089,-6.264376114464291,-6.748623885535709
1621786174601.753,0.033,0.012,0.012,-1.089,-6.252336407365422,-6.760663592634578
1621786174606.672,0.023,0.012,0.016,-1.089,-6.240298492600877,-6.772701507399123
1621786174608.02,0.020531717251999405,0.011451492722666535,0.016,-1.089,-6.237,-6.776
1621786174611.587,0.014,0.01,0.016,-1.089,-6.228232786078072,-6.7849920142789
1621786174616.5,0.01,0.005,0.017,-1.089,-6.216156714006555,-6.7973777292240465
1621786174621.41,0.0,0.014,0.021,-1.089,-6.204088443015187,-6.809755443061347
1621786174623.887,-0.001009150586831112,0.015513725880246668,0.021,-1.089,-6.198,-6.816
1621786174626.319,-0.002,0.017,0.021,-1.0919169504846737,-6.198,-6.824904375163741
1621786174631.224,-0.005,0.019,0.024,-1.0977997503428933,-6.198,-6.842862395783569
1621786174636.126,-0.009,0.021,0.021,-1.1036787437007813,-6.198,-6.8608087965602795
1621786174639.729,-0.012675716064757162,0.015853997509339975,0.026146002490660025,-1.108,-6.198,-6.874
1621786174641.027,-0.014,0.014,0.028,-1.108,-6.1947984715145905,-6.882865771190366
1621786174645.924,-0.014,0.014,0.023,-1.108,-6.182720935618342,-6.916311255210745
1621786174650.82,-0.017,0.019,0.028,-1.108,-6.170645808244558,-6.949750069476609
1621786174655.542,-0.020861057044467737,0.014173678694415333,0.024138942955532264,-1.108,-6.159,-6.982
1621786174655.712,-0.021,0.014,0.024,-1.107580282038595,-6.159624195942603,-6.981472662048491
1621786174660.601,-0.017,0.017,0.021,-1.095503741959426,-6.177584178624443,-6.9662995732310735
1621786174665.488,-0.023,0.014,0.024,-1.0834326292676892,-6.1955360898070255,-6.951133303438891
1621786174670.373,-0.023,0.017,0.023,-1.0713663409203364,-6.213480826323602,-6.935973095002474
1621786174671.331,-0.02437367473494699,0.017,0.02358871774354871,-1.069,-6.217,-6.933
1621786174675.255,-0.03,0.017,0.026,-1.064021142795186,-6.231687628754202,-6.928270085655426
1621786174680.134,-0.023,0.026,0.028,-1.0578300986663776,-6.249951208934186,-6.922388593733058
1621786174685.012,-0.024,0.019,0.03,-1.0516406034602932,-6.2682102197921346,-6.916508573287278
1621786174687.093,-0.024854108216432864,0.021135270541082163,0.03042705410821643,-1.049,-6.276,-6.914
1621786174689.885,-0.026,0.024,0.031,-1.049,-6.276,-6.917371357641582
1621786174694.757,-0.028,0.033,0.026,-1.049,-6.276,-6.923254429790535
1621786174699.627,-0.021,0.033,0.031,-1.049,-6.276,-6.929134848719937
1621786174702.828,-0.018368722091214693,0.031026541568411017,0.03363127790878531,-1.049,-6.276,-6.933
1621786174704.493,-0.017,0.03,0.035,-1.049,-6.276,-6.936179536589535
1621786174709.357,-0.021,0.03,0.037,-1.049,-6.276,-6.945467792817293
1621786174714.219,-0.016,0.031,0.035,-1.049,-6.276,-6.9547523193833625
1621786174718.538,-0.016,0.04344718062116795,0.037667252990250276,-1.049,-6.276,-6.963
1621786174719.077,-0.016,0.045,0.038,-1.049,-6.276,-6.961969221428238
1621786174723.933,-0.017,0.047,0.037,-1.049,-6.276,-6.952679136892252
1621786174728.787,-0.012,0.04,0.047,-1.049,-6.276,-6.943393255803092
1621786174733.638,-0.01,0.044,0.045,-1.049,-6.276,-6.934113446359348
1621786174734.22,-0.009879947628159936,0.04460026185920032,0.04524010474368013,-1.049,-6.276,-6.933
1621786174738.486,-0.009,0.049,0.047,-1.0650779439514682,-6.270822357032578,-6.933
1621786174743.333,-0.014,0.049,0.049,-1.0833448216708514,-6.264939803190742,-6.933
1621786174748.176,-0.016,0.051,0.054,-1.1015969776835146,-6.2590619902375115,-6.933
1621786174749.875,-0.015297957124842372,0.05521225725094577,0.05329795712484237,-1.108,-6.257,-6.933
1621786174753.016,-0.014,0.063,0.052,-1.1276986001749782,-6.257,-6.921140638670166
1621786174757.855,-0.017,0.063,0.054,-1.158044181977253,-6.257,-6.902871359830021
1621786174762.69,-0.021,0.058,0.049,-1.1883652668416447,-6.257,-6.884616829146356
1621786174765.502,-0.018090826429581736,0.05974550414225096,0.04609082642958173,-1.206,-6.257,-6.874
1621786174767.523,-0.016,0.061,0.044,-1.2123471661502832,-6.2544093199386595,-6.871538853941726
1621786174772.354,-0.019,0.058,0.047,-1.2275196382186335,-6.248216474196476,-6.865655650486652
1621786174777.181,-0.019,0.056,0.042,-1.2426790755171657,-6.242028948768504,-6.859777501330079
1621786174781.104,-0.024691307427646223,0.05437391216352965,0.04037391216352965,-1.255,-6.237,-6.855
1621786174782.006,-0.026,0.054,0.04,-1.2584170598285238,-6.238158325365601,-6.853841674634399
1621786174786.83,-0.021,0.049,0.037,-1.2766897757018134,-6.244352466339598,-6.847647533660402
1621786174791.649,-0.028,0.051,0.031,-1.2949430712080128,-6.250540024138309,-6.8414599758616905
1621786174796.467,-0.026,0.049,0.033,-1.313193592376056,-6.256726641483408,-6.8352733585165915
1621786174796.68,-0.025911570834600953,0.04846942500760572,0.03286735625190143,-1.314,-6.257,-6.835
1621786174801.282,-0.024,0.037,0.03,-1.3199193895335144,-6.257,-6.835
1621786174806.094,-0.031,0.033,0.024,-1.326108841401184,-6.257,-6.835
1621786174810.903,-0.026,0.03,0.023,-1.332294524957214,-6.257,-6.835
1621786174812.229,-0.0279304829127101,0.0280695170872899,0.0213453003605342,-1.334,-6.257,-6.835
1621786174815.711,-0.033,0.023,0.017,-1.3250259556394526,-6.265749693251534,-6.839487022180274
1621786174820.515,-0.033,0.023,0.016,-1.3126446436998584,-6.277821472392638,-6.8456776781500706
1621786174825.317,-0.033,0.017,0.012,-1.300268365581249,-6.289888343558283,-6.851865817209376
1621786174827.749,-0.0340133767356696,0.0154799348964956,0.009466558160826002,-1.294,-6.296,-6.855
1621786174830.117,-0.035,0.014,0.007,-1.2970567768165273,-6.296,-6.8669214295844565
1621786174834.914,-0.031,0.007,0.01,-1.3032494366441325,-6.296,-6.891072802912117
1621786174839.708,-0.033,0.007,0.003,-1.3094379993381553,-6.296,-6.9152081974188055
1621786174843.242,-0.03152506623191359,0.007,0.0007875993478703891,-1.314,-6.296,-6.933
1621786174844.5,-0.031,0.007,0.0,-1.3068413608019576,-6.296,-6.9346269634541
1621786174849.289,-0.035,-0.003,0.0,-1.279590464914358,-6.296,-6.940820348883101
1621786174854.075,-0.028,-0.005,-0.005,-1.252357628857842,-6.296,-6.947009629805036
1621786174858.707,-0.023158713957642255,-0.006936514416943098,-0.008873028833886194,-1.226,-6.296,-6.953
1621786174858.859,-0.023,-0.007,-0.009,-1.2252228688913491,-6.296,-6.951839221888345
1621786174863.64,-0.023,-0.009,-0.007,-1.200755733038115,-6.296,-6.915293373398703
1621786174868.419,-0.021,-0.012,-0.016,-1.1762985924402973,-6.296,-6.878762454531077
1621786174873.196,-0.024,-0.012,-0.014,-1.1518514470978967,-6.296,-6.8422464652854655
1621786174874.144,-0.025191713554987213,-0.01299309462915601,-0.014595856777493607,-1.147,-6.296,-6.835
1621786174877.969,-0.03,-0.017,-0.017,-1.1422852097060314,-6.286322272554486,-6.8253222725544855
1621786174882.74,-0.038,-0.017,-0.019,-1.1364042859858083,-6.274250902812975,-6.8132509028129755
1621786174887.509,-0.038,-0.019,-0.024,-1.1305257697668525,-6.262184474784592,-6.801184474784592
1621786174889.558,-0.04187031818414715,-0.019860070707588256,-0.024860070707588257,-1.128,-6.257,-6.796
1621786174892.274,-0.047,-0.021,-0.026,-1.1175842696629212,-6.267239192534755,-6.799530756046468
1621786174897.037,-0.049,-0.024,-0.024,-1.099316479400749,-6.285197359233162,-6.80572322732178
1621786174901.798,-0.054,-0.024,-0.024,-1.0810571161048688,-6.303147241795214,-6.81191284199835
1621786174904.942,-0.04805310960591133,-0.019374640804597703,-0.022017703201970443,-1.069,-6.315,-6.816
1621786174906.556,-0.045,-0.017,-0.021,-1.0711015656043867,-6.319203131208774,-6.826297671461496
1621786174911.311,-0.049,-0.023,-0.021,-1.0772930938567908,-6.331586187713582,-6.856636159898275
1621786174916.065,-0.045,-0.033,-0.024,-1.0834830326631169,-6.343966065326234,-6.886966860049273
1621786174920.302,-0.04053993626644737,-0.02853993626644737,-0.02132396175986842,-1.089,-6.355,-6.914
1621786174920.815,-0.04,-0.028,-0.021,-1.0883309343353926,-6.351721578243424,-6.915304678045984
1621786174925.562,-0.038,-0.038,-0.026,-1.0821389720399974,-6.321380962995987,-6.927379004522005
1621786174930.308,-0.035,-0.037,-0.026,-1.0759482835488186,-6.291046589389211,-6.9394508470798035
1621786174935.051,-0.031,-0.049,-0.03,-1.0697617349213426,-6.260732501114578,-6.951514616903382
1621786174935.635,-0.032108833376255475,-0.049,-0.03,-1.069,-6.257,-6.953
1621786174939.791,-0.04,-0.049,-0.03,-1.069,-6.262159060820187,-6.904939275517203
1621786174944.528,-0.047,-0.051,-0.03,-1.069,-6.268039414288676,-6.850159140573908
1621786174949.263,-0.052,-0.063,-0.033,-1.069,-6.273917040179924,-6.795404415165967
1621786174950.941,-0.05519130165609039,-0.059099520198111745,-0.033,-1.069,-6.276,-6.776
1621786174953.995,-0.061,-0.052,-0.033,-1.069,-6.279998401917699,-6.772201518178186
1621786174958.725,-0.07,-0.052,-0.038,-1.069,-6.286190651218538,-6.7663188813423885
1621786174963.452,-0.073,-0.052,-0.037,-1.069,-6.292378745505394,-6.7604401917698755
1621786174966.218,-0.07417105943152455,-0.052,-0.03582894056847545,-1.069,-6.296,-6.757
1621786174968.176,-0.075,-0.052,-0.035,-1.0790147284836065,-6.301007364241803,-6.769582607581967
1621786174972.898,-0.07,-0.061,-0.037,-1.1031662077356557,-6.313083103867828,-6.7999267738217215
1621786174977.618,-0.068,-0.056,-0.044,-1.1273076972336065,-6.325153848616804,-6.830258388831967
1621786174981.468,-0.06228534451519387,-0.05763275870994461,-0.044816379354972305,-1.147,-6.335,-6.855
1621786174982.334,-0.061,-0.058,-0.045,-1.1459191698875757,-6.333862284092185,-6.862224496014627
1621786174987.049,-0.051,-0.068,-0.052,-1.1400341763828525,-6.327667554087213,-6.901561031546197
1621786174991.76,-0.038,-0.066,-0.054,-1.1341543630619215,-6.321478276907286,-6.940862941638734
1621786174996.469,-0.031,-0.075,-0.063,-1.12827698747454,-6.315291565762674,-6.980148557407022
1621786174996.691,-0.030622821576763486,-0.07523573651452282,-0.06290570539419087,-1.128,-6.315,-6.982
1621786175001.176,-0.023,-0.08,-0.061,-1.1105861703324067,-6.291978326880131,-6.973440659993895
1621786175005.879,-0.019,-0.077,-0.065,-1.0923268158668444,-6.2678388413154895,-6.964465723053195
1621786175010.58,-0.019,-0.08,-0.068,-1.074074096685571,-6.243708127821603,-6.955494047523416
1621786175011.887,-0.020390317386109812,-0.08194644434055373,-0.06744387304555607,-1.069,-6.237,-6.953
1621786175015.28,-0.024,-0.087,-0.066,-1.0602781076514602,-6.228278107651461,-6.935332577037574
1621786175019.976,-0.024,-0.087,-0.068,-1.0482069032102341,-6.216206903210234,-6.910880650092525
1621786175024.669,-0.031,-0.084,-0.073,-1.0361438571083756,-6.204143857108376,-6.886445249014401
1621786175027.059,-0.031,-0.08501899557637263,-0.07045251105906844,-1.03,-6.198,-6.874
1621786175029.36,-0.031,-0.086,-0.068,-1.0239218057234987,-6.2008871422813385,-6.87703909713825
1621786175034.048,-0.04,-0.087,-0.07,-1.0115384119306732,-6.20676925433293,-6.883230794034663
1621786175038.734,-0.042,-0.086,-0.066,-0.9991608222490931,-6.212648609431681,-6.8894195888754535
1621786175042.202,-0.044221150839153546,-0.0815576983216929,-0.06748076722610237,-0.99,-6.217,-6.894
1621786175043.418,-0.045,-0.08,-0.068,-0.9916090840076884,-6.218609084007688,-6.901079969633829
1621786175048.098,-0.052,-0.08,-0.066,-0.9978015215389834,-6.224801521538983,-6.928326694771527
1621786175052.776,-0.052,-0.08,-0.07,-1.003991374715317,-6.230991374715317,-6.955562048747396
1621786175057.317,-0.04908661828434188,-0.08,-0.06805774552289459,-1.01,-6.237,-6.982
1621786175057.452,-0.049,-0.08,-0.068,-1.01,-6.237178961505477,-6.982706897946636
1621786175062.124,-0.047,-0.084,-0.066,-1.01,-6.243372065176938,-7.007169657448909
1621786175066.795,-0.045,-0.08,-0.066,-1.01,-6.249563550751605,-7.031626025468843
1621786175071.463,-0.038,-0.08,-0.066,-1.01,-6.255751152893966,-7.056067053931166
1621786175072.405,-0.03638400335008375,-0.08040399916247906,-0.066,-1.01,-6.257,-7.061
1621786175076.127,-0.03,-0.082,-0.066,-1.0149421337569293,-6.2616950270690825,-7.061
1621786175080.791,-0.021,-0.087,-0.068,-1.0211352805783382,-6.267578516549421,-7.061
1621786175085.45,-0.019,-0.096,-0.068,-1.0273216196064447,-6.273455538626123,-7.061
1621786175087.467,-0.01510180865006553,-0.09383433813892529,-0.0701656618610747,-1.03,-6.276,-7.061
1621786175090.107,-0.01,-0.091,-0.073,-1.0229757206658547,-6.269151327649208,-7.050639187982136
1621786175094.762,-0.003,-0.091,-0.068,-1.0105895249695493,-6.257074786845311,-7.0323695493300855
1621786175099.415,-0.005,-0.091,-0.068,-0.9982085261875762,-6.245003313032886,-7.0141075761266745
1621786175102.5,-0.0030092427266043484,-0.08768207121100724,-0.06600924272660436,-0.99,-6.237,-7.002
1621786175104.064,-0.002,-0.086,-0.065,-0.9920843026566236,-6.239084302656623,-6.992829068310856
1621786175108.712,-0.002,-0.093,-0.061,-0.9982786445200019,-6.245278644520002,-6.965573964111991
1621786175113.356,-0.003,-0.089,-0.061,-1.0044677805072475,-6.251467780507247,-6.938341765768111
1621786175117.507,-0.00031672803787480275,-0.08095018411362441,-0.06547211993687534,-1.01,-6.257,-6.914
1621786175117.997,0.0,-0.08,-0.066,-1.0093457639273724,-6.257,-6.914
1621786175122.637,0.002,-0.073,-0.056,-1.0031505688300681,-6.257,-6.914
1621786175127.274,0.002,-0.075,-0.061,-0.9969592854581608,-6.257,-6.914
1621786175131.907,0.002,-0.073,-0.052,-0.9907732177201161,-6.257,-6.914
1621786175132.486,0.002374980239236971,-0.07212504610844707,-0.05224998682615798,-0.99,-6.257,-6.914
1621786175136.54,0.005,-0.066,-0.054,-0.99,-6.257,-6.908578047705343
1621786175141.168,0.005,-0.063,-0.051,-0.99,-6.257,-6.902388434474539
1621786175145.794,0.005,-0.058,-0.045,-0.99,-6.257,-6.8962014334459845
1621786175147.44,0.004288217905405406,-0.059779455236486485,-0.0446441089527027,-0.99,-6.257,-6.894
1621786175150.419,0.003,-0.063,-0.044,-0.9939914296462276,-6.257,-6.890008570353772
1621786175155.04,0.005,-0.058,-0.037,-1.0001830195776975,-6.257,-6.883816980422303
1621786175159.658,0.0,-0.059,-0.033,-1.0063703570435552,-6.257,-6.877629642956444
1621786175162.367,0.0,-0.054306012373750726,-0.03182650309343768,-1.01,-6.257,-6.874
1621786175164.275,0.0,-0.051,-0.031,-1.0125609935934197,-6.25443900640658,-6.8765609935934195
1621786175168.888,-0.002,-0.047,-0.031,-1.0187529288394424,-6.2482470711605576,-6.882752928839442
1621786175173.499,-0.003,-0.049,-0.024,-1.024942242466943,-6.242057757533057,-6.888942242466943
1621786175177.267,-0.0046354773762848364,-0.039187135742290984,-0.018275829183003075,-1.03,-6.237,-6.894
1621786175178.107,-0.005,-0.037,-0.017,-1.0333316370918761,-6.235870631494279,-6.894
1621786175182.713,-0.003,-0.03,-0.016,-1.0516033421428455,-6.229676833171917,-6.894
1621786175187.316,-0.007,-0.031,-0.016,-1.0698634252039594,-6.223486974507132,-6.894
1621786175191.917,-0.007,-0.037,-0.014,-1.0881157602718363,-6.2172997422807335,-6.894
1621786175192.14,-0.006660576769876254,-0.037242445164374104,-0.013806043868500718,-1.089,-6.217,-6.894
1621786175196.514,0.0,-0.042,-0.01,-1.089,-6.217,-6.90549103706871
1621786175201.11,0.0,-0.028,-0.01,-1.089,-6.217,-6.917565733644706
1621786175205.703,-0.002,-0.023,-0.012,-1.089,-6.217,-6.929631450843667
1621786175206.985,-0.0014413063134939633,-0.023,-0.009485878410722834,-1.089,-6.217,-6.933
1621786175210.293,0.0,-0.023,-0.003,-1.0977055751425087,-6.208294424857491,-6.92875882236647
1621786175214.881,-0.002,-0.016,-0.005,-1.1097805529012488,-6.196219447098751,-6.922876140894263
1621786175219.465,-0.003,-0.019,-0.005,-1.1218446077300734,-6.184155392269926,-6.916998780849451
1621786175221.804,-0.002489665459194545,-0.016448327295972724,-0.0024483272959727256,-1.128,-6.178,-6.914
1621786175224.048,-0.002,-0.014,0.0,-1.128,-6.178,-6.910965735789265
1621786175228.628,-0.007,-0.007,-0.002,-1.128,-6.178,-6.9047734204793025
1621786175233.206,-0.005,-0.009,0.003,-1.128,-6.178,-6.898583415857925
1621786175236.596,-0.00870563117160395,-0.009,0.00448225246864158,-1.128,-6.178,-6.894
1621786175237.78,-0.01,-0.009,0.005,-1.1311277904554022,-6.179603995105334,-6.897127790455403
1621786175242.353,-0.012,-0.005,0.012,-1.1432075106657407,-6.185798723418329,-6.90920751066574
1621786175246.922,-0.017,-0.005,0.009,-1.1552769123921023,-6.1919881602010785,-6.921276912392102
1621786175251.36,-0.017,-0.00014113118785416458,0.009971773762429168,-1.167,-6.198,-6.933
1621786175251.489,-0.017,0.0,0.01,-1.1673410683229815,-6.198166161490684,-6.933262360248447
1621786175256.053,-0.023,0.0,0.01,-1.1794166956521739,-6.20404915942029,-6.942551304347826
1621786175260.615,-0.024,0.0,0.012,-1.191487155279503,-6.209929639751553,-6.951836273291925
1621786175265.174,-0.019,0.0,0.009,-1.2035498633540371,-6.2158063436852995,-6.9611152795031055
1621786175266.1,-0.018593483736134182,-0.0006097743957987246,0.009609774395798723,-1.206,-6.217,-6.963
1621786175269.73,-0.017,-0.003,0.012,-1.210934616661135,-6.2073774975107865,-6.960532691669433
1621786175274.285,-0.016,-0.003,0.005,-1.217126783936276,-6.195302771324261,-6.957436608031862
1621786175278.836,-0.016,0.002,0.012,-1.223313640889479,-6.183238400265516,-6.954343179555261
1621786175280.812,-0.017302892096367442,-0.00017148682727906837,0.010697107903632559,-1.226,-6.178,-6.953
1621786175283.386,-0.019,-0.003,0.009,-1.2277526681517439,-6.174669930511687,-6.9494946636965125
1621786175287.932,-0.012,-0.003,0.007,-1.2308480566545865,-6.168788692356285,-6.943303886690827
1621786175292.475,-0.017,-0.009,0.01,-1.2339416165176047,-6.162910928616551,-6.93711676696479
1621786175295.498,-0.018331397849462364,-0.0010116129032258052,0.005340107526881721,-1.236,-6.159,-6.933
1621786175297.016,-0.019,0.003,0.003,-1.2379677542930427,-6.159,-6.933
1621786175301.555,-0.021,-0.002,0.007,-1.243851080131248,-6.159,-6.933
1621786175306.091,-0.023,0.005,0.007,-1.2497309248988158,-6.159,-6.933
1621786175310.156,-0.021206881697269937,0.005,0.008793118302730062,-1.255,-6.159,-6.933
1621786175310.625,-0.021,0.005,0.009,-1.255,-6.160250129319695,-6.933641091958818
1621786175315.156,-0.023,0.003,0.005,-1.255,-6.172327771195915,-6.939834754459444
1621786175319.684,-0.024,0.003,0.012,-1.255,-6.184397603831201,-6.946024412221129
1621786175324.209,-0.019,0.0,0.005,-1.255,-6.196458976455473,-6.9522097315156275
1621786175324.787,-0.019,-0.0002555855369670804,0.005,-1.255,-6.198,-6.953
1621786175328.733,-0.019,-0.002,0.005,-1.249866461600187,-6.198,-6.960835400715504
1621786175333.253,-0.017,0.0,0.009,-1.2439858570998696,-6.198,-6.969811060215989
1621786175337.771,-0.014,-0.005,0.003,-1.23810779364071,-6.198,-6.978782841285232
1621786175339.391,-0.014,-0.002130068115471943,0.0037174829711320145,-1.236,-6.198,-6.982
1621786175342.287,-0.014,0.003,0.005,-1.2340131651675794,-6.198,-6.976238178985981
1621786175346.799,-0.012,0.002,0.002,-1.2309176758286853,-6.198,-6.967261259903188
1621786175351.31,-0.007,0.009,0.005,-1.2278228564728741,-6.198,-6.958286283771335
1621786175353.967,-0.008179089924160346,0.005462730227518959,0.0038209100758396534,-1.226,-6.198,-6.953
1621786175355.817,-0.009,0.003,0.003,-1.221041646391597,-6.198,-6.9454989009513906
1621786175360.322,-0.007,0.0,0.005,-1.2089660888970921,-6.198,-6.92723074986996
1621786175364.825,-0.007,0.005,0.01,-1.1968964209607866,-6.198,-6.908971508632985
1621786175368.517,-0.011103266767961797,0.005,0.00917934664640764,-1.187,-6.198,-6.894
1621786175369.324,-0.012,0.005,0.009,-1.187,-6.196888664716366,-6.892888664716366
1621786175373.822,-0.014,0.014,0.012,-1.187,-6.190693432865934,-6.8866934328659335
1621786175378.317,-0.016,0.014,0.007,-1.187,-6.184502572379704,-6.8805025723797035
1621786175382.808,-0.019,0.017,0.012,-1.187,-6.178316755775245,-6.8743167557752445
1621786175383.038,-0.019256103528900004,0.016641455059539994,0.012,-1.187,-6.178,-6.874
1621786175387.298,-0.024,0.01,0.012,-1.1925840561890486,-6.178,-6.879877953883208
1621786175391.785,-0.023,0.019,0.014,-1.1984654124067307,-6.178,-6.88606885516498
1621786175396.269,-0.031,0.019,0.017,-1.2043432483872598,-6.178,-6.892256050933958
1621786175397.533,-0.030153992809674256,0.019,0.017,-1.206,-6.178,-6.894
1621786175400.751,-0.028,0.019,0.017,-1.206,-6.182447856383607,-6.898447856383607
1621786175405.23,-0.037,0.012,0.021,-1.206,-6.188638613777861,-6.90463861377786
1621786175409.707,-0.033,0.024,0.019,-1.206,-6.1948266716158535,-6.910826671615853
1621786175412.003,-0.033,0.02759303531466623,0.019,-1.206,-6.198,-6.914
1621786175414.18,-0.033,0.031,0.019,-1.206,-6.203878446221201,-6.916863858415456
1621786175418.653,-0.033,0.024,0.023,-1.206,-6.21595704795551,-6.922748305414222
1621786175423.121,-0.033,0.028,0.023,-1.206,-6.228021805642421,-6.928626007877077
1621786175426.446,-0.030766400612289524,0.0250218674830527,0.023744533129236824,-1.206,-6.237,-6.933
1621786175427.587,-0.03,0.024,0.024,-1.2083743310073842,-6.238582887338256,-6.9299133696904
1621786175432.051,-0.026,0.019,0.024,-1.217664860104329,-6.244776573402886,-6.917835681864372
1621786175436.512,-0.028,0.024,0.024,-1.2269487839577264,-6.250965855971818,-6.905766580854956
1621786175440.861,-0.024097699890470975,0.019122124863088716,0.023024424972617745,-1.236,-6.257,-6.894
1621786175440.97,-0.024,0.019,0.023,-1.2359243054259093,-6.256697221703637,-6.893848610851819
1621786175445.427,-0.023,0.024,0.023,-1.2328259194514688,-6.244303677805875,-6.887651838902938
1621786175449.88,-0.026,0.019,0.023,-1.2297304186962204,-6.231921674784881,-6.88146083739244
1621786175454.331,-0.026,0.026,0.024,-1.2266361059724038,-6.219544423889615,-6.875272211944807
1621786175455.246,-0.026,0.025588561391953455,0.02482287721609309,-1.226,-6.217,-6.874
1621786175458.779,-0.026,0.024,0.028,-1.226,-6.217,-6.864404825053555
1621786175463.225,-0.023,0.024,0.023,-1.226,-6.217,-6.852329797000918
1621786175467.668,-0.028,0.023,0.026,-1.226,-6.217,-6.840263388758543
1621786175469.606,-0.0301824480369515,0.0221270207852194,0.026,-1.226,-6.217,-6.835
1621786175472.108,-0.033,0.021,0.026,-1.2191922054915854,-6.223982353341963,-6.828192205491585
1621786175476.546,-0.038,0.028,0.03,-1.2071164747564216,-6.236367718198542,-6.816116474756422
1621786175480.981,-0.04,0.028,0.03,-1.1950487156775909,-6.248744906997342,-6.804048715677591
1621786175483.939,-0.04266901641149906,0.03467254102874766,0.032001762308624296,-1.187,-6.257,-6.796
1621786175485.414,-0.044,0.038,0.033,-1.1910212635243524,-6.254937813577255,-6.806104713471449
1621786175489.844,-0.042,0.031,0.03,-1.2030976995801905,-6.248744769446056,-6.836450629714325
1621786175494.272,-0.04,0.033,0.033,-1.215168811222226,-6.242554455783474,-6.866783166660978
1621786175498.245,-0.04359150344827586,0.03659150344827586,0.03120424827586207,-1.226,-6.237,-6.894
1621786175498.697,-0.044,0.037,0.031,-1.2263164643528808,-6.235132860318003,-6.895234210976235
1621786175503.119,-0.042,0.033,0.03,-1.2294130620618908,-6.216862933834844,-6.9073109420413745
1621786175507.539,-0.04,0.04,0.035,-1.2325084629851257,-6.1986000683877585,-6.91938300564199
1621786175511.956,-0.04,0.037,0.033,-1.235601641306206,-6.180350316293383,-6.931446401094204
1621786175512.525,-0.03974231364742314,0.037386529528865294,0.03274231364742314,-1.236,-6.178,-6.933
1621786175516.371,-0.038,0.04,0.031,-1.2502670309938324,-6.173326317433054,-6.923406651573113
1621786175521.304,-0.042,0.031,0.026,-1.2685649465219768,-6.167332172691077,-6.911102880786947
1621786175526.346,-0.04,0.024,0.023,-1.2872676711687094,-6.161205418065423,-6.8985269107658675
1621786175528.161,-0.04325766871165644,0.026171779141104294,0.023,-1.294,-6.159,-6.894
1621786175531.36,-0.049,0.03,0.023,-1.2979623240554556,-6.153056513916816,-6.886273468091861
1621786175536.358,-0.049,0.024,0.019,-1.3041522458914776,-6.1437716311627835,-6.874203120511619
1621786175541.356,-0.063,0.031,0.017,-1.3103424701026565,-6.134486294846015,-6.8621321832998206
1621786175544.309,-0.06890971272229822,0.028045143638850887,0.018181942544459644,-1.314,-6.129,-6.855
1621786175546.353,-0.073,0.026,0.019,-1.3114678260869566,-6.135203826086956,-6.852467826086957
1621786175551.351,-0.08,0.017,0.017,-1.3052759168241967,-6.150374003780718,-6.8462759168241965
1621786175556.348,-0.094,0.019,0.014,-1.2990855198487714,-6.16554047637051,-6.840085519848771
1621786175560.453,-0.09810738714090288,0.014892612859097128,0.018107387140902872,-1.294,-6.178,-6.835
1621786175561.345,-0.099,0.014,0.019,-1.296210593181887,-6.181260624943283,-6.836105296590944
1621786175566.342,-0.101,0.024,0.012,-1.3085933028827248,-6.1995251217520195,-6.842296651441362
1621786175571.338,-0.105,0.016,0.012,-1.3209729876886778,-6.2177851568408,-6.848486493844339
1621786175576.335,-0.103,0.012,0.0,-1.3333556973895158,-6.236049653649536,-6.854677848694759
1621786175576.595,-0.10279178885630498,0.012104105571847507,0.0002602639296187683,-1.334,-6.237,-6.855
1621786175581.33,-0.099,0.014,0.005,-1.3281328614211816,-6.237,-6.88668254832562
1621786175586.326,-0.094,0.01,-0.003,-1.3219426445230966,-6.237,-6.920109719575279
1621786175591.321,-0.091,0.005,-0.003,-1.31575333514838,-6.237,-6.953531990198748
1621786175592.736,-0.08986702829497141,0.004433514147485706,-0.004699457557542882,-1.314,-6.237,-6.963
1621786175596.317,-0.087,0.003,-0.009,-1.305346379026036,-6.213036126533638,-6.9563433684815665
1621786175601.312,-0.089,-0.01,-0.012,-1.2932748521202402,-6.179607282794511,-6.9470575785540305
1621786175606.307,-0.089,-0.002,-0.019,-1.2812039152206471,-6.146180072918715,-6.937772242477421
1621786175608.874,-0.09362536656891496,-0.0035417888563049854,-0.021569648093841643,-1.275,-6.129,-6.933
1621786175611.302,-0.098,-0.005,-0.024,-1.2587512291795888,-6.142239739187001,-6.9153971649445545
1621786175616.296,-0.098,-0.003,-0.026,-1.225330554757114,-6.169471399827536,-6.879191434320207
1621786175621.291,-0.096,-0.003,-0.031,-1.1919017110179877,-6.196709716948306,-6.84297685360282
1621786175625.012,-0.096,-0.004490197995600098,-0.03025490100219995,-1.167,-6.217,-6.816
1621786175626.285,-0.096,-0.005,-0.03,-1.1716547231763228,-6.217,-6.814422127736839
1621786175631.278,-0.101,-0.016,-0.031,-1.1899129507179713,-6.217,-6.808232898061704
1621786175636.272,-0.103,-0.005,-0.038,-1.2081738564662803,-6.217,-6.802042760519905
1621786175641.147,-0.10495228783730934,-0.005,-0.03702385608134533,-1.226,-6.217,-6.796
1621786175641.266,-0.105,-0.005,-0.037,-1.2260738487613687,-6.216711989830662,-6.79687141538415
1621786175646.258,-0.105,-0.007,-0.04,-1.2291680815968282,-6.20464448177237,-6.833383362842572
1621786175651.252,-0.103,-0.014,-0.044,-1.2322635250677199,-6.192572252235892,-6.869909595799095
1621786175656.244,-0.106,-0.016,-0.051,-1.2353577579031794,-6.1805047441776,-6.906421543257517
1621786175657.28,-0.10433991785644435,-0.016,-0.05120751026794445,-1.236,-6.178,-6.914
1621786175661.237,-0.098,-0.016,-0.052,-1.2335469185131371,-6.17333914517496,-6.918660854825039
1621786175666.23,-0.103,-0.017,-0.054,-1.2304516587964645,-6.167458151713283,-6.924541848286717
1621786175671.221,-0.099,-0.023,-0.061,-1.2273576098801307,-6.161579458772248,-6.930420541227751
1621786175673.411,-0.099,-0.023438695163104612,-0.06275478065241845,-1.226,-6.159,-6.933
1621786175676.213,-0.099,-0.024,-0.065,-1.1952491939268253,-6.1623009339852555,-6.909198528632627
1621786175681.205,-0.105,-0.035,-0.066,-1.140462012382495,-6.168182043868546,-6.8667926310531175
1621786175686.196,-0.112,-0.028,-0.07,-1.0856882275472668,-6.174061715687016,-6.824397102677828
1621786175689.539,-0.11534841297011787,-0.02532126962390571,-0.06732126962390571,-1.049,-6.178,-6.796
1621786175691.188,-0.117,-0.024,-0.066,-1.0270169855879858,-6.176057315005449,-6.7920123834322395
1621786175696.179,-0.12,-0.019,-0.072,-0.9604788210003633,-6.170177198134915,-6.77994266985588
1621786175701.169,-0.126,-0.024,-0.072,-0.8939536756691292,-6.164298231803318,-6.7678753179120745
1621786175705.666,-0.13861211913728178,-0.01679307477869614,-0.06839653738934807,-0.834,-6.159,-6.757
1621786175706.161,-0.14,-0.016,-0.068,-0.83007099158035,-6.161394239505724,-6.756386092434429
1621786175711.151,-0.141,-0.016,-0.068,-0.7904533284874916,-6.185536252952935,-6.75019583257617
1621786175716.141,-0.154,-0.014,-0.058,-0.7508337270579684,-6.20967944757405,-6.744005269852807
1621786175721.13,-0.157,-0.016,-0.063,-0.7112257556484342,-6.233815555151735,-6.737816524320068
1621786175721.788,-0.15765936216004695,-0.013890041087849737,-0.062472510271962434,-0.706,-6.237,-6.737
1621786175726.121,-0.162,0.0,-0.059,-0.7164838010996167,-6.25286010935583,-6.742376308256214
1621786175731.11,-0.162,-0.002,-0.052,-0.7285548218045227,-6.271121397088893,-6.748566575284371
1621786175736.099,-0.164,0.003,-0.054,-0.7406258425094285,-6.289382684821956,-6.754756842312527
1621786175737.907,-0.164,0.0026376137809533133,-0.05327522756190663,-0.745,-6.296,-6.757
1621786175741.088,-0.164,0.002,-0.052,-0.7566444898886616,-6.296,-6.76074992047262
1621786175746.077,-0.166,0.005,-0.052,-0.7749079906081952,-6.296,-6.766631386806028
1621786175751.066,-0.168,0.002,-0.054,-0.7931714913277286,-6.296,-6.772512853139438
1621786175754.024,-0.168,0.002,-0.054,-0.804,-6.296,-6.776
1621786175756.054,-0.168,0.002,-0.054,-0.8101729769858946,-6.3009131857642835,-6.773606396678939
1621786175761.042,-0.164,0.002,-0.056,-0.8253407572383074,-6.312985500659061,-6.767725012499431
1621786175766.031,-0.169,0.0,-0.058,-0.8405115070527097,-6.325060179082769,-6.761842476857113
1621786175770.138,-0.17394110735790863,-0.0024705536789543254,-0.06047055367895433,-0.853,-6.335,-6.757
1621786175771.018,-0.175,-0.003,-0.061,-0.8508694822021184,-6.338223091027564,-6.757
1621786175776.005,-0.182,-0.009,-0.061,-0.8387979269900441,-6.356485187374036,-6.757
1621786175780.993,-0.18,-0.014,-0.063,-0.8267234168295676,-6.374751754027065,-6.757
1621786175785.98,-0.185,-0.019,-0.063,-0.8146512706278128,-6.393014744434847,-6.757
1621786175786.249,-0.18489210358838792,-0.019269741029030205,-0.0632697410290302,-0.814,-6.394,-6.757
1621786175790.967,-0.183,-0.024,-0.068,-0.8055075540604022,-6.422698610416572,-6.745579124426058
1621786175795.954,-0.183,-0.033,-0.065,-0.7965308299616615,-6.45303374702611,-6.7335069782243036
1621786175800.94,-0.182,-0.038,-0.068,-0.7875563031322453,-6.4833614583806884,-6.7214377869709505
1621786175802.36,-0.18086069627380894,-0.038,-0.06657587034226117,-0.785,-6.492,-6.718
1621786175805.926,-0.178,-0.038,-0.063,-0.785,-6.478937183568289,-6.7135719266333185
1621786175810.913,-0.178,-0.047,-0.066,-0.785,-6.46066837956647,-6.707379111717447
1621786175815.898,-0.173,-0.047,-0.066,-0.785,-6.442407624677884,-6.701189025314537
1621786175818.466,-0.17454516966165595,-0.049575282769426625,-0.06342471723057337,-0.785,-6.433,-6.698
1621786175820.884,-0.176,-0.052,-0.061,-0.7878527940329281,-6.4212885297595585,-6.698
1621786175825.869,-0.171,-0.061,-0.058,-0.7937340893241563,-6.397144264879779,-6.698
1621786175830.854,-0.175,-0.061,-0.061,-0.7996156726600164,-6.372998817500986,-6.698
1621786175834.57,-0.17574528717622287,-0.061,-0.0557829897664398,-0.804,-6.355,-6.698
1621786175835.84,-0.176,-0.061,-0.054,-0.7993470483005367,-6.3534227282374705,-6.702652951699464
1621786175840.824,-0.18,-0.068,-0.059,-0.7810876565295171,-6.347233103908311,-6.720912343470483
1621786175845.808,-0.188,-0.068,-0.052,-0.7628273703041145,-6.341043176374276,-6.739172629695886
1621786175850.674,-0.18995229699284946,-0.07678533646782251,-0.052,-0.745,-6.335,-6.757
1621786175850.793,-0.19,-0.077,-0.052,-0.7451477077993964,-6.334711969791177,-6.757864090626469
1621786175855.777,-0.187,-0.08,-0.049,-0.7513396066180373,-6.322637767094827,-6.794086698715518
1621786175860.76,-0.19,-0.08,-0.047,-0.7575299889294976,-6.3105665215874795,-6.830300435237561
1621786175865.745,-0.19,-0.075,-0.049,-0.7637231009538831,-6.298489953139929,-6.866530140580215
1621786175866.773,-0.19,-0.07747525722684959,-0.048174914257716805,-0.765,-6.296,-6.874
1621786175870.728,-0.19,-0.087,-0.045,-0.7699137068154933,-6.296,-6.900534016803664
1621786175875.711,-0.183,-0.084,-0.045,-0.7761043707725439,-6.296,-6.933963602171737
1621786175880.694,-0.176,-0.094,-0.044,-0.78229533804483,-6.296,-6.967394825442082
1621786175882.871,-0.17250485056344927,-0.09094174424301812,-0.044,-0.785,-6.296,-6.982
1621786175885.677,-0.168,-0.087,-0.044,-0.785,-6.289201780595453,-6.99577075212716
1621786175890.66,-0.162,-0.091,-0.044,-0.785,-6.277129070419972,-7.0202257291492876
1621786175895.642,-0.15,-0.087,-0.044,-0.785,-6.265058134773178,-7.0446771116133045
1621786175898.968,-0.14666201117318434,-0.087,-0.044,-0.785,-6.257,-7.061
1621786175900.624,-0.145,-0.087,-0.044,-0.7919969205564237,-6.237758468469835,-7.0549291424583975
1621786175905.605,-0.138,-0.096,-0.045,-0.8130423537264301,-6.179883527252317,-7.0366691342667735
1621786175910.588,-0.134,-0.091,-0.047,-0.8340960391984344,-6.121985892204306,-7.018401965989593
1621786175915.062,-0.12771259128559526,-0.09279640248982993,-0.05059280497965985,-0.853,-6.07,-7.002
1621786175915.569,-0.127,-0.093,-0.051,-0.8579475640656056,-6.065052435934395,-6.99796631719492
1621786175920.551,-0.127,-0.093,-0.056,-0.9065561304222488,-6.016443869577752,-6.958336403222625
1621786175925.531,-0.124,-0.089,-0.056,-0.955145640200883,-5.967854359799118,-6.918722025823484
1621786175930.512,-0.126,-0.093,-0.063,-1.0037446782685218,-5.9192553217314785,-6.879099880137765
1621786175931.153,-0.126,-0.09248514851485148,-0.06325742574257426,-1.01,-5.913,-6.874
1621786175935.493,-0.126,-0.089,-0.065,-1.0682607428987618,-5.870922796795338,-6.831922796795339
1621786175940.473,-0.126,-0.091,-0.073,-1.1351150764748725,-5.822639111434814,-6.783639111434814
1621786175945.453,-0.124,-0.087,-0.082,-1.2019694100509832,-5.7743554260742895,-6.73535542607429
1621786175947.243,-0.1247187178356124,-0.08520320541096897,-0.08523423026025585,-1.226,-5.757,-6.718
1621786175950.434,-0.126,-0.082,-0.091,-1.255158186260376,-5.739346404236915,-6.702329954322655
1621786175955.413,-0.126,-0.077,-0.096,-1.3006521844697028,-5.711802418926506,-6.677880798822405
1621786175960.392,-0.129,-0.082,-0.101,-1.3461461826790293,-5.6842584336160975,-6.653431643322154
1621786175963.331,-0.13018031179527406,-0.07904922051181489,-0.10395077948818511,-1.373,-5.668,-6.639
1621786175965.372,-0.131,-0.077,-0.106,-1.3854344341913551,-5.681703254006799,-6.634051602719767
1621786175970.351,-0.134,-0.072,-0.106,-1.4157679091792132,-5.715131981544439,-6.621980117775619
1621786175975.329,-0.138,-0.056,-0.112,-1.4460954346770278,-5.748554152501214,-6.609911000485672
1621786175979.417,-0.1396417295813315,-0.054358270418668496,-0.112,-1.471,-5.776,-6.6
1621786175980.309,-0.14,-0.054,-0.112,-1.4622920765027323,-5.794525136612021,-6.610871038251366
1621786175985.287,-0.143,-0.031,-0.113,-1.4137002428658167,-5.897898846387371,-6.671533454766242
1621786175990.265,-0.148,-0.026,-0.108,-1.3651107923497268,-6.001267486338798,-6.732192896174864
1621786175995.243,-0.157,-0.003,-0.098,-1.3165189587128112,-6.104641196114147,-6.792855312689739
1621786175995.501,-0.1576221917001864,-0.0023778082998135975,-0.0975333562248602,-1.314,-6.11,-6.796
1621786176000.22,-0.169,0.009,-0.089,-1.2911094679946558,-6.204790279970849,-6.931288913518766
1621786176005.198,-0.182,0.009,-0.068,-1.2669624377505162,-6.304783751366452,-7.074004053807847
1621786176010.176,-0.194,0.01,-0.054,-1.2428154075063769,-6.404777222762055,-7.216719194096926
1621786176011.581,-0.19484690473854607,0.0071769842048464635,-0.05117698420484646,-1.236,-6.433,-7.257
1621786176015.153,-0.197,0.0,-0.044,-1.3055307380471586,-6.4416635743892625,-7.363628607867847
1621786176020.129,-0.202,-0.014,-0.044,-1.4023871369357606,-6.4537319435798555,-7.512162382521294
1621786176025.106,-0.208,-0.037,-0.037,-1.4992672972685726,-6.46580327346158,-7.660732596450207
1621786176027.661,-0.20491994506033553,-0.05291361718826646,-0.03391994506033552,-1.549,-6.472,-7.737
1621786176030.083,-0.202,-0.068,-0.031,-1.5712970904452408,-6.494146434428719,-7.740013120330438
1621786176035.059,-0.195,-0.098,-0.023,-1.6171049019012331,-6.539644733645144,-7.746203365121788
1621786176040.035,-0.188,-0.124,-0.017,-1.6629104658932152,-6.585140800583126,-7.752393306201785
1621786176043.738,-0.18204534301697908,-0.13963097458042986,-0.004346353911080578,-1.697,-6.619,-7.757
1621786176045.01,-0.18,-0.145,0.0,-1.709345408976988,-6.619,-7.743071846282373
1621786176049.987,-0.176,-0.171,0.01,-1.7576512645249487,-6.619,-7.688572932330827
1621786176054.962,-0.166,-0.19,0.019,-1.805935794030531,-6.619,-7.634098078529657
1621786176059.811,-0.15235449995092748,-0.20754421434880754,0.02387339287466876,-1.853,-6.619,-7.581
1621786176059.937,-0.152,-0.208,0.024,-1.853156774575782,-6.619313549151563,-7.578765962295107
1621786176064.912,-0.138,-0.225,0.035,-1.859348155012381,-6.631696310024761,-7.490538791073572
1621786176069.886,-0.131,-0.25,0.045,-1.8655380163154935,-6.644076032630987,-7.402333267504216
1621786176074.862,-0.126,-0.257,0.056,-1.8717306120588817,-6.656461224117763,-7.314088778160937
1621786176075.882,-0.12456447258626614,-0.26007613017228687,0.058460904137829485,-1.873,-6.659,-7.296
1621786176079.836,-0.119,-0.272,0.068,-1.834369002400559,-6.654078853808988,-7.2236591509921295
1621786176084.809,-0.113,-0.286,0.084,-1.7857791029809476,-6.647889057704579,-7.132669148257316
1621786176089.784,-0.103,-0.279,0.099,-1.7371725060013978,-6.641697134522471,-7.041647877480324
1621786176091.951,-0.09777113402061856,-0.2829216494845361,0.10161443298969072,-1.716,-6.639,-7.002
1621786176094.757,-0.091,-0.288,0.105,-1.6800173852255975,-6.635506542254912,-6.96252392748051
1621786176099.73,-0.091,-0.284,0.119,-1.616251082777381,-6.6293156391046,-6.892566721881981
1621786176104.704,-0.094,-0.283,0.134,-1.5524691275473763,-6.623123216266736,-6.822592343814112
1621786176108.016,-0.09666404830870441,-0.27367583091953457,0.1459882173891698,-1.51,-6.619,-6.776
1621786176109.677,-0.098,-0.269,0.152,-1.4705041794583422,-6.613003252378491,-6.767935408371075
1621786176114.649,-0.091,-0.258,0.166,-1.352272166327244,-6.595051794887382,-6.743793793124411
1621786176119.622,-0.086,-0.251,0.183,-1.2340111249582053,-6.577095929967476,-6.7196462506459165
1621786176124.08,-0.08062018168426222,-0.23575718143874294,0.20182936410508223,-1.128,-6.561,-6.698
1621786176124.594,-0.08,-0.234,0.204,-1.1185932512539898,-6.559432208542332,-6.694224502203983
1621786176129.566,-0.079,-0.225,0.225,-1.0275868673050614,-6.544264477884177,-6.657698130414957
1621786176134.539,-0.084,-0.199,0.251,-0.9365581395348836,-6.529093023255814,-6.621162790697674
1621786176139.51,-0.093,-0.176,0.279,-0.8455696306429548,-6.513928271773826,-6.584643593251254
1621786176140.142,-0.09427129879695556,-0.17231323348882888,0.2825596366314756,-0.834,-6.512,-6.58
1621786176144.482,-0.103,-0.147,0.307,-0.849673340326234,-6.453630318785059,-6.569461029780636
1621786176149.453,-0.115,-0.129,0.332,-0.867625910217236,-6.386772472294432,-6.557389474164273
1621786176154.424,-0.133,-0.099,0.353,-0.8855793618218026,-6.319911342180873,-6.5453173256715464
1621786176156.202,-0.13907995678011886,-0.0904165316045381,0.3605105348460292,-0.892,-6.296,-6.541
1621786176159.395,-0.15,-0.075,0.374,-0.9389394446303111,-6.25502743392439,-6.591718467714955
1621786176164.365,-0.161,-0.054,0.396,-1.0119990267343897,-6.191255086833541,-6.670659965327413
1621786176169.335,-0.171,-0.033,0.41,-1.0850586088384682,-6.1274827397426925,-6.749601462939871
1621786176172.256,-0.1739382152153627,-0.027711212612347137,0.41822700260301554,-1.128,-6.09,-6.796
1621786176174.306,-0.176,-0.024,0.424,-1.1692438671999756,-6.085020090338083,-6.81732422855231
1621786176179.276,-0.176,-0.01,0.44,-1.2692440344927227,-6.072945766733077,-6.86902710142503
1621786176184.245,-0.187,0.0,0.45,-1.3692294648152936,-6.060873222514562,-6.920722354873542
1621786176188.309,-0.19354163187110085,0.008177039838876063,0.4557239278872133,-1.451,-6.051,-6.963
1621786176189.215,-0.195,0.01,0.457,-1.4704160215364492,-6.0498711615385785,-6.977392690383124
1621786176194.184,-0.208,0.024,0.466,-1.576903298909489,-6.0436800407610765,-7.056329480296278
1621786176199.153,-0.208,0.033,0.471,-1.683390576282529,-6.0374889199835735,-7.135266270209433
1621786176204.123,-0.213,0.052,0.473,-1.7898987817305205,-6.031296582457528,-7.214218573666519
1621786176204.361,-0.2125687748783724,0.05267079463364293,0.4732395695120153,-1.795,-6.031,-7.218
1621786176209.091,-0.204,0.066,0.478,-1.8672074662285505,-6.042494249726177,-7.2728187294633075
1621786176214.059,-0.197,0.07,0.476,-1.9430487860533041,-6.054566949616649,-7.33039622124863
1621786176219.028,-0.194,0.08,0.476,-2.0189050139953757,-6.066642022635999,-7.387985031033224
1621786176220.41,-0.1887141803883018,0.08250380928975178,0.4757217989678053,-2.04,-6.07,-7.404
1621786176223.995,-0.175,0.089,0.475,-2.0837951339754417,-6.083183229104852,-7.404
1621786176228.964,-0.159,0.094,0.475,-2.144493966920771,-6.1014548165730895,-7.404
1621786176233.931,-0.138,0.087,0.476,-2.205165959130263,-6.1197183244320685,-7.404
1621786176236.455,-0.12885269107888916,0.09055728680265421,0.47447544851314816,-2.236,-6.129,-7.404
1621786176238.898,-0.12,0.094,0.473,-2.262801241857917,-6.120015492786266,-7.3875537834053695
1621786176243.866,-0.105,0.106,0.466,-2.3173063858282097,-6.101743882023498,-7.354107445059962
1621786176248.832,-0.084,0.113,0.463,-2.3717901016618983,-6.083479454556523,-7.320674255798381
1621786176252.497,-0.0788348980093389,0.12111658884246744,0.4585727697222905,-2.412,-6.07,-7.296
1621786176253.799,-0.077,0.124,0.457,-2.413623242223169,-6.057257548548122,-7.284880790771291
1621786176258.766,-0.065,0.129,0.45,-2.419815791075668,-6.008646040056005,-7.242461831131673
1621786176263.732,-0.051,0.133,0.447,-2.426006818043465,-5.9600464783588,-7.200053296402264
1621786176268.539,-0.03744806056732707,0.14655193943267292,0.4363520475886141,-2.432,-5.913,-7.159
1621786176268.698,-0.037,0.147,0.436,-2.4316135851698526,-5.909987945939364,-7.1567607755996585
1621786176273.664,-0.023,0.162,0.431,-2.4195397540484596,-5.815873980275174,-7.086794472178254
1621786176278.629,-0.012,0.169,0.421,-2.407468890782905,-5.721783148666748,-7.016845367100937
1621786176283.594,0.0,0.173,0.412,-2.3953974339461825,-5.6276876902471695,-6.946892822354803
1621786176284.58,0.0009928223784474706,0.17399282237844746,0.41061004867017353,-2.393,-5.609,-6.933
1621786176288.56,0.005,0.178,0.405,-2.407639543378995,-5.584683470319635,-6.77965698630137
1621786176293.525,0.005,0.182,0.391,-2.425901704718417,-5.554349710806697,-6.588368584474886
1621786176298.489,0.01,0.199,0.38,-2.444161171993912,-5.524020426179605,-6.397108401826484
1621786176300.62,0.008712346953827999,0.20028765304617202,0.3765662585435413,-2.452,-5.511,-6.315
1621786176303.454,0.007,0.202,0.372,-2.43468280281926,-5.52142565952718,-6.22328953737955
1621786176308.418,0.002,0.215,0.36,-2.4043508547594037,-5.53968673029791,-6.062654016531946
1621786176313.382,-0.005,0.229,0.347,-2.3740174148665725,-5.557948699212982,-5.902010595058684
1621786176316.658,-0.017538953373991736,0.24483867794609482,0.3390806610269526,-2.354,-5.57,-5.796
1621786176318.346,-0.024,0.253,0.335,-2.34978928136419,-5.600001370280147,-5.772209439707674
1621786176323.31,-0.042,0.272,0.326,-2.3374062119366625,-5.68823073995128,-5.702245097442144
1621786176328.274,-0.049,0.288,0.319,-2.3250237515225334,-5.776455770401949,-5.632284196102314
1621786176332.693,-0.051671208618230116,0.30224644596389394,0.3127671798907964,-2.314,-5.855,-5.57
1621786176333.237,-0.052,0.304,0.312,-2.317324816128885,-5.8589694233375464,-5.572680208920223
1621786176338.199,-0.052,0.321,0.311,-2.3476540634374383,-5.895178830838574,-5.597129296036302
1621786176343.163,-0.044,0.328,0.295,-2.37799674133179,-5.9314042728144845,-5.6215892098490965
1621786176348.125,-0.031,0.335,0.281,-2.4083259886403434,-5.967613680315512,-5.646038296965175
1621786176348.726,-0.027850423145050186,0.33548455028537694,0.279909761857902,-2.412,-5.972,-5.649
1621786176353.087,-0.005,0.339,0.272,-2.374734798300516,-5.988048517520216,-5.600854447439353
1621786176358.05,0.023,0.344,0.267,-2.3323227344023634,-6.006313566936209,-5.546059299191375
1621786176363.011,0.049,0.342,0.255,-2.289929447058644,-6.024570530098832,-5.491288409703504
1621786176364.758,0.05745030505805944,0.34622515252902974,0.25253532769139936,-2.275,-6.031,-5.472
1621786176367.973,0.073,0.354,0.248,-2.1943734521361664,-6.05667213464321,-5.357879338968853
1621786176372.935,0.089,0.372,0.248,-2.0699251999086132,-6.096297448785317,-5.18173243469652
1621786176377.896,0.094,0.382,0.258,-1.9455075622572537,-6.135913015002665,-5.005628862995963
1621786176380.787,0.094,0.39015885826771657,0.26441053149606303,-1.873,-6.159,-4.903
1621786176382.857,0.094,0.396,0.269,-1.8451041952289553,-6.1843128598848365,-4.862576912530847
1621786176387.818,0.086,0.419,0.284,-1.77824047162051,-6.244985497973982,-4.765686424153794
1621786176392.778,0.08,0.445,0.305,-1.711393199890321,-6.3056432075069315,-4.668819775766992
1621786176396.814,0.06616720811183303,0.46208756645008864,0.3196464855286474,-1.657,-6.355,-4.59
1621786176397.738,0.063,0.466,0.323,-1.6593062744679878,-6.371374548722715,-4.592248617606288
1621786176402.699,0.056,0.485,0.333,-1.6716876475695768,-6.459282297743995,-4.604320456380337
1621786176407.658,0.054,0.513,0.347,-1.6840641461148262,-6.547155437415267,-4.616387542461955
1621786176412.619,0.059,0.534,0.353,-1.6964455192164152,-6.635063186436547,-4.628459381236004
1621786176412.841,0.06012002756990941,0.5353440330838913,0.3535376132335565,-1.697,-6.639,-4.629
1621786176417.578,0.084,0.564,0.365,-1.78952561172563,-6.621559069994211,-4.843316512783009
1621786176422.538,0.119,0.583,0.37,-1.886414739311942,-6.603295624219155,-5.067740210866319
1621786176427.496,0.152,0.613,0.386,-1.983260947070116,-6.585040268763141,-5.29206449401225
1621786176428.865,0.15006769397400552,0.6132760437179992,0.39759383615596694,-2.01,-6.58,-5.354
1621786176432.455,0.145,0.614,0.428,-1.6232503885655074,-5.709925410660409,-6.896741062993327
1621786176437.413,0.049,0.543,0.44,-1.0891387864565871,-4.508329031176668,-9.027307911498493
1621786176442.372,-0.026,0.649,0.283,-0.5549219821412243,-3.306495977204157,-11.158294410751836
1621786176444.887,-0.027014477053377978,0.8047222276935198,0.2794493303131771,-0.284,-2.697,-12.239
1621786176447.33,-0.028,0.956,0.276,-0.9033167891222829,-3.220520990213713,-12.185152998384195
1621786176452.288,-0.15,0.911,0.442,-2.1601455443431603,-4.282943721228011,-12.075877000701198
1621786176457.246,-0.342,0.567,0.475,-3.4169742995640378,-5.34536645224231,-11.9666010030182
1621786176460.903,-0.3508532729153327,0.3943611781510121,0.41450263507855983,-4.344,-6.129,-11.886
1621786176462.203,-0.354,0.333,0.393,-4.1418125104813015,-6.498310749622672,-11.988676505114874
1621786176467.161,-0.148,0.314,0.38,-3.370583446404342,-7.907018995929444,-12.380328358208954
1621786176472.118,0.082,0.304,0.478,-2.599506288780815,-9.315449773603891,-12.771903068925038
1621786176476.917,0.22431575059101655,0.11908633766745466,0.5506100768321514,-1.853,-10.679,-13.151
1621786176477.075,0.229,0.113,0.553,-1.853,-10.65162612633216,-13.141421610331001
1621786176482.032,0.391,-0.168,0.55,-1.853,-9.792585738462241,-12.840834865602464
1621786176486.988,0.651,-0.365,0.527,-1.853,-8.933714586287335,-12.540307338120721
1621786176491.945,0.92,-0.426,0.52,-1.853,-8.074674198417418,-12.239720593392185
1621786176492.93,0.957162323267156,-0.4279872900142864,0.514435587959998,-1.853,-7.904,-12.18
1621786176496.901,1.107,-0.436,0.492,-1.6342650758557598,-7.514889913852253,-11.01018975375467
1621786176501.856,1.201,-0.403,0.452,-1.3613204696195775,-7.02934559731646,-9.55046219409926
1621786176506.812,1.248,-0.335,0.424,-1.0883220705954106,-6.543705588168026,-8.090446946710376
1621786176508.942,1.2411239408866994,-0.2989006896551724,0.41712394088669946,-0.971,-6.335,-7.463
1621786176511.768,1.232,-0.251,0.408,-0.6391039040136427,-6.008391680370303,-7.136215421158414
1621786176516.722,1.134,-0.168,0.394,-0.057339591327120965,-5.435896050307571,-6.563410835008222
1621786176521.678,0.962,-0.063,0.4,0.5246827608258725,-4.863146491869176,-5.990352183446008
1621786176524.976,0.8113617428894238,0.008669302942476795,0.4325166281868645,0.912,-4.482,-5.609
1621786176526.648,0.735,0.045,0.449,0.9562815157597954,-4.551885046199108,-5.495882763059101
1621786176531.581,0.49,0.176,0.504,1.086940439159682,-4.758090835261489,-5.162114233615789
1621786176536.513,0.253,0.314,0.564,1.2175670308453748,-4.964245598443174,-4.828428295613
1621786176540.909,0.07117523017523017,0.4182818532818533,0.5773694683694683,1.334,-5.148,-4.531
1621786176541.445,0.049,0.431,0.579,1.2693058352876259,-5.161564905504207,-4.593708235618705
1621786176546.376,-0.094,0.552,0.548,0.6743021719470885,-5.286323738140126,-5.170446958201131
1621786176551.307,-0.187,0.641,0.492,0.07929850860655119,-5.4110825707760455,-5.747185680783557
1621786176556.238,-0.262,0.693,0.422,-0.5157346147361321,-5.53584758050919,-6.323952959028832
1621786176556.837,-0.2691686066669969,0.6961590470057952,0.4150743969488335,-0.588,-5.551,-6.394
1621786176561.167,-0.321,0.719,0.365,-0.769370824070525,-5.852287665772327,-6.873939287083174
1621786176566.098,-0.365,0.749,0.307,-0.9759081793790724,-6.195381203526256,-7.420473668072058
1621786176571.027,-0.372,0.778,0.26,-1.1823739517056342,-6.538355829819855,-7.966818627826754
1621786176572.761,-0.3582807469414037,0.7787035514389024,0.24909495269701323,-1.255,-6.659,-8.159
1621786176575.956,-0.333,0.78,0.229,-1.432203904189413,-6.713987394957983,-8.353864089431394
1621786176580.884,-0.265,0.768,0.195,-1.7055179414831625,-6.798798319327731,-8.6544166717782
1621786176585.812,-0.19,0.735,0.145,-1.9788319787769122,-6.883609243697479,-8.95496925412501
1621786176588.682,-0.14748749071092396,0.7012229378251177,0.10714639583849392,-2.138,-6.933,-9.13
1621786176590.74,-0.117,0.677,0.08,-2.096109231453505,-6.855683087682704,-9.108408153249185
1621786176595.667,-0.052,0.609,0.026,-1.995824818637751,-6.670590251683256,-9.0567183478781
1621786176600.594,0.007,0.546,-0.01,-1.8955404058219967,-6.485497415683809,-9.005028542507016
1621786176604.6,0.04684148456468956,0.5110370645656807,-0.030327288043208958,-1.814,-6.335,-8.963
1621786176605.521,0.056,0.503,-0.035,-1.7754045131698037,-6.281649117155261,-8.894893721140717
1621786176610.447,0.094,0.471,-0.051,-1.5689514013530306,-5.996267154493994,-8.530582907634956
1621786176615.372,0.086,0.459,-0.082,-1.3625392179422278,-5.710941767530336,-8.166344317118444
1621786176620.298,0.056,0.445,-0.103,-1.1560861061254544,-5.425559804869069,-7.802033503612683
1621786176620.515,0.054855443188578226,0.44570434265318265,-0.10383640690065436,-1.147,-5.413,-7.786
1621786176625.223,0.03,0.461,-0.122,-0.9525618784530387,-5.250524309392265,-7.577060405156537
1621786176630.147,0.021,0.496,-0.124,-0.7492004143646409,-5.0805921270718235,-7.358531952117864
1621786176635.072,0.021,0.517,-0.127,-0.5457986187845304,-4.9106262430939225,-7.139960159607121
1621786176636.423,0.01523684602033226,0.5208421026531118,-0.1267255640962063,-0.49,-4.864,-7.08
1621786176639.995,0.0,0.531,-0.126,-0.5165013661621588,-4.828739707733399,-6.989715684769594
1621786176644.918,-0.017,0.536,-0.126,-0.5530247444202253,-4.7801450434408865,-6.865288582568385
1621786176649.842,-0.044,0.531,-0.134,-0.5895571792588954,-4.731538329291131,-6.740830626592577
1621786176652.328,-0.06218214285714285,0.5279696428571429,-0.1385455357142857,-0.608,-4.707,-6.678
1621786176654.764,-0.08,0.525,-0.143,-0.648597718444366,-4.738558981130337,-6.678
1621786176659.685,-0.106,0.508,-0.148,-0.7306109686631558,-4.802312677526831,-6.678
1621786176664.608,-0.119,0.496,-0.148,-0.8126526999431913,-4.866088513918104,-6.678
1621786176668.229,-0.12635823783301087,0.47171781515106415,-0.15462241404970978,-0.873,-4.913,-6.678
1621786176669.529,-0.129,0.463,-0.157,-0.8986788094726172,-4.927474997696348,-6.690839404736309
1621786176674.449,-0.124,0.428,-0.162,-0.9958580336026047,-4.982254369260067,-6.739429016801302
1621786176679.37,-0.119,0.375,-0.169,-1.0930613692907825,-5.037047332370919,-6.788030684645391
1621786176684.126,-0.10643350535926954,0.34310043668122275,-0.18446645494243746,-1.187,-5.09,-6.835
1621786176684.29,-0.106,0.342,-0.185,-1.1861843908434475,-5.089184390843448,-6.834194715009986
1621786176689.21,-0.084,0.302,-0.211,-1.1617258257796896,-5.064725825779689,-6.810045752035643
1621786176694.129,-0.056,0.257,-0.236,-1.13727211553234,-5.04027211553234,-6.785901582424335
1621786176699.048,-0.037,0.22,-0.258,-1.1128171915808882,-5.015817191580888,-6.7617562144722685
1621786176700.017,-0.03246917808219178,0.21271128648004764,-0.26253082191780824,-1.108,-5.011,-6.757
1621786176703.967,-0.014,0.183,-0.281,-0.974013966351694,-4.969486702005071,-6.6277370361834524
1621786176708.885,-0.009,0.143,-0.295,-0.807191872167166,-4.917799708074058,-6.466795498194668
1621786176713.802,-0.023,0.106,-0.311,-0.6404029038949066,-4.866122977644618,-6.305885918414381
1621786176715.907,-0.03712460285941223,0.09273143367752185,-0.31613621922160445,-0.569,-4.844,-6.237
1621786176718.72,-0.056,0.075,-0.323,-0.46824513977470067,-4.830188261691435,-6.155369085125021
1621786176723.636,-0.103,0.058,-0.335,-0.2921646098756704,-4.806050684657825,-6.012709815734067
1621786176728.552,-0.157,0.049,-0.332,-0.11608407997664016,-4.781913107624215,-5.870050546343113
1621786176731.793,-0.1925933465739821,0.049,-0.3227720953326713,0.0,-4.766,-5.776
1621786176733.469,-0.211,0.049,-0.318,0.04242540238896832,-4.806314685852204,-5.796685022060293
1621786176738.384,-0.276,0.049,-0.305,0.16684028962781905,-4.924539777706037,-5.857345016833464
1621786176743.299,-0.333,0.051,-0.283,0.29125517686666974,-5.04276486955987,-5.918005011606636
1621786176747.674,-0.36592808899483514,0.04922010329757648,-0.2723206197854589,0.402,-5.148,-5.972
1621786176748.215,-0.37,0.049,-0.271,0.3999894199421788,-5.1740693854954785,-5.992071722950114
1621786176753.129,-0.398,0.042,-0.258,0.38172816325275266,-5.410846696807529,-6.17437477701913
1621786176758.043,-0.408,0.033,-0.248,0.36346599926185647,-5.647635772282709,-6.356686888724857
1621786176762.957,-0.396,0.019,-0.232,0.3452038352709602,-5.884424847757889,-6.538999000430584
1621786176763.55,-0.39346463541925547,0.017309756946170287,-0.2313963417664894,0.343,-5.913,-6.561
1621786176767.869,-0.375,0.005,-0.227,0.19905718944194922,-6.105105149818495,-6.702221774441641
1621786176772.783,-0.34,-0.01,-0.227,0.03527647203593187,-6.3236858426136715,-6.862906448040362
1621786176777.695,-0.284,-0.03,-0.232,-0.1284391496954408,-6.542179659139851,-7.023527256506491
1621786176779.422,-0.2622046414550514,-0.03527307061571336,-0.23586691845152313,-0.186,-6.619,-7.08
1621786176782.608,-0.222,-0.045,-0.243,-0.2825878614406845,-6.699924964990844,-7.1077112783343335
1621786176787.519,-0.145,-0.077,-0.255,-0.4314852038225382,-6.824676792391856,-7.15043026637736
1621786176792.43,-0.068,-0.113,-0.274,-0.580375144268501,-6.949422418170906,-7.193147130788052
1621786176795.287,-0.024366822429906544,-0.1275443925233645,-0.28330841121495326,-0.667,-7.022,-7.218
1621786176797.341,0.007,-0.138,-0.29,-0.6987212748930407,-7.0371485271938194,-7.1659512142571336
1621786176802.251,0.077,-0.171,-0.3,-0.7745499399796855,-7.073360583582136,-7.041530302563944
1621786176807.162,0.134,-0.202,-0.318,-0.8503974576010342,-7.109581643017637,-6.917078457324017
1621786176811.151,0.17544019495698016,-0.23206445516486796,-0.3261255284229373,-0.912,-7.139,-6.816
1621786176812.071,0.185,-0.239,-0.328,-0.9563834952203563,-7.143583393624064,-6.76134738235611
1621786176816.98,0.234,-0.281,-0.344,-1.1931622000215507,-7.16803505072118,-6.469784585071502
1621786176821.889,0.279,-0.335,-0.365,-1.4299409048227454,-7.192486707818297,-6.178221787786894
1621786176826.798,0.326,-0.398,-0.396,-1.666731385557933,-7.216939580992257,-5.886644489940427
1621786176827.011,0.32851634409672126,-0.40025603263843973,-0.3971280163192199,-1.677,-7.218,-5.874
1621786176831.705,0.384,-0.45,-0.422,-1.7060142896738628,-7.02348583351298,-5.789917772781867
1621786176836.613,0.459,-0.503,-0.421,-1.7363504973668813,-6.820109420713868,-5.702004681100059
1621786176841.52,0.524,-0.555,-0.426,-1.7666806689045609,-6.616773474792892,-5.614109081950048
1621786176842.866,0.5357945668938753,-0.572828996467486,-0.42929150704015123,-1.775,-6.561,-5.59
1621786176846.427,0.567,-0.62,-0.438,-1.4225151095092874,-6.109217262729877,-5.946753349967655
1621786176851.334,0.579,-0.709,-0.475,-0.9368032067276592,-5.486676385423404,-6.438347041246958
1621786176856.239,0.543,-0.747,-0.51,-0.4512846317345902,-4.864383297908388,-6.92974506361088
1621786176858.717,0.5339099955221653,-0.7035699786059008,-0.49131499079556196,-0.206,-4.55,-7.178
1621786176861.146,0.525,-0.661,-0.473,-0.732108503721052,-4.068960231737569,-7.52076766151523
1621786176866.05,0.545,-0.56,-0.325,-1.794319933437081,-3.097742438483228,-8.212814502087795
1621786176870.955,0.468,-0.644,-0.312,-2.8567428853176375,-2.126331242970062,-8.90499915255543
1621786176874.562,0.26719834710743806,-0.7418264462809918,-0.525305785123967,-3.638,-1.412,-9.414
1621786176875.859,0.195,-0.777,-0.602,-3.34742262354192,-1.811768987780637,-9.206093933463796
1621786176880.763,-0.079,-0.749,-0.864,-2.2486222167434553,-3.323470730542244,-8.419909980430528
1621786176885.667,-0.209,-0.661,-0.848,-1.14982180994499,-4.835172473303851,-7.63372602739726
1621786176890.406,-0.18579844613775587,-0.4473523581851686,-0.7252251108122915,-0.088,-6.296,-6.874
1621786176890.569,-0.185,-0.44,-0.721,-0.09850444005920078,-6.2821588554514065,-6.921166995559941
1621786176895.473,-0.07,-0.161,-0.618,-0.41436100148001975,-5.865971386285151,-8.33942488899852
1621786176900.375,0.045,0.038,-0.559,-0.7301074864331524,-5.449928959052787,-9.757188517513567
1621786176905.277,0.094,0.127,-0.595,-1.045853971386285,-5.033886531820424,-11.174952146028614
1621786176906.242,0.09478732941528041,0.13014931766112162,-0.6194072118736925,-1.108,-4.952,-11.454
1621786176910.179,0.098,0.143,-0.719,-1.5078428421636958,-4.930118053413927,-10.895513045087275
1621786176915.079,0.119,0.075,-0.855,-2.005501634490841,-4.902882995127367,-10.20040008018257
1621786176919.981,0.169,-0.026,-0.918,-2.5033339912415964,-4.8756384382902604,-9.505044686362796
1621786176922.075,0.19592197698171493,-0.06574196602062678,-0.9188546659359275,-2.716,-4.864,-9.208
1621786176924.881,0.232,-0.119,-0.92,-2.392644826947992,-5.025677586526004,-8.902018076377322
1621786176929.781,0.253,-0.176,-0.873,-1.8280251712011846,-5.307987414399408,-8.36773434511691
1621786176934.681,0.213,-0.253,-0.812,-1.263405515454377,-5.590297242272811,-7.8334506138565
1621786176937.904,0.15311952350097194,-0.29116557842795193,-0.7692282310721228,-0.892,-5.776,-7.482
1621786176939.579,0.122,-0.311,-0.747,-0.833896293211162,-5.784361006987829,-7.49247771761766
1621786176944.479,0.024,-0.339,-0.675,-0.6639296126613912,-5.808818871766394,-7.523127446897126
1621786176949.377,-0.065,-0.353,-0.592,-0.4940306816604193,-5.833266987520632,-7.553764959044843
1621786176953.731,-0.14057533153853824,-0.3832301326154153,-0.5137573038189251,-0.343,-5.855,-7.581
1621786176954.274,-0.15,-0.387,-0.504,-0.33761152178274356,-5.912213969351379,-7.594110819611414
1621786176959.172,-0.229,-0.422,-0.407,-0.28900134261331195,-6.428348801679038,-7.712385268291178
1621786176964.069,-0.3,-0.445,-0.309,-0.24040327782836157,-6.94435500547848,-7.830630241207427
1621786176968.966,-0.361,-0.457,-0.211,-0.19180521304341117,-7.460361209277921,-7.9488752141236745
1621786176969.551,-0.3676894007378602,-0.4564027320769768,-0.2025187954930701,-0.186,-7.522,-7.963
1621786176973.863,-0.417,-0.452,-0.14,-0.4774314512394653,-7.701111752539129,-8.38010956070756
1621786176978.758,-0.463,-0.431,-0.087,-0.8082660451332078,-7.904440403790943,-8.853614638965208
1621786176983.653,-0.464,-0.386,-0.049,-1.1391006390269502,-8.107769055042757,-9.327119717222857
1621786176985.368,-0.44683753864565673,-0.36568524982547124,-0.04164465941956717,-1.255,-8.179,-9.493
1621786176988.549,-0.415,-0.328,-0.028,-1.4839353095568935,-8.038782152230972,-9.893536205033195
1621786176993.443,-0.318,-0.304,-0.014,-1.8361407750501775,-7.823064041994751,-10.509741022078122
1621786176998.338,-0.194,-0.316,-0.03,-2.1883989501312335,-7.607313648293964,-11.126038057742782
1621786177001.181,-0.12196667664371945,-0.3299419335528285,-0.04278010575675945,-2.393,-7.482,-11.484
1621786177003.232,-0.07,-0.34,-0.052,-2.4973151196911196,-7.312812293436294,-11.3872101003861
1621786177008.125,0.059,-0.391,-0.103,-2.7461764015444015,-6.9091865328185325,-11.156301498069498
1621786177013.019,0.19,-0.44,-0.159,-2.9950873513513514,-6.505480216216216,-10.92534681081081
1621786177016.989,0.2906320307431252,-0.47651968857613414,-0.20282362629136097,-3.197,-6.178,-10.738
1621786177017.911,0.314,-0.485,-0.213,-3.1678322390273292,-6.12252291862998,-10.586444313986004
1621786177022.804,0.389,-0.508,-0.25,-3.013017550093467,-5.828065380277773,-9.782027190285653
1621786177027.696,0.386,-0.531,-0.267,-2.858233759211482,-5.533666610020238,-8.977770612862859
1621786177032.587,0.347,-0.55,-0.278,-2.7034885908943442,-5.239341299881043,-8.173714718287012
1621786177032.792,0.3450293501048218,-0.5503773584905661,-0.2789224318658281,-2.697,-5.227,-8.14
1621786177037.478,0.3,-0.559,-0.3,-2.5021566261337123,-4.994196273234345,-7.5697050107384
1621786177042.369,0.26,-0.562,-0.325,-2.298796341218461,-4.7512163285486935,-6.974481528406545
1621786177047.259,0.208,-0.543,-0.344,-2.0954665100971863,-4.508272770816273,-6.379347182521902
1621786177048.593,0.18944929851715012,-0.5405447600978581,-0.3429087822657147,-2.04,-4.442,-6.217
1621786177052.149,0.14,-0.534,-0.34,-1.7529949462166172,-4.506154070845698,-5.91693903004451
1621786177057.038,0.047,-0.517,-0.318,-1.3583802392433235,-4.59436206416914,-5.504373222675569
1621786177061.927,-0.058,-0.489,-0.278,-0.9637852373887241,-4.682565652818991,-5.091828016815034
1621786177064.39,-0.1139185018726592,-0.47489443196004993,-0.25583410736579276,-0.765,-4.727,-4.884
1621786177066.816,-0.169,-0.461,-0.234,-0.7001667594310451,-4.76771281694496,-4.8869190321583185
1621786177071.704,-0.274,-0.422,-0.195,-0.5695346629560916,-4.849744820655535,-4.892800572047
1621786177076.592,-0.356,-0.372,-0.159,-0.4389090909090909,-4.931772727272727,-4.898681818181818
1621786177080.181,-0.4073960341641277,-0.33602277608511066,-0.14211273163178664,-0.343,-4.992,-4.903
1621786177081.48,-0.426,-0.323,-0.136,-0.3599531984657263,-5.028293012249443,-4.961101738431081
1621786177086.366,-0.468,-0.276,-0.112,-0.42371646869586743,-5.164795935412027,-5.179630227666419
1621786177091.254,-0.499,-0.234,-0.087,-0.48750522766641924,-5.3013534242761695,-5.398246071516951
1621786177095.966,-0.5105730774996252,-0.20892499875081197,-0.07060480687553092,-0.549,-5.433,-5.609
1621786177096.14,-0.511,-0.208,-0.07,-0.554297897684204,-5.4353790975047565,-5.616996411057655
1621786177101.025,-0.499,-0.182,-0.065,-0.703182216171898,-5.502237751960769,-5.841715777423696
1621786177105.911,-0.45,-0.164,-0.065,-0.852096298129728,-5.5691097721331,-6.0664800674473645
1621786177110.796,-0.393,-0.141,-0.058,-1.0009806166174218,-5.635968426589113,-6.291199433813406
1621786177111.748,-0.378378655336166,-0.13807573106723317,-0.056830292426893275,-1.03,-5.649,-6.335
1621786177115.68,-0.318,-0.126,-0.052,-1.0544185039065521,-5.6293156958304325,-6.344717567881179
1621786177120.565,-0.236,-0.112,-0.044,-1.0847562775585982,-5.604859735437457,-6.356790763518218
1621786177125.449,-0.148,-0.115,-0.026,-1.1150879863850853,-5.580408664036513,-6.368861545602227
1621786177127.528,-0.11564081795910204,-0.115,-0.017058647067646617,-1.128,-5.57,-6.374
1621786177130.332,-0.072,-0.115,-0.005,-1.161063148119486,-5.54564703606253,-6.210106330289428
1621786177135.215,-0.002,-0.108,0.021,-1.2186422535211268,-5.50323661971831,-5.924687323943662
1621786177140.098,0.038,-0.106,0.049,-1.2762184801114378,-5.4608283237888875,-5.639282587834701
1621786177143.302,0.04981337200580087,-0.106,0.06934525178776817,-1.314,-5.433,-5.452
1621786177144.98,0.056,-0.106,0.08,-1.3504939936220937,-5.44970424780953,-5.35400883928295
1621786177149.862,0.063,-0.101,0.105,-1.4566733025790273,-5.498305272609059,-5.068903464503545
1621786177154.743,0.054,-0.094,0.122,-1.5628260627264003,-5.546894145329577,-4.78386937676089
1621786177159.073,0.06020853127969195,-0.08779146872030805,0.14506025903885583,-1.657,-5.59,-4.531
1621786177159.625,0.061,-0.087,0.148,-1.6532191806273806,-5.607503793391756,-4.5278843247762675
1621786177164.505,0.082,-0.066,0.168,-1.61979546650977,-5.762243210602917,-4.500340708512681
1621786177169.385,0.115,-0.056,0.185,-1.58637008020314,-5.916990369429907,-4.472795714241476
1621786177174.265,0.188,-0.031,0.206,-1.5529463660855294,-6.071729786641067,-4.44525209797789
1621786177174.841,0.1987460595446585,-0.027339254440830622,0.20706279709782335,-1.549,-6.09,-4.442
1621786177179.144,0.279,0.0,0.215,-1.4903091458220399,-6.084540385657864,-4.431353752032835
1621786177184.023,0.393,0.019,0.227,-1.4237628746224735,-6.078350034848603,-4.419282567954774
1621786177188.902,0.52,0.042,0.223,-1.3572132734453652,-6.072159374273988,-4.4072107798342754
1621786177190.604,0.5608211711711711,0.044442292292292296,0.2181154154154154,-1.334,-6.07,-4.403
1621786177193.78,0.637,0.049,0.209,-1.3575768855430086,-5.763701999783137,-4.403
1621786177198.658,0.756,0.049,0.19,-1.3937876760072494,-5.293271217683597,-4.403
1621786177203.536,0.862,0.056,0.176,-1.4299984664714904,-4.822840435584057,-4.403
1621786177206.365,0.9095750262854854,0.06296219896860762,0.17832073298953585,-1.451,-4.55,-4.403
1621786177208.412,0.944,0.068,0.18,-1.1108972809667674,-3.998404833836858,-4.9775891238670695
1621786177213.29,0.937,0.079,0.225,-0.3004915175458982,-2.684049267952591,-6.346735300952823
1621786177218.165,0.859,0.112,0.227,0.5094275156867305,-1.3704831048105972,-7.71505916802231
1621786177222.123,0.8273422791908671,0.26866513118365715,0.15475545764069698,1.167,-0.304,-8.826
1621786177223.041,0.82,0.305,0.138,1.2458529977059953,-0.38629152458304916,-8.82827292454585
1621786177227.917,0.763,0.515,0.155,1.664696633393267,-0.8233995907991816,-8.840346022692046
1621786177232.791,0.504,0.508,0.283,2.0833724967449934,-1.2603325686651374,-8.85241428482857
1621786177237.667,0.166,0.337,0.417,2.502216132432265,-1.6974406348812698,-8.864487382974767
1621786177237.874,0.15907494989979962,0.33164689378757517,0.4249446893787575,2.52,-1.716,-8.865
1621786177242.54,0.003,0.211,0.604,1.53492785039773,-3.794016219317424,-8.507600176768852
1621786177247.414,-0.007,0.164,0.784,0.5059418523514907,-5.964668992572607,-8.134267711773736
1621786177252.288,-0.099,0.056,0.813,-0.5230441456947483,-8.13532176582779,-7.760935246778621
1621786177253.619,-0.16838381358055626,-0.00027191180155348993,0.7859567025808067,-0.804,-8.728,-7.659
1621786177257.16,-0.353,-0.15,0.714,-0.6033428872758857,-8.434662696197034,-8.971594453750232
1621786177262.033,-0.569,-0.387,0.689,-0.3272041689931138,-8.030980085613251,-10.777950307091011
1621786177266.906,-0.518,-0.48,0.791,-0.05106545071034185,-7.627297475029469,-12.584306160431789
1621786177269.36,-0.39154390537289496,-0.4679085805934242,0.8393656776263031,0.088,-7.424,-13.494
1621786177271.777,-0.267,-0.456,0.887,-0.5130286405808795,-7.704162596580507,-13.191258509945078
1621786177276.649,0.056,-0.422,0.859,-1.7244959661153691,-8.268874173829397,-12.58103563781922
1621786177281.52,0.353,-0.445,0.691,-2.935781161758774,-8.833500853321748,-11.970904505538833
1621786177285.096,0.510139319195869,-0.4604202135659498,0.5066917330926957,-3.825,-9.248,-11.523
1621786177286.39,0.567,-0.466,0.44,-3.6531939077944853,-9.189936284778796,-11.36089860807225
1621786177291.26,0.71,-0.412,0.255,-3.0065546762255018,-8.971397607187747,-10.750785671058145
1621786177296.13,0.787,-0.305,0.209,-2.3599478609003306,-8.752869885014665,-10.140703319212326
1621786177300.829,0.7976161251504212,-0.18629241877256317,0.23505776173285198,-1.736,-8.542,-9.552
1621786177300.999,0.798,-0.182,0.236,-1.7312256262221808,-8.525581339044603,-9.529219107924387
1621786177305.868,0.728,-0.058,0.243,-1.5944219821833194,-8.05512536859422,-8.87646144892448
1621786177310.737,0.597,0.054,0.195,-1.4576114784120184,-7.584645808113729,-8.223671058757798
1621786177315.604,0.415,0.169,0.119,-1.3208627122326722,-7.114378557904212,-7.571175249092094
1621786177316.56,0.37808439051296194,0.18922504136789853,0.1083965802537231,-1.294,-7.022,-7.443
1621786177320.473,0.227,0.272,0.065,-1.0426799981369064,-6.88514257324287,-7.821224161219705
1621786177325.34,0.049,0.339,0.037,-0.7300628173081403,-6.71490549457374,-8.291697542268937
1621786177330.206,-0.103,0.374,0.024,-0.41752404167119517,-6.5447111118011465,-8.762052927385923
1621786177332.285,-0.14784951091045898,0.38040707298720844,0.025708552796588915,-0.284,-6.472,-8.963
1621786177335.073,-0.208,0.389,0.028,-0.3692979906208267,-6.498068200875804,-9.09866104537408
1621786177339.939,-0.257,0.394,0.017,-0.5181661386999596,-6.543564287710798,-9.335426395229664
1621786177344.805,-0.26,0.394,-0.003,-0.6670342867790926,-6.589060374545793,-9.57219174508525
1621786177348.007,-0.2553935076012242,0.38478701520244846,-0.021425969595103105,-0.765,-6.619,-9.728
1621786177349.671,-0.253,0.38,-0.031,-0.8272422764480204,-6.610743371491589,-9.662582097202591
1621786177354.535,-0.227,0.382,-0.059,-1.009201612276914,-6.586605908575511,-9.47133912179059
1621786177359.399,-0.178,0.372,-0.089,-1.1911609481058076,-6.562468445659434,-9.28009614637859
1621786177363.725,-0.1255345009283886,0.3577720680483766,-0.11567737240929392,-1.353,-6.541,-9.11
1621786177364.264,-0.119,0.356,-0.119,-1.3543715741718974,-6.511065393698341,-9.068647038717295
1621786177369.127,-0.049,0.342,-0.155,-1.3667505437822385,-6.240894381952645,-8.695421104965508
1621786177373.991,0.009,0.346,-0.169,-1.3791319992542415,-5.97066911627618,-8.32212022248462
1621786177378.854,0.038,0.363,-0.182,-1.3915109688645828,-5.7004981045304834,-7.948894288732832
1621786177379.439,0.03715782073813708,0.3638421792618629,-0.18356404720060257,-1.393,-5.668,-7.904
1621786177383.716,0.031,0.37,-0.195,-1.4863889251523064,-5.406347647022256,-7.394036569066269
1621786177388.579,-0.012,0.379,-0.215,-1.5925715839860748,-5.1088504600273525,-6.8142111463384305
1621786177393.44,-0.079,0.389,-0.227,-1.698706266318538,-4.811487691160015,-6.234647706079821
1621786177395.148,-0.10710908543016423,0.38794590929636885,-0.23191908995027874,-1.736,-4.707,-6.031
1621786177398.301,-0.159,0.386,-0.241,-1.6827998041410184,-4.6341257694459985,-5.9031187744823725
1621786177403.163,-0.232,0.396,-0.253,-1.600764813778524,-4.52175331094945,-5.705925231611018
1621786177408.023,-0.286,0.393,-0.262,-1.5187668967232482,-4.409431635888827,-5.508820804576261
1621786177410.854,-0.29415676028739385,0.3918347485303723,-0.2678262573481385,-1.471,-4.344,-5.394
1621786177412.882,-0.3,0.391,-0.272,-1.4912795633717406,-4.326303820497271,-5.3648077622801695
1621786177417.743,-0.312,0.365,-0.279,-1.5398850896425185,-4.283890081012579,-5.294840571597394
1621786177422.602,-0.321,0.325,-0.286,-1.5884735270793486,-4.241491253440313,-5.224897980127817
1621786177426.555,-0.35272791679228216,0.2892044015676817,-0.2933218269520651,-1.628,-4.207,-5.168
1621786177427.461,-0.36,0.281,-0.295,-1.6211879657141077,-4.219469486489429,-5.156685095592925
1621786177432.319,-0.41,0.229,-0.309,-1.5846607034519236,-4.286332949613428,-5.096012693869297
1621786177437.177,-0.454,0.182,-0.316,-1.5481352768227992,-4.353193052595554,-5.035343341163294
1621786177442.035,-0.489,0.119,-0.316,-1.5116098501936748,-4.42005315557768,-4.974673988457291
1621786177442.249,-0.48952897712993215,0.1170604171902488,-0.3156032671525509,-1.51,-4.423,-4.972
1621786177446.892,-0.501,0.075,-0.307,-1.362036846855258,-4.597004668098217,-5.018460430087449
1621786177451.75,-0.506,0.031,-0.309,-1.2072271496592288,-4.779060872000747,-5.0670706750070025
1621786177456.606,-0.51,-0.017,-0.319,-1.052479693772757,-4.961043880123238,-5.115661376155354
1621786177457.939,-0.5069797847732073,-0.026335210700995676,-0.31954913004123503,-1.01,-5.011,-5.129
1621786177461.461,-0.499,-0.051,-0.321,-0.8647567458217921,-5.105733621736018,-5.210488873673399
1621786177466.318,-0.473,-0.106,-0.332,-0.664450732937039,-5.236381438486197,-5.322870763437179
1621786177471.173,-0.429,-0.145,-0.34,-0.46423533347857204,-5.366970153434378,-5.435201814447107
1621786177473.628,-0.40725344532743185,-0.1637121516950005,-0.34,-0.363,-5.433,-5.492
1621786177476.027,-0.386,-0.182,-0.34,-0.2519379806345154,-5.509488994053364,-5.512957984370622
1621786177480.882,-0.339,-0.208,-0.34,-0.027191942463962115,-5.6642727668980974,-5.5553687381300785
1621786177485.736,-0.298,-0.237,-0.33,0.19750888881970174,-5.8190254055232105,-5.597770961113359
1621786177489.311,-0.2633847198470979,-0.2451014485464239,-0.3233715420983805,0.363,-5.933,-5.629
1621786177490.59,-0.251,-0.248,-0.321,0.37312082262210794,-5.9424035989717225,-5.647010282776349
1621786177495.443,-0.192,-0.258,-0.316,0.41152160752042105,-5.978083068404801,-5.7153455377922455
1621786177500.296,-0.127,-0.271,-0.318,0.44992046059536667,-6.01376074291538,-5.78367735507522
1621786177505.361,-0.042709862706640525,-0.27196885215279726,-0.3228442607639862,0.49,-6.051,-5.855
1621786177505.524,-0.04,-0.272,-0.323,0.4907980039678333,-6.05079797367903,-5.854010071027245
1621786177510.513,0.051,-0.281,-0.34,0.5152465962956793,-6.0446084566340055,-5.823681437506626
1621786177515.504,0.148,-0.293,-0.365,0.5397047598855083,-6.0384165164846815,-5.793340930774939
1621786177520.493,0.234,-0.318,-0.382,0.5641533522133543,-6.032226999439657,-5.76301229725432
1621786177521.482,0.25362559334475165,-0.3221630046488867,-0.38299119158306827,0.569,-6.031,-5.757
1621786177525.482,0.333,-0.339,-0.387,0.583637431859479,-5.9970113870381585,-5.586560751059963
1621786177530.472,0.433,-0.347,-0.396,0.6018975923682617,-5.954610675348274,-5.373938204118716
1621786177535.462,0.52,-0.365,-0.4,0.6201577528770442,-5.912209963658389,-5.161315657177468
1621786177537.605,0.5479212136041106,-0.3731615855150477,-0.39097930022021044,0.628,-5.894,-5.07
1621786177540.451,0.585,-0.384,-0.379,0.7162678095468864,-5.731234159195542,-5.108131693724255
1621786177545.441,0.654,-0.415,-0.344,0.8710336806396898,-5.4458458929004125,-5.174990550036346
1621786177550.431,0.723,-0.454,-0.304,1.0257995517324932,-5.160457626605282,-5.241849406348437
1621786177553.726,0.7388516271103499,-0.5002339124051872,-0.304,1.128,-4.972,-5.286
1621786177555.42,0.747,-0.524,-0.304,1.0455135929241066,-4.629865297529799,-5.890830266406167
1621786177560.41,0.695,-0.578,-0.319,0.8025127750768624,-3.6219536250321838,-7.672629893831311
1621786177565.4,0.672,-0.492,-0.229,0.5595119572296181,-2.6140419525345693,-9.454429521256454
1621786177569.846,0.7058577229805764,-0.35389612994764913,-0.035654581926708756,0.343,-1.716,-11.042
1621786177570.39,0.71,-0.337,-0.012,0.27979504422634194,-1.7322314915788197,-10.938098206712711
1621786177575.38,0.56,-0.433,-0.072,-0.3000281564279656,-1.8811342996486127,-9.984934493517509
1621786177580.369,0.201,-0.466,-0.374,-0.8797378831939902,-2.0300079667999515,-9.03195731855083
1621786177585.358,-0.129,-0.333,-0.541,-1.4594476099600147,-2.1788816339512906,-8.07898014358415
1621786177585.965,-0.1445711211113285,-0.3120763060066523,-0.5330927900606535,-1.53,-2.197,-7.963
1621786177590.349,-0.257,-0.161,-0.476,-0.767231998182782,-3.906361732414629,-8.578924964034224
1621786177595.338,-0.15,0.049,-0.365,0.10075270689785709,-5.851513909290528,-9.279811009313242
1621786177600.329,0.03,0.363,-0.194,0.9691621867191638,-7.7976180056030895,-9.981040054516544
1621786177602.087,0.0564252507952043,0.4461514558355762,-0.15031025201859555,1.275,-8.483,-10.228
1621786177605.318,0.105,0.599,-0.07,0.2134418731447265,-8.093735294117648,-10.216173729326952
1621786177610.307,0.07,0.641,-0.169,-1.4255364996668076,-7.492735294117647,-10.197914717998424
1621786177615.298,0.068,0.627,-0.368,-3.0653169564427203,-6.891441176470589,-10.179646771066821
1621786177618.207,0.11872693907511622,0.5832698801076585,-0.42630682652312213,-4.021,-6.541,-10.169
1621786177620.287,0.155,0.552,-0.468,-3.834938301706774,-6.87505945692175,-9.985647938089686
1621786177625.278,0.298,0.431,-0.457,-3.388499416940528,-7.676606109251716,-9.54571059048023
1621786177630.267,0.454,0.298,-0.408,-2.9422352379942756,-8.477839090730113,-9.105945404431251
1621786177634.328,0.5703715935221879,0.20848338959831694,-0.3811450168794951,-2.579,-9.13,-8.748
1621786177635.257,0.597,0.188,-0.375,-2.6276470802035377,-9.014146171553188,-8.716875090865035
1621786177640.247,0.679,0.103,-0.339,-2.88889187060819,-8.391987369760116,-8.549727950084806
1621786177645.237,0.67,0.056,-0.307,-3.1501366610128425,-7.769828567967046,-8.38258080930458
1621786177650.227,0.592,0.0,-0.278,-3.4113814514174945,-7.147669766173976,-8.215433668524351
1621786177650.449,0.5867965653896962,-0.0037357992073976222,-0.2776886833993836,-3.423,-7.12,-8.208
1621786177655.217,0.475,-0.084,-0.271,-3.32125660285922,-7.172054761327841,-7.851306578628543
1621786177660.206,0.358,-0.145,-0.262,-3.214798521928762,-7.226521686455052,-7.47808435304095
1621786177665.197,0.271,-0.178,-0.202,-3.1082987642355224,-7.281009934577175,-7.10471601647686
1621786177666.57,0.2539367262050404,-0.18900856373868363,-0.17750594568142894,-3.079,-7.296,-7.002
1621786177670.186,0.209,-0.218,-0.113,-3.0065498932319668,-7.135398524935258,-7.312212067059411
1621786177675.177,0.154,-0.281,-0.044,-2.9065500598203875,-6.913727067589465,-7.740384728385152
1621786177680.166,0.087,-0.353,-0.014,-2.8065893595432447,-6.6921423573775956,-8.168389832048582
1621786177682.691,0.0546164195899995,-0.38184162630265667,-0.020071921326875092,-2.756,-6.58,-8.385
1621786177685.156,0.023,-0.41,-0.026,-2.74697826811243,-6.5215881087957355,-8.405948767264357
1621786177690.146,-0.045,-0.419,-0.045,-2.7287158953234796,-6.403346983280834,-8.448354615943785
1621786177695.136,-0.113,-0.421,-0.049,-2.7104535225345288,-6.285105857765932,-8.490760464623213
1621786177698.812,-0.16752498164913138,-0.4092108147785662,-0.04015811108392464,-2.697,-6.198,-8.522
1621786177700.125,-0.187,-0.405,-0.037,-2.6674353343833292,-6.230741034649867,-8.49243533438333
1621786177705.116,-0.271,-0.367,-0.03,-2.5550533226314514,-6.355197146837897,-8.380053322631452
1621786177710.106,-0.346,-0.333,-0.024,-2.442693300218076,-6.479628907196511,-8.267693300218077
1621786177714.933,-0.38470222657205777,-0.30977866405676535,-0.019162221678492783,-2.334,-6.6,-8.159
1621786177715.095,-0.386,-0.309,-0.019,-2.3328151928639578,-6.599799185231179,-8.162443973285276
1621786177720.086,-0.393,-0.305,-0.016,-2.2962827459829476,-6.593607245081856,-8.26863574684618
1621786177725.076,-0.365,-0.305,-0.023,-2.2597574472596205,-6.587416516484681,-8.374806742287713
1621786177730.065,-0.318,-0.326,-0.033,-2.2232392966939774,-6.581226999439657,-8.48095695960988
1621786177731.054,-0.3055158734040992,-0.3295668933131145,-0.03676505405273199,-2.216,-6.58,-8.502
1621786177735.056,-0.255,-0.344,-0.052,-2.072515386479283,-6.385377271625878,-8.397489580809305
1621786177740.045,-0.185,-0.361,-0.07,-1.8936410528228738,-6.142751877877393,-8.267202220135692
1621786177745.036,-0.126,-0.363,-0.079,-1.714696692512721,-5.900031499878847,-8.136863853889023
1621786177747.175,-0.11399667302705613,-0.3608565487548314,-0.07599916825676403,-1.638,-5.796,-8.081
1621786177750.026,-0.098,-0.358,-0.072,-1.4958110772865645,-5.728265724627804,-7.7930851166946855
1621786177755.015,-0.099,-0.351,-0.044,-1.2469774183288653,-5.609729292562134,-7.289227906765414
1621786177760.006,-0.145,-0.33,-0.005,-0.9980341678404289,-5.491140654580702,-6.785148787617187
1621786177763.295,-0.19179490190322424,-0.3069320906110866,0.018726992514310873,-0.834,-5.413,-6.453
1621786177764.996,-0.216,-0.295,0.031,-0.7976995396171553,-5.406774048945966,-6.379554882481221
1621786177769.986,-0.297,-0.267,0.059,-0.6912206203053065,-5.388511676157015,-6.164120789920039
1621786177774.976,-0.372,-0.23,0.079,-0.5847417009934577,-5.370249303368064,-5.948686697358856
1621786177779.416,-0.435173638632027,-0.1988580654630853,0.10302377807133421,-0.49,-5.354,-5.757
1621786177779.966,-0.443,-0.195,0.106,-0.4879871744397335,-5.379109145972138,-5.770032192610539
1621786177784.957,-0.499,-0.157,0.131,-0.46972344033918834,-5.606941490006057,-5.888282132041187
1621786177789.946,-0.539,-0.106,0.154,-0.45146685342216836,-5.834684675953968,-6.006485796486977
1621786177794.936,-0.564,-0.068,0.176,-0.4332066929133858,-6.062472440944882,-6.124712598425197
1621786177795.539,-0.5641208237538521,-0.06340869735361739,0.17902059384630434,-0.431,-6.09,-6.139
1621786177799.927,-0.565,-0.03,0.201,-0.5619235510593509,-6.20486432130363,-6.384515682028138
1621786177804.917,-0.531,0.01,0.22,-0.7108105738213869,-6.3354886947040026,-6.663717541760689
1621786177809.906,-0.466,0.037,0.222,-0.8596684587542215,-6.466087504354015,-6.942864760491284
1621786177811.66,-0.42874988993787605,0.0422712419899232,0.22305424839798466,-0.912,-6.512,-7.041
1621786177814.897,-0.36,0.052,0.225,-1.047931052759101,-6.444938003513235,-7.068507465624811
1621786177819.887,-0.232,0.068,0.213,-1.2574713489611726,-6.3415606638803075,-7.110910745653886
1621786177824.878,-0.119,0.084,0.19,-1.46705265309831,-6.238163092858441,-7.153322324186807
1621786177827.782,-0.06486567164179105,0.08982089552238806,0.1801044776119403,-1.589,-6.178,-7.178
1621786177829.867,-0.026,0.094,0.173,-1.5838273773470624,-6.112049061175045,-7.042347970926711
1621786177834.857,0.049,0.108,0.162,-1.5714476075105996,-5.954206995760146,-6.717688506965475
1621786177839.848,0.098,0.113,0.168,-1.5590654149000605,-5.796334039975773,-6.392965505754088
1621786177843.905,0.13052213904789864,0.12194358823817213,0.1793827486667645,-1.549,-5.668,-6.129
1621786177844.838,0.138,0.124,0.182,-1.5598210840362858,-5.635652481410247,-6.0620481591979525
1621786177849.828,0.145,0.129,0.195,-1.6177043964198634,-5.462621617119232,-5.703914509851433
1621786177854.819,0.136,0.133,0.208,-1.675601868819191,-5.289548424224986,-5.345693250140086
1621786177859.808,0.108,0.147,0.229,-1.7334738531901683,-5.116551422816556,-4.98762968908543
1621786177860.026,0.10686552854277748,0.14713090055275643,0.22982903683412415,-1.736,-5.109,-4.972
1621786177864.799,0.082,0.15,0.248,-1.7940324085291979,-5.132390613641871,-4.733948691543494
1621786177869.789,0.052,0.159,0.276,-1.8547006299975768,-5.156843621274533,-4.485085170826267
1621786177874.779,0.035,0.168,0.291,-1.915368851465956,-5.181296628907196,-4.236221650109038
1621786177876.147,0.03308144597172626,0.17019263317517,0.29593342464413247,-1.932,-5.188,-4.168
1621786177879.77,0.028,0.176,0.309,-2.0048067837674135,-5.291592368261659,-4.057666262870987
1621786177884.76,0.031,0.169,0.318,-2.105082919442762,-5.434269215626893,-3.905704588128407
1621786177889.75,0.045,0.173,0.325,-2.20535905511811,-5.576946062992126,-3.753742913385827
1621786177892.27,0.055100298449043496,0.17401002984490432,0.32196991046528695,-2.256,-5.649,-3.677
1621786177894.74,0.065,0.175,0.319,-2.2648875997758355,-5.657887599775836,-3.7356888054162942
