time,gyro_x,gyro_y,gyro_z,acc_x,acc_y,acc_z
1621784856435.277,,,,1.373,-4.913,-7.679
1621784856453.947,,,,1.314,-4.786,-7.581
1621784856470.351,0.035,0.899,1.372,1.5344485859859498,-4.83614124700857,-7.581
1621784856472.922,0.03586875103118298,0.8911812407193532,1.3802531347962383,1.569,-4.844,-7.581
1621784856476.27,0.037,0.881,1.391,1.608244497910599,-4.854245245029758,-7.608089122451564
1621784856482.218,0.047,0.852,1.41,1.6779676586045333,-4.872447309104723,-7.656216613904014
1621784856488.195,0.054,0.853,1.428,1.7480313790046853,-4.8907382803596295,-7.704579181967836
1621784856492.202,0.060003414079011545,0.8403261258331978,1.438005690131686,1.795,-4.903,-7.737
1621784856494.202,0.063,0.834,1.443,1.7929579474779704,-4.8950359951640845,-7.758033140976905
1621784856500.237,0.068,0.822,1.459,1.7867958944573927,-4.871003988383832,-7.821502287088854
1621784856506.302,0.079,0.806,1.461,1.7806034300100955,-4.8468533770393725,-7.885284670896015
1621784856511.79,0.08800420588824354,0.7969957941117565,1.4628008411776487,1.775,-4.825,-7.943
1621784856512.397,0.089,0.796,1.463,1.7736438292931977,-4.823643829293198,-7.939592186429061
1621784856517.271,0.098,0.77,1.466,1.7627530038746135,-4.812753003874613,-7.9122254969156955
1621784856522.878,0.113,0.766,1.47,1.7502245177714677,-4.8002245177714675,-7.880743660041124
1621784856528.493,0.108,0.742,1.466,1.7376780294023024,-4.787678029402302,-7.849216586703221
1621784856529.244,0.10866799861014594,0.7405304030576789,1.4665343988881168,1.736,-4.786,-7.845
1621784856534.114,0.113,0.731,1.47,1.7831084036657856,-4.749062728943873,-7.747838917439317
1621784856539.74,0.105,0.726,1.475,1.8375281978343418,-4.706392663061709,-7.63559809196667
1621784856545.374,0.099,0.73,1.485,1.8920259234908154,-4.6636614918083374,-7.523196532800194
1621784856547.439,0.09350802995541319,0.7303661313363058,1.4901258387082812,1.912,-4.648,-7.482
1621784856551.014,0.084,0.731,1.499,1.9351008462906265,-4.617264128240437,-7.4495021992860675
1621784856556.66,0.065,0.752,1.506,1.9715845020522211,-4.568722315066112,-7.398177734401112
1621784856562.313,0.049,0.761,1.517,2.0081139083118305,-4.520119630466462,-7.346788908646069
1621784856565.7,0.037624271718959046,0.7627961676233223,1.5211910577877519,2.03,-4.491,-7.316
1621784856567.97,0.03,0.764,1.524,2.025168068010713,-4.482575092941756,-7.341522512558797
1621784856573.635,0.012,0.777,1.531,2.0131095446853307,-4.461549975348781,-7.405216251149279
1621784856579.307,0.0,0.789,1.538,2.0010364704785,-4.440499486988154,-7.4689868482417685
1621784856584.022,-0.007476321562217729,0.7973070239580198,1.538,1.991,-4.423,-7.522
1621784856584.983,-0.009,0.799,1.538,1.9966430107526882,-4.421954998008761,-7.537884030266826
1621784856590.667,-0.01,0.822,1.545,2.030022222222222,-4.41577366255144,-7.631840329218107
1621784856596.357,-0.012,0.838,1.559,2.0634358422939068,-4.4095859551307575,-7.725893482012478
1621784856602.053,-0.016,0.846,1.567,2.0968853046594984,-4.40339161024824,-7.8200475242267355
1621784856602.413,-0.016063155641190322,0.8468841789766645,1.567378933847142,2.099,-4.403,-7.826
1621784856607.755,-0.017,0.86,1.573,2.050658883141281,-4.420078598171643,-7.8314998875468
1621784856613.464,-0.024,0.867,1.569,1.998992657467554,-4.4383319353857145,-7.837378080886925
1621784856619.179,-0.021,0.857,1.569,1.947275616177385,-4.456603225422361,-7.843262055644489
1621784856620.867,-0.01480386634233773,0.8537544061793197,1.5681148380489054,1.932,-4.462,-7.845
1621784856624.9,0.0,0.846,1.566,1.8764706556988056,-4.481163067837275,-7.825836932162725
1621784856630.628,0.005,0.831,1.562,1.797602111840544,-4.508380447678557,-7.798619552321442
1621784856636.361,0.016,0.813,1.557,1.7186629755595981,-4.535622188826491,-7.771377811173508
1621784856639.387,0.016527157500744332,0.8056197949895794,1.5548913699970226,1.677,-4.55,-7.757
1621784856642.101,0.017,0.799,1.553,1.6125972229520258,-4.561537005412222,-7.7483837554516315
1621784856647.848,0.012,0.785,1.55,1.4762315695444275,-4.585965319741474,-7.730139824496874
1621784856653.599,-0.002,0.77,1.548,1.3397616389049445,-4.610412314119069,-7.711881942619936
1621784856657.972,-0.013389901644904188,0.7669626928946922,1.548,1.236,-4.629,-7.698
1621784856659.358,-0.017,0.766,1.548,1.1747740271978848,-4.649359122024004,-7.724972121513553
1621784856665.124,-0.037,0.761,1.545,0.920055861680824,-4.734059094538172,-7.837184128895462
1621784856670.895,-0.051,0.747,1.543,0.6651219978273104,-4.818830791984608,-7.949491158724134
1621784856676.625,-0.03810603051176943,0.7311304990914085,1.5172120610235387,0.412,-4.903,-8.061
1621784856676.672,-0.038,0.731,1.517,0.4109879866953629,-4.903470762407878,-8.061913832909411
1621784856682.456,-0.009,0.705,1.499,0.2867620426531011,-4.961257457770821,-8.174088006261005
1621784856688.246,0.033,0.688,1.484,0.16240500880453923,-5.019105132720276,-8.286380551751124
1621784856694.043,0.072,0.66,1.463,0.03790115437292113,-5.077021104806626,-8.398805674036392
1621784856695.342,0.08006721415034744,0.6512605180037903,1.4589663929248264,0.01,-5.09,-8.424
1621784856699.84,0.108,0.621,1.445,-0.13341289180464438,-5.066497552848068,-8.496905550348849
1621784856705.64,0.138,0.583,1.412,-0.3183302093095908,-5.036193377069666,-8.590910340518587
1621784856711.448,0.166,0.538,1.379,-0.5035121836925961,-5.005845829428304,-8.685049671977506
1621784856714.098,0.18013162536749266,0.5297945401091978,1.3612215035699287,-0.588,-4.992,-8.728
1621784856717.261,0.197,0.52,1.34,-0.6044708446300933,-4.960570939328291,-8.770857810006875
1621784856723.081,0.232,0.49,1.307,-0.6347771478978297,-4.90274156472557,-8.849716048101495
1621784856728.906,0.258,0.463,1.283,-0.6651088769831489,-4.844863673511746,-8.928640445211256
1621784856732.918,0.2800170825657344,0.4533675263774912,1.2699273572265952,-0.686,-4.805,-8.983
1621784856734.737,0.29,0.449,1.264,-0.6321489559764691,-4.780434675803219,-8.983963346046933
1621784856740.575,0.316,0.431,1.253,-0.45932837287478184,-4.701598810524274,-8.987054948606891
1621784856746.418,0.34,0.407,1.237,-0.2863560152563191,-4.622693710000647,-8.990149266274484
1621784856751.801,0.3630079722848318,0.3922748977377077,1.2121513899323817,-0.127,-4.55,-8.993
1621784856752.267,0.365,0.391,1.21,-0.1265326323656371,-4.54350604971201,-8.991794683469275
1621784856758.123,0.386,0.415,1.21,-0.12066030126148415,-4.461911554370095,-8.976650250621724
1621784856763.984,0.391,0.426,1.208,-0.11478307369180615,-4.380249023928253,-8.96149319004729
1621784856769.852,0.386,0.41,1.175,-0.10889850142384064,-4.298484440836522,-8.946317187882537
1621784856770.748,0.3832543640897756,0.40969492934330837,1.1656953449709062,-0.108,-4.286,-8.944
1621784856775.726,0.368,0.408,1.114,-0.2698399455439822,-4.360373049408561,-8.771946854009068
1621784856781.604,0.349,0.401,1.059,-0.4609364893849296,-4.448190878617023,-8.568790819537382
1621784856787.49,0.332,0.403,1.014,-0.6522949615340158,-4.536129076174208,-8.365356327301217
1621784856789.757,0.33123046324687166,0.40492384188282093,1.0024569487030746,-0.726,-4.57,-8.287
1621784856793.382,0.33,0.408,0.984,-0.8136274163402207,-4.679866912461275,-8.195570960391224
1621784856799.28,0.335,0.417,0.953,-0.9561990168215685,-4.858622628466088,-8.046814041016976
1621784856805.182,0.342,0.398,0.93,-1.0988650433981104,-5.037496735540364,-7.897958598970735
1621784856808.828,0.33768167547918043,0.392447868473232,0.9121097984137475,-1.187,-5.148,-7.806
1621784856811.092,0.335,0.389,0.901,-1.2949004924348737,-5.193313474344908,-7.777013573852473
1621784856817.008,0.326,0.38,0.869,-1.5768332865562729,-5.311712882402469,-7.701275049115914
1621784856822.93,0.319,0.351,0.833,-1.859045314214273,-5.430229556298318,-7.625461510984104
1621784856827.965,0.31475165822106865,0.3297582911053434,0.7956145923454043,-2.099,-5.531,-7.561
1621784856828.856,0.314,0.326,0.789,-2.1285595218414195,-5.5469166656069175,-7.5637378521014815
1621784856834.791,0.309,0.278,0.738,-2.3254879888090545,-5.652955070897183,-7.581977694410885
1621784856840.73,0.305,0.248,0.688,-2.522546067272843,-5.759063266993069,-7.600229541552744
1621784856846.676,0.311,0.201,0.637,-2.719839066573409,-5.865297958924143,-7.618503147453424
1621784856847.163,0.31181846153846154,0.19829907692307694,0.6328258461538462,-2.736,-5.874,-7.62
1621784856852.627,0.321,0.168,0.586,-2.7638015946456416,-5.999107175905386,-7.6478015946456415
1621784856858.585,0.337,0.134,0.541,-2.794117506876751,-6.135528780945379,-7.678117506876751
1621784856864.549,0.358,0.099,0.501,-2.8244644754021473,-6.272090139309663,-7.708464475402147
1621784856866.423,0.36396425796425796,0.09083838383838384,0.48624630924630924,-2.834,-6.315,-7.718
1621784856870.519,0.377,0.073,0.454,-2.8214942451769405,-6.387914909476823,-7.701255006253869
1621784856876.495,0.394,0.045,0.393,-2.8032480827784867,-6.494299313969502,-7.67682370405933
1621784856882.476,0.407,0.024,0.351,-2.784987012166618,-6.600770640926836,-7.652372440019709
1621784856885.747,0.4075576226744912,0.01340516918466725,0.32088837557747535,-2.775,-6.659,-7.639
1621784856888.342,0.408,0.005,0.297,-2.7158922806646766,-6.709964613108604,-7.636332430718833
1621784856894.061,0.412,0.0,0.26,-2.5856261855070932,-6.8222843103584925,-7.630453438300795
1621784856899.78,0.394,0.0,0.22,-2.45536009034951,-6.93460400760838,-7.624574445882757
1621784856904.23,0.3737693916755603,0.009337203842049092,0.1904321878335112,-2.354,-7.022,-7.62
1621784856905.499,0.368,0.012,0.182,-2.320985276835114,-7.048219593033236,-7.610528000422549
1621784856911.218,0.344,0.026,0.154,-2.172203074038373,-7.1663792634456165,-7.567842046189804
1621784856916.938,0.309,0.056,0.129,-2.023395465529308,-7.284559110535976,-7.525148803000093
1621784856922.658,0.281,0.073,0.115,-1.8745878570202428,-7.402738957626335,-7.482455559810382
1621784856922.719,0.2807759187331939,0.07298932946348542,0.115,-1.873,-7.404,-7.482
1621784856928.378,0.26,0.072,0.115,-1.5968809545820732,-7.415938628349555,-7.320063220591925
1621784856934.097,0.258,0.058,0.131,-1.317831442570557,-7.428003962017459,-7.15640779725036
1621784856939.817,0.253,0.04,0.166,-1.0387342806957303,-7.440071355934442,-6.992724428478982
1621784856941.205,0.24960305538960484,0.03369138858069472,0.17740402833489802,-0.971,-7.443,-6.953
1621784856945.538,0.239,0.014,0.213,-0.9433474747474747,-7.357933333333333,-6.750761616161617
1621784856951.258,0.218,-0.031,0.264,-0.9068435861886842,-7.245637472766885,-6.483788261701987
1621784856956.978,0.182,-0.066,0.298,-0.8703396976298937,-7.133341612200436,-6.216814907242358
1621784856959.695,0.16585243033329064,-0.08262249818631845,0.31129799854905477,-0.853,-7.08,-6.09
1621784856962.699,0.148,-0.101,0.326,-0.8913448968003486,-6.992424155189035,-6.104298097111994
1621784856968.42,0.103,-0.129,0.347,-0.9643728524832622,-6.825635730981024,-6.131528860247996
1621784856974.141,0.068,-0.145,0.372,-1.0374039246239781,-6.658840189100321,-6.158760785453008
1621784856978.183,0.03832595058251184,-0.145,0.38047829983356807,-1.089,-6.541,-6.178
1621784856979.862,0.026,-0.145,0.384,-1.0800104575163398,-6.542816069188619,-6.201154882154882
1621784856985.583,-0.01,-0.131,0.4,-1.0493790849673204,-6.549004225259128,-6.280053872053872
1621784856991.304,-0.051,-0.115,0.426,-1.0187477124183006,-6.555192381329636,-6.3589528619528615
1621784856996.673,-0.06882856167598242,-0.0943564022699151,0.44101352562187995,-0.99,-6.561,-6.433
1621784856997.026,-0.07,-0.093,0.442,-0.9946372673003441,-6.563691972966725,-6.439739757135669
1621784857002.58,-0.08,-0.086,0.457,-1.0676461469424388,-6.60607424631828,-6.545850120344307
1621784857008.131,-0.065,-0.063,0.473,-1.1406133072247377,-6.6484323012279205,-6.651899849059682
1621784857013.679,-0.042,-0.058,0.478,-1.2135387481472415,-6.690766137695645,-6.757888943281796
1621784857014.627,-0.035675617379055335,-0.056119778139719155,0.47834185852005107,-1.226,-6.698,-6.776
1621784857019.225,-0.005,-0.047,0.48,-1.226,-6.672840076335878,-6.750840076335877
1621784857024.767,0.023,-0.045,0.485,-1.226,-6.642515648854962,-6.7205156488549616
1621784857030.307,0.054,-0.049,0.489,-1.226,-6.612203244274809,-6.690203244274809
1621784857032.537,0.05762563944258246,-0.03973447698006703,0.491014244134768,-1.226,-6.6,-6.678
1621784857035.843,0.063,-0.026,0.494,-1.2459755228039502,-6.5655977107265295,-6.60013245277349
1621784857041.375,0.072,-0.021,0.499,-1.2794018112032346,-6.5080302140388735,-6.469831828550355
1621784857046.905,0.066,-0.014,0.501,-1.3128162980972806,-6.450483042165795,-6.339577208343008
1621784857050.411,0.055216361869423095,-0.005119356833642548,0.5067089848926584,-1.334,-6.414,-6.257
1621784857052.432,0.049,0.0,0.51,-1.345098640107259,-6.41841680575697,-6.252469942813363
1621784857057.955,0.021,0.01,0.515,-1.3754301857881632,-6.430487522915698,-6.240089720086464
1621784857063.476,-0.009,0.026,0.527,-1.4057496648151695,-6.44255343803869,-6.2277144225244205
1621784857068.256,-0.029790938454050703,0.030331445511260564,0.534796601920269,-1.432,-6.453,-6.217
1621784857068.994,-0.033,0.031,0.536,-1.4295561555963705,-6.4647635900106915,-6.2353081224814275
1621784857074.509,-0.065,0.045,0.552,-1.4112879739027933,-6.552698566298418,-6.372164670084158
1621784857080.021,-0.086,0.056,0.559,-1.3930303051070478,-6.640582938128786,-6.508942460045505
1621784857085.528,-0.087,0.059,0.576,-1.374788810000274,-6.728389456947833,-6.645599084404726
1621784857086.068,-0.08533256473926924,0.05939233770840723,0.5766865909897126,-1.373,-6.737,-6.659
1621784857091.034,-0.07,0.063,0.583,-1.3785862239433138,-6.8110174672489086,-6.776590014006756
1621784857096.536,-0.035,0.068,0.592,-1.384775562330065,-6.893026200873362,-6.90687558704787
1621784857102.036,0.005,0.07,0.599,-1.390962703578589,-6.9750058224163025,-7.037114910329296
1621784857103.847,0.02345273631840796,0.070988539445629,0.597681947405828,-1.393,-7.002,-7.08
1621784857107.532,0.061,0.073,0.595,-1.3602191835774855,-7.002,-7.067889889474485
1621784857113.024,0.127,0.089,0.595,-1.311365038524851,-7.002,-7.049841861365869
1621784857118.452,0.194,0.115,0.595,-1.2630798992959014,-7.002,-7.032004039230333
1621784857121.496,0.22936429118084006,0.12510408319452573,0.595,-1.236,-7.002,-7.022
1621784857123.875,0.257,0.133,0.595,-1.2518993640522147,-6.932695079772397,-6.972671203838001
1621784857129.294,0.312,0.157,0.583,-1.2881167577819925,-6.774824389155417,-6.860304418163562
1621784857134.708,0.353,0.183,0.571,-1.324301517349102,-6.6170959500167355,-6.748038882070735
1621784857139.002,0.3736329468032306,0.20522009655732526,0.5638578261065741,-1.353,-6.492,-6.659
1621784857140.119,0.379,0.211,0.562,-1.35555854596295,-6.467565886053827,-6.6270181754631245
1621784857145.526,0.382,0.234,0.56,-1.367944145403705,-6.349283411394618,-6.472198182453687
1621784857150.929,0.379,0.264,0.55,-1.3803207969241524,-6.231086389374345,-6.317490038448095
1621784857156.327,0.368,0.288,0.541,-1.392685704299196,-6.113001523942677,-6.162928696260049
1621784857156.464,0.36774558623811676,0.2887632412856496,0.5407710276143052,-1.393,-6.11,-6.159
1621784857161.72,0.358,0.318,0.532,-1.4669285714285714,-6.015250728862974,-6.182536443148688
1621784857167.111,0.342,0.346,0.518,-1.5427596153846153,-5.918063186813187,-6.206678571428571
1621784857172.497,0.34,0.365,0.503,-1.6185185439560439,-5.820968070195112,-6.230797740524782
1621784857173.882,0.33794120849210674,0.3675734893848666,0.49425013609145346,-1.638,-5.796,-6.237
1621784857177.879,0.332,0.375,0.469,-1.6605394492835066,-5.7350514891823545,-6.254939561674628
1621784857183.257,0.312,0.38,0.442,-1.690868783366114,-5.653038493958977,-6.279079235740377
1621784857188.63,0.286,0.389,0.422,-1.7211678280415847,-5.571107403765103,-6.303194801910649
1621784857191.26,0.26836504183339394,0.39683775918515823,0.4215101400509276,-1.736,-5.531,-6.315
1621784857193.999,0.25,0.405,0.421,-1.75148538028169,-5.558810478873239,-6.242313521126761
1621784857199.365,0.216,0.415,0.419,-1.7818225915492958,-5.613293633802817,-6.099914366197184
1621784857204.726,0.18,0.424,0.415,-1.8121321971830986,-5.667727211267605,-5.957644788732395
1621784857208.594,0.14967432321575064,0.43555263877495215,0.4012812414547443,-1.834,-5.707,-5.855
1621784857210.083,0.138,0.44,0.396,-1.8238249399123427,-5.698549526367878,-5.860001300721052
1621784857215.436,0.105,0.443,0.379,-1.7872454404071823,-5.668169942033083,-5.877981054715114
1621784857220.784,0.056,0.44,0.365,-1.750700975540789,-5.637819454262689,-5.895943588293511
1621784857225.862,0.012124180309075062,0.4295079561608658,0.35355413399367175,-1.716,-5.609,-5.913
1621784857226.108,0.01,0.429,0.353,-1.7148834809307878,-5.610130833416253,-5.916521329372131
1621784857231.427,-0.03,0.433,0.346,-1.6907269755078251,-5.63459703762669,-5.992707231090705
1621784857236.74,-0.068,0.426,0.328,-1.666598189028984,-5.659035167521926,-6.068805711523973
1621784857242.05,-0.106,0.428,0.314,-1.642482707643321,-5.683459821745867,-6.144862229740295
1621784857243.037,-0.11232620000920429,0.4272557411753877,0.3100926411707856,-1.638,-5.688,-6.159
1621784857247.355,-0.14,0.424,0.293,-1.6427900843881855,-5.789348101265823,-6.247994725738397
1621784857252.656,-0.157,0.415,0.279,-1.6486708433116661,-5.9137725795415665,-6.357253036264112
1621784857257.952,-0.161,0.408,0.26,-1.6545459145854715,-6.038076719124187,-6.4664056762458655
1621784857260.164,-0.15640093207825767,0.4029828349944629,0.2541466408268734,-1.657,-6.09,-6.512
1621784857263.243,-0.15,0.396,0.246,-1.6959389750553928,-6.120105596454864,-6.58446975913087
1621784857268.53,-0.134,0.389,0.229,-1.7628061896933742,-6.171803859624044,-6.708917075262669
1621784857273.813,-0.117,0.379,0.208,-1.829620913444357,-6.223461539561146,-6.833266700021442
1621784857277.243,-0.10920330203949498,0.3653557785691162,0.19305632890903204,-1.873,-6.257,-6.914
1621784857279.092,-0.105,0.358,0.185,-1.8858102397981853,-6.265467785629308,-6.934192411885275
1621784857284.365,-0.079,0.342,0.159,-1.9223398884859604,-6.289614502558516,-6.991773044562615
1621784857289.634,-0.044,0.335,0.14,-1.9588424756690126,-6.3137433313744316,-7.0493110209698
1621784857294.276,-0.02195849756549965,0.3208934384419198,0.11531351727335962,-1.991,-6.335,-7.1
1621784857294.899,-0.019,0.319,0.112,-1.9888360137397778,-6.327811164288075,-7.092444386955834
1621784857300.16,0.002,0.309,0.094,-1.9705633883786775,-6.267108883427471,-7.02864505094928
1621784857305.416,0.017,0.304,0.072,-1.9523077221575476,-6.206462941404734,-6.964904928211098
1621784857310.667,0.021,0.291,0.051,-1.9340698630333863,-6.1458761551617584,-6.901226979404705
1621784857311.263,0.0204321142750791,0.2904321142750791,0.0487284571003164,-1.932,-6.139,-6.894
1621784857315.914,0.016,0.286,0.031,-1.8674771135387542,-6.08793082177961,-6.807786441068804
1621784857321.156,0.012,0.276,0.009,-1.794758049174185,-6.0303744559421215,-6.710621393364656
1621784857326.394,0.0,0.262,0.0,-1.7220931744155883,-5.972860980601275,-6.613528752197849
1621784857328.203,-0.004838417762851013,0.26130879746244984,-0.00311041141897565,-1.697,-5.953,-6.58
1621784857331.628,-0.014,0.26,-0.009,-1.623406442382728,-5.97286823318593,-6.534384158501691
1621784857336.857,-0.03,0.258,-0.017,-1.5110515477325934,-6.003200959565306,-6.464742694875575
1621784857342.081,-0.051,0.264,-0.026,-1.3988015694095206,-6.033505361426631,-6.395166262030695
1621784857345.097,-0.06197736307936953,0.2726663392731865,-0.02715551190309153,-1.334,-6.051,-6.355
1621784857347.301,-0.07,0.279,-0.028,-1.299332270685408,-6.062512302564846,-6.378024605129692
1621784857352.517,-0.087,0.284,-0.033,-1.2172901753369076,-6.089756470076801,-6.432512940153601
1621784857357.728,-0.101,0.3,-0.035,-1.1353287204752933,-6.1169738588610345,-6.486947717722069
1621784857361.945,-0.09938025131282821,0.31457773818454615,-0.03176050262565641,-1.069,-6.139,-6.531
1621784857362.935,-0.099,0.318,-0.031,-1.0770731111853864,-6.152848037434787,-6.552390798250331
1621784857368.136,-0.103,0.326,-0.024,-1.11948531527473,-6.225598898463953,-6.664767660180489
1621784857373.334,-0.105,0.325,-0.019,-1.1618736285294928,-6.298308778864459,-6.7770812201182915
1621784857378.527,-0.101,0.323,-0.009,-1.2042221237266213,-6.370950358217197,-6.889289276735501
1621784857378.745,-0.10070589065587655,0.32329410934412345,-0.00832775007057495,-1.206,-6.374,-6.894
1621784857383.716,-0.094,0.33,0.007,-1.1537770912270475,-6.441058962401632,-7.120991620518799
1621784857388.901,-0.093,0.339,0.017,-1.0993073739434567,-6.511003031186243,-7.357749198484407
1621784857394.08,-0.086,0.339,0.026,-1.0448966482075197,-6.580871349460798,-7.594250364325269
1621784857395.498,-0.08051972070201925,0.3370819022457068,0.029014153613889412,-1.03,-6.6,-7.659
1621784857399.255,-0.066,0.332,0.037,-0.9483630650512255,-6.613268813118395,-7.813278064393552
1621784857404.426,-0.056,0.337,0.052,-0.8359929117402043,-6.631532832527074,-8.025635984975812
1621784857409.593,-0.033,0.335,0.08,-0.7237129474007278,-6.649782193122196,-8.237823465793666
1621784857412.203,-0.02693274369767772,0.3304495577732583,0.09516814075580571,-0.667,-6.659,-8.345
1621784857414.755,-0.021,0.326,0.11,-0.701467509818864,-6.652872442698868,-8.366140072688903
1621784857419.912,0.0,0.297,0.127,-0.7711213582273287,-6.640489536315141,-8.408861099712762
1621784857425.065,0.019,0.264,0.143,-0.8407158538015124,-6.628117181546398,-8.451545723664928
1621784857428.862,0.02785118087830788,0.2367088589585507,0.14595039362610263,-0.892,-6.619,-8.483
1621784857430.213,0.031,0.227,0.147,-0.9080192966212542,-6.599077524506562,-8.450310876945462
1621784857435.357,0.063,0.183,0.145,-0.9690217509516041,-6.52321152800435,-8.325828711256118
1621784857440.497,0.084,0.155,0.143,-1.0299778816336729,-6.447403142130711,-8.201441074026718
1621784857445.474,0.10532325393429373,0.12495359672894975,0.14687695526078068,-1.089,-6.374,-8.081
1621784857445.632,0.106,0.124,0.147,-1.0900959750977268,-6.369316345736209,-8.074470985956276
1621784857450.762,0.12,0.112,0.145,-1.1256889098016505,-6.217209787172433,-7.862434443318373
1621784857456.022,0.133,0.099,0.136,-1.1621847111625887,-6.061244824091501,-7.645019284783553
1621784857461.28,0.138,0.094,0.122,-1.198666961054003,-5.90533777327349,-7.427684855943246
1621784857462.337,0.13900580855018588,0.09480464684014869,0.11817792750929368,-1.206,-5.874,-7.384
1621784857466.534,0.143,0.098,0.103,-1.1283324268715558,-5.784212327880174,-7.1730113379663605
1621784857471.786,0.145,0.105,0.086,-1.0311429188069237,-5.671856304225838,-6.908990158414987
1621784857477.034,0.141,0.119,0.072,-0.9340256974719788,-5.559583847714421,-6.645165350138846
1621784857479.305,0.13190925167535367,0.12419471332836932,0.06593950111690246,-0.892,-5.511,-6.531
1621784857482.28,0.12,0.131,0.058,-0.8421192816580669,-5.467969098613473,-6.405244386152027
1621784857487.522,0.089,0.145,0.042,-0.7542324522210372,-5.392151235190684,-6.183670548557263
1621784857492.763,0.044,0.173,0.031,-0.6663619959067193,-5.316347496468825,-5.962137989680321
1621784857496.244,0.011430795767097109,0.187622908022936,0.024353223625938183,-0.608,-5.266,-5.815
1621784857498.0,-0.005,0.195,0.021,-0.5785068722568723,-5.28334278990529,-5.8068997747747755
1621784857503.233,-0.058,0.218,0.024,-0.49062202587202586,-5.335021555209055,-5.782762387387388
1621784857508.464,-0.117,0.246,0.028,-0.40276588126588125,-5.386683443058443,-5.758632882882883
1621784857513.154,-0.16991763936875526,0.2621443645531796,0.02620618171631338,-0.324,-5.433,-5.737
1621784857513.693,-0.176,0.264,0.026,-0.3293015505669984,-5.442708863688961,-5.761751214996528
1621784857518.918,-0.223,0.276,0.031,-0.38068673339504744,-5.536811849109003,-6.001651917958806
1621784857524.141,-0.265,0.3,0.031,-0.4320551087711178,-5.6308840546169865,-6.241474152395279
1621784857529.36,-0.293,0.302,0.026,-0.48338266604952557,-5.7248815089099745,-6.481105820411941
1621784857530.033,-0.2954505803070011,0.3017420441782104,0.024839198801946835,-0.49,-5.737,-6.512
1621784857534.577,-0.312,0.3,0.017,-0.5641632132610774,-5.78446445648709,-6.789505259802358
1621784857539.791,-0.312,0.291,0.005,-0.6492644246094995,-5.83892923175008,-7.107938519720636
1621784857545.002,-0.307,0.278,-0.012,-0.7343138348740835,-5.893360854319414,-7.426177949401571
1621784857546.882,-0.30086288205512846,0.2707798612413276,-0.018859131820738798,-0.765,-5.913,-7.541
1621784857550.21,-0.29,0.258,-0.031,-0.7183293752549682,-5.955897255084795,-7.655988475435632
1621784857555.414,-0.265,0.232,-0.054,-0.6453463925636692,-6.022979485984032,-7.835806122151641
1621784857560.578,-0.232,0.213,-0.063,-0.572928346640247,-6.089542455854071,-8.01423186083105
1621784857563.639,-0.21657664647993943,0.19757664647993944,-0.07130488266464799,-0.53,-6.129,-8.12
1621784857565.738,-0.206,0.187,-0.077,-0.4472251626516617,-6.145126604536662,-8.112566643221381
1621784857570.895,-0.173,0.185,-0.089,-0.24386939511165817,-6.1847453842096005,-8.094304861965886
1621784857576.048,-0.134,0.169,-0.089,-0.04066766309126074,-6.224334153918293,-8.076056913428287
1621784857580.3,-0.11005196775723092,0.1648710289236605,-0.0865226173541963,0.127,-6.257,-8.061
1621784857581.197,-0.105,0.164,-0.086,0.1571598625469925,-6.254841870300751,-8.038231731672932
1621784857586.344,-0.079,0.161,-0.079,0.33022198073308273,-6.242458176691729,-7.907583764097744
1621784857591.487,-0.056,0.166,-0.073,0.5031527549342105,-6.230083881578947,-7.777034950657895
1621784857596.626,-0.033,0.176,-0.063,0.6759439761513159,-6.217719572368421,-7.646591488486842
1621784857596.925,-0.03270890166817167,0.17594178033363433,-0.06270890166817167,0.686,-6.217,-7.639
1621784857601.763,-0.028,0.175,-0.058,0.8090535779978516,-6.116982518357196,-7.58767907647483
1621784857606.896,-0.019,0.19,-0.047,0.9396148152508204,-6.010862839736892,-7.53322699648307
1621784857612.024,-0.007,0.195,-0.037,1.070045646511765,-5.904849154612475,-7.478829303824478
1621784857613.516,-0.007,0.20227757668127264,-0.03379786626024005,1.108,-5.874,-7.463
1621784857617.15,-0.007,0.22,-0.026,1.1661672049432967,-5.904071347461251,-7.391882360748573
1621784857622.273,-0.016,0.23,-0.012,1.248173428305977,-5.946467017652524,-7.291618148033447
1621784857627.392,-0.021,0.251,0.002,1.3301171230957543,-5.98883036175139,-7.191430385347078
1621784857630.071,-0.02833104271057027,0.2567601049868766,0.007236459078978764,1.373,-6.011,-7.139
1621784857632.508,-0.035,0.262,0.012,1.3642936950255007,-6.094964195432035,-7.115832374898367
1621784857637.621,-0.052,0.283,0.014,1.3460272008278513,-6.271127503880553,-7.067224924236825
1621784857642.729,-0.065,0.305,0.019,1.3277790228398256,-6.447114169561682,-7.018666213319536
1621784857646.586,-0.06726613751553984,0.3201075834369322,0.02051075834369322,1.314,-6.58,-6.982
1621784857647.835,-0.068,0.325,0.021,1.2619893298556568,-6.622381872610332,-7.013994902042147
1621784857652.937,-0.075,0.342,0.017,1.0495344853137318,-6.7955046978274405,-7.144688698538783
1621784857658.036,-0.075,0.358,0.012,0.8372118023652153,-6.968519828684905,-7.27530119446338
1621784857663.06,-0.06117865195490525,0.358,-0.006757543775485729,0.628,-7.139,-7.404
1621784857663.125,-0.061,0.358,-0.007,0.6239272802949221,-7.140126917588298,-7.40543533713878
1621784857668.21,-0.033,0.346,-0.031,0.3050302651920561,-7.228365412058509,-7.517823314306101
1621784857673.292,0.0,0.325,-0.065,-0.013683018194791341,-7.316553068141277,-7.630146539422048
1621784857678.371,0.038,0.297,-0.105,-0.3322125698656203,-7.404689885836604,-7.742405012486622
1621784857679.484,0.04654994949737867,0.2913000336684142,-0.11289226107450338,-0.402,-7.424,-7.767
1621784857683.447,0.077,0.271,-0.141,-0.47067937907815155,-7.447699222357954,-7.69348404493043
1621784857688.518,0.12,0.234,-0.178,-0.558558352948187,-7.478023657003248,-7.5994164109287015
1621784857693.586,0.176,0.185,-0.208,-0.6463823257754074,-7.508329112415458,-7.505407651282662
1621784857695.872,0.19586385112332466,0.1646846977147816,-0.2228978883424935,-0.686,-7.522,-7.463
1621784857698.65,0.22,0.14,-0.241,-0.6560959008437244,-7.460322795490182,-7.316367968341671
1621784857703.712,0.264,0.089,-0.278,-0.6016020010453222,-7.347929127155977,-7.049162084671097
1621784857708.769,0.311,0.04,-0.309,-0.5471606660195625,-7.235643873665348,-6.782213947584559
1621784857712.221,0.3226111782039515,0.007898507318487034,-0.32675827254721995,-0.51,-7.159,-6.6
1621784857713.823,0.328,-0.007,-0.335,-0.42809530366069026,-7.100272172169176,-6.508471010805471
1621784857718.874,0.333,-0.049,-0.347,-0.1698621030261307,-6.9151121554072255,-6.2198938609356755
1621784857723.92,0.332,-0.075,-0.353,0.08810898260947653,-6.730140082013828,-5.931609626148642
1621784857728.534,0.31096147330719714,-0.10975930497071779,-0.346596970136973,0.324,-6.561,-5.668
1621784857728.964,0.309,-0.113,-0.346,0.33462480687596563,-6.5464635726821365,-5.649076214618927
1621784857734.004,0.271,-0.126,-0.342,0.4591014744926275,-6.376159674201629,-5.427371503142484
1621784857739.041,0.22,-0.152,-0.335,0.5835118124409377,-6.205946525267374,-5.205784931075344
1621784857744.073,0.168,-0.178,-0.319,0.7077955210223948,-6.035906625466873,-4.984423897880511
1621784857744.81,0.1595011406105907,-0.1813702373440761,-0.3154832305974858,0.726,-6.011,-4.952
1621784857749.103,0.11,-0.201,-0.295,0.7804584529805307,-5.969759618131249,-4.928736194843268
1621784857754.128,0.044,-0.232,-0.267,0.8442018492069459,-5.921487920018041,-4.901506006164023
1621784857759.151,-0.007,-0.251,-0.237,0.9079204690671278,-5.873234984589942,-4.874286401563557
1621784857761.049,-0.023617282751250787,-0.26232996551221643,-0.2260477000048574,0.932,-5.855,-4.864
1621784857764.177,-0.051,-0.281,-0.208,0.9206389419102728,-5.888890613962577,-4.977225460284061
1621784857769.205,-0.077,-0.305,-0.176,0.9023762981889232,-5.943369008792365,-5.159232824829037
1621784857774.228,-0.113,-0.337,-0.148,0.884132276245585,-5.997791853911475,-5.34105460284061
1621784857777.293,-0.11727297481279782,-0.3571440241174755,-0.13212895069532238,0.873,-6.031,-5.452
1621784857779.249,-0.12,-0.37,-0.122,0.8646732738884203,-6.0676858657669595,-5.575090733823353
1621784857784.266,-0.131,-0.396,-0.099,0.8433160320520545,-6.161781539944571,-5.8908064827087605
1621784857789.28,-0.126,-0.417,-0.08,0.821972300879624,-6.255817688878178,-6.206322508735993
1621784857793.502,-0.11673032503289314,-0.4287977681399542,-0.0639887432386336,0.804,-6.335,-6.472
1621784857794.29,-0.115,-0.431,-0.061,0.804,-6.354589921649733,-6.510253951480202
1621784857799.297,-0.099,-0.442,-0.056,0.804,-6.4790538941139175,-6.753299270844341
1621784857804.3,-0.063,-0.449,-0.052,0.804,-6.6034146978457455,-6.996143128877885
1621784857809.3,-0.028,-0.447,-0.056,0.804,-6.727702676590027,-7.238844778913362
1621784857809.674,-0.025903728681034063,-0.4463261985046181,-0.056149733665640425,0.804,-6.737,-7.257
1621784857814.296,0.0,-0.438,-0.058,0.8237636512187373,-6.818632472425219,-7.377873345134885
1621784857819.29,0.024,-0.417,-0.065,0.8451193772411602,-6.906840905996097,-7.508483727474922
1621784857824.279,0.047,-0.407,-0.065,0.8664531796105488,-6.994958785347919,-7.638960026023936
1621784857825.81,0.05406262853785134,-0.40085858388012924,-0.06807070805993537,0.873,-7.022,-7.679
1621784857829.265,0.07,-0.387,-0.075,0.7867356585032982,-7.030368928652665,-7.710544423383123
1621784857834.247,0.087,-0.368,-0.091,0.6623348093107893,-7.042437667753431,-7.756034286147547
1621784857839.226,0.103,-0.34,-0.105,0.538013207976344,-7.05449871862916,-7.801495170217605
1621784857841.91,0.10839374908002551,-0.32975187674795153,-0.11794499779206123,0.471,-7.061,-7.826
1621784857844.202,0.113,-0.321,-0.129,0.4247691582819102,-7.047016597258109,-7.839983402741891
1621784857849.175,0.131,-0.311,-0.157,0.3244578836976016,-7.016675532723348,-7.870324467276651
1621784857854.144,0.148,-0.281,-0.185,0.2242303249536432,-6.986359789646472,-7.900640210353528
1621784857857.973,0.17422059402045634,-0.26634731510621557,-0.19733910306845004,0.147,-6.963,-7.924
1621784857859.109,0.182,-0.262,-0.201,0.1622490251710692,-6.93461986982051,-7.912210244427924
1621784857864.091,0.209,-0.223,-0.215,0.22912778224521688,-6.810151071932513,-7.860503057245596
1621784857869.07,0.255,-0.206,-0.223,0.2959639351226691,-6.685761565188366,-7.8088288094190474
1621784857874.046,0.284,-0.192,-0.232,0.36275748380342593,-6.561451349588069,-7.757187500948277
1621784857874.064,0.28408355424644083,-0.19199273441335296,-0.23201453117329407,0.363,-6.561,-7.757
1621784857879.019,0.307,-0.19,-0.236,0.42038737040527807,-6.361069806329999,-7.466669271229211
1621784857883.989,0.314,-0.182,-0.236,0.47794721960414704,-6.160538718798455,-7.175465948131707
1621784857888.955,0.304,-0.185,-0.232,0.5354618284637135,-5.960165242771579,-6.884491502234654
1621784857890.124,0.29928832906908087,-0.18829816965164337,-0.22917299744144853,0.549,-5.913,-6.816
1621784857893.917,0.284,-0.199,-0.22,0.5582298692989672,-5.813364744234226,-6.634952563751028
1621784857898.876,0.251,-0.199,-0.208,0.5702971392011699,-5.683100112725833,-6.398248423361667
1621784857903.833,0.209,-0.208,-0.192,0.582359656338543,-5.552886786704445,-6.161637510282424
1621784857906.151,0.18372884112978755,-0.21033992211761227,-0.1840442648001183,0.588,-5.492,-6.051
1621784857908.786,0.155,-0.213,-0.175,0.5444957860021986,-5.462832401978747,-6.0477042262122875
1621784857913.735,0.099,-0.218,-0.161,0.462783803591059,-5.408048231953097,-6.041513924514474
1621784857918.681,0.038,-0.225,-0.141,0.38112825210699885,-5.353301896299011,-6.035327897886893
1621784857922.141,-0.004700301279201853,-0.2313000444510298,-0.1325999407319603,0.324,-5.315,-6.031
1621784857923.624,-0.023,-0.234,-0.129,0.2765926266011662,-5.336937529651226,-6.1057363298287495
1621784857928.563,-0.075,-0.234,-0.122,0.11869813139892568,-5.410002433313439,-6.35465235755934
1621784857933.5,-0.117,-0.248,-0.113,-0.039133924062256076,-5.483038443291554,-6.603469950874615
1621784857938.094,-0.14586899930713648,-0.25079377412649706,-0.11858754825299415,-0.186,-5.551,-6.835
1621784857938.433,-0.148,-0.251,-0.119,-0.19121804130824785,-5.559135884815309,-6.855680482082892
1621784857943.362,-0.155,-0.257,-0.127,-0.2670618397043716,-5.677390297008449,-7.156269576950795
1621784857948.288,-0.148,-0.264,-0.136,-0.3428605578300136,-5.795574420779858,-7.456680006746707
1621784857953.211,-0.127,-0.274,-0.15,-0.4186104389959673,-5.913682398761059,-7.75689688271463
1621784857954.016,-0.12274514960551779,-0.2762910732893366,-0.15229107328933658,-0.431,-5.933,-7.806
1621784857958.131,-0.101,-0.288,-0.164,-0.4134607097494912,-5.996193031049628,-7.866613723659847
1621784857963.075,-0.063,-0.298,-0.185,-0.3923885870812738,-6.072114649486587,-7.939436500527951
1621784857968.016,-0.03,-0.311,-0.195,-0.37132791099820955,-6.147995026550569,-8.012219719344424
1621784857969.97,-0.016942598635419755,-0.3113956788292297,-0.20014382477998616,-0.363,-6.178,-8.041
1621784857972.954,0.003,-0.312,-0.208,-0.3263184609024513,-6.170701122322426,-7.969508428901717
1621784857977.889,0.031,-0.332,-0.216,-0.2656587251764634,-6.158631072866745,-7.851283841925556
1621784857982.82,0.051,-0.342,-0.229,-0.20504400483838864,-6.1465699805545775,-7.7331469890217575
1621784857985.915,0.06418624003170043,-0.3445116647679429,-0.23402332953588587,-0.167,-6.139,-7.659
1621784857987.749,0.072,-0.346,-0.237,-0.14441063839580234,-6.131047622700564,-7.592269181791681
1621784857992.675,0.075,-0.342,-0.248,-0.08373631077494285,-6.109687782874852,-7.413032264993326
1621784857997.597,0.08,-0.347,-0.251,-0.02311310391383728,-6.088345939643137,-7.233946363092407
1621784858001.828,0.07570039200119089,-0.3487198431995236,-0.25014007840023816,0.029,-6.07,-7.08
1621784858002.517,0.075,-0.349,-0.25,0.02730716361455787,-6.069175284837862,-7.071058351399972
1621784858007.432,0.066,-0.347,-0.251,0.015235435213801374,-6.063294186386211,-7.007294862924182
1621784858012.345,0.058,-0.353,-0.25,0.003167904423635775,-6.057415132924335,-6.943553546442794
1621784858017.255,0.044,-0.346,-0.246,-0.008891830804003877,-6.0515398773006135,-6.87985340652244
1621784858017.706,0.04335641791044776,-0.3466435820895522,-0.24554029850746267,-0.01,-6.051,-6.874
1621784858022.162,0.037,-0.353,-0.241,-0.07609680551060977,-6.051,-6.910001664278119
1621784858027.066,0.038,-0.36,-0.244,-0.14883515941626985,-6.051,-6.949620852788436
1621784858031.967,0.031,-0.358,-0.237,-0.22153367851694328,-6.051,-6.989218344043271
1621784858033.549,0.030676872444400118,-0.3550918519996011,-0.2382925102223995,-0.245,-6.051,-7.002
1621784858036.863,0.03,-0.349,-0.241,-0.2737096365825794,-6.059172816253435,-7.030709636582579
1621784858041.758,0.03,-0.351,-0.237,-0.31611631210053415,-6.071244789576064,-7.0731163121005345
1621784858046.649,0.035,-0.356,-0.234,-0.35848703183376046,-6.083306527310341,-7.11548703183376
1621784858049.363,0.03666571771051843,-0.356,-0.23288952152632106,-0.382,-6.09,-7.139
1621784858051.537,0.038,-0.356,-0.232,-0.3968251942286349,-6.096726245529658,-7.1498443550376125
1621784858056.422,0.038,-0.37,-0.229,-0.4301365149833518,-6.111839715131335,-7.1742109692933775
1621784858061.335,0.047,-0.37,-0.232,-0.46363762486126525,-6.12703929276113,-7.198716410778148
1621784858065.201,0.050935921654404456,-0.36448970968383376,-0.23042563133823823,-0.49,-6.139,-7.218
1621784858066.246,0.052,-0.363,-0.23,-0.4816275986325418,-6.144142104776864,-7.210220918414487
1621784858071.154,0.061,-0.37,-0.229,-0.4423119283008408,-6.16828873694909,-7.173691397948812
1621784858076.059,0.065,-0.368,-0.225,-0.4030197265083618,-6.192420955372817,-7.137183682897533
1621784858080.961,0.065,-0.356,-0.227,-0.36375294896670674,-6.2165375589023375,-7.100699590378515
1621784858081.055,0.065,-0.3558273284496935,-0.22690407136094085,-0.363,-6.217,-7.1
1621784858085.86,0.065,-0.347,-0.222,-0.3092447883716265,-6.199385297884487,-7.076311262672242
1621784858090.756,0.063,-0.349,-0.213,-0.254473575385375,-6.181437668770348,-7.0521747959325385
1621784858095.649,0.063,-0.33,-0.206,-0.19973786782292036,-6.163501674201861,-7.028053975650779
1621784858096.877,0.06124213679480779,-0.3289955067398902,-0.206,-0.186,-6.159,-7.022
1621784858100.539,0.056,-0.326,-0.206,-0.14959954866531677,-6.1202810485803045,-7.026405150161523
1621784858105.427,0.038,-0.314,-0.19,-0.10101465292053727,-6.068601573488724,-7.032284850920445
1621784858110.311,0.024,-0.29,-0.183,-0.0524685843238481,-6.016963398611991,-7.038159852852528
1621784858112.672,0.0172292843926589,-0.2832292843926589,-0.1762292843926589,-0.029,-5.992,-7.041
1621784858115.193,0.01,-0.276,-0.169,-0.016527633677625164,-5.985763816838813,-7.05043422580795
1621784858120.072,-0.002,-0.262,-0.154,0.007610248230794241,-5.973694875884603,-7.068692367251498
1621784858124.947,-0.024,-0.251,-0.147,0.031728804373074,-5.961635597813463,-7.086935890487325
1621784858128.438,-0.03044744488977956,-0.24240340681362724,-0.13911978957915833,0.049,-5.953,-7.1
1621784858129.82,-0.033,-0.239,-0.136,0.04724307128891096,-5.96503496167096,-7.112034961670959
1621784858134.689,-0.054,-0.215,-0.126,0.04105362962043388,-6.007432637100028,-7.154432637100028
1621784858139.557,-0.061,-0.197,-0.11,0.03486542937835573,-6.049821808758264,-7.196821808758263
1621784858144.171,-0.061,-0.17707935551874718,-0.1062055915273804,0.029,-6.09,-7.237
1621784858144.421,-0.061,-0.176,-0.106,0.027758054484388606,-6.092961562383381,-7.239340589625575
1621784858149.281,-0.051,-0.166,-0.101,0.0036141000124393606,-6.150535607662644,-7.2848426576688645
1621784858154.139,-0.042,-0.152,-0.096,-0.020518938922751587,-6.208083623585023,-7.330324154123647
1621784858158.995,-0.031,-0.134,-0.084,-0.0446434879960194,-6.265611394452046,-7.375789650454037
1621784858159.872,-0.028288783776983847,-0.13273476576259247,-0.08436149549640215,-0.049,-6.276,-7.384
1621784858163.847,-0.016,-0.127,-0.086,-0.06878188672191414,-6.3158173873761605,-7.376645195962365
1621784858168.697,0.003,-0.119,-0.077,-0.09291965231478597,-6.364402377095146,-7.367670898498349
1621784858173.543,0.024,-0.11,-0.08,-0.11703676241510375,-6.412945791015017,-7.358704280640539
1621784858175.545,0.030612569930951062,-0.10545385817247115,-0.07669371503452446,-0.127,-6.433,-7.355
1621784858178.387,0.04,-0.099,-0.072,-0.14135366005931013,-6.44735366005931,-7.319388387700952
1621784858183.228,0.061,-0.086,-0.068,-0.16580334009676917,-6.471803340096769,-7.258728422038396
1621784858188.065,0.08,-0.082,-0.068,-0.1902320586858124,-6.496232058685812,-7.1981204619946935
1621784858191.187,0.09226883457887296,-0.08006281559280953,-0.0667085437285397,-0.206,-6.512,-7.159
1621784858192.9,0.099,-0.079,-0.066,-0.21247364058614704,-6.514084731714182,-7.12344983813709
1621784858197.732,0.112,-0.073,-0.068,-0.23073565519290617,-6.519965719468901,-7.023163520635566
1621784858202.561,0.131,-0.075,-0.068,-0.24898659743834353,-6.5258431415479405,-6.9229380072877404
1621784858206.798,0.13890180604037033,-0.0723660646532099,-0.061854150857489756,-0.265,-6.531,-6.835
1621784858207.387,0.14,-0.072,-0.061,-0.2657181383687221,-6.530281861631278,-6.823509786100447
1621784858212.21,0.143,-0.072,-0.063,-0.27159990597821826,-6.5244000940217814,-6.729401504348507
1621784858217.03,0.14,-0.068,-0.058,-0.2774781007600094,-6.51852189923999,-6.635350387839849
1621784858221.848,0.143,-0.063,-0.056,-0.2833536159210217,-6.512646384078978,-6.541342145263652
1621784858222.378,0.14244951569552208,-0.06277980627820884,-0.05522932197373092,-0.284,-6.512,-6.531
1621784858226.662,0.138,-0.061,-0.049,-0.29502036330522974,-6.4957449641247855,-6.46074518392916
1621784858231.474,0.127,-0.058,-0.049,-0.30739848962994365,-6.477487227795833,-6.381834628609109
1621784858236.282,0.112,-0.061,-0.044,-0.31976593974220086,-6.459245238880254,-6.302992134143469
1621784858237.928,0.10823256286512574,-0.05860254000508001,-0.041602540005080006,-0.324,-6.453,-6.276
1621784858241.088,0.101,-0.054,-0.037,-0.3119874626396099,-6.42897492527922,-6.280072046562844
1621784858245.89,0.082,-0.051,-0.031,-0.293732452414661,-6.392464904829322,-6.286260185622149
1621784858250.69,0.061,-0.04,-0.024,-0.27548486707566466,-6.355969734151329,-6.292445807770961
1621784858253.448,0.04777637538806046,-0.03482553819532801,-0.01997541859636623,-0.265,-6.335,-6.296
1621784858255.487,0.038,-0.031,-0.017,-0.2701338597569625,-6.324732280486075,-6.316667076457516
1621784858260.281,0.017,-0.028,-0.012,-0.2822038394250319,-6.300592321149936,-6.36525648178795
1621784858265.073,0.0,-0.024,-0.005,-0.2942689016029127,-6.276462196794174,-6.4138260910681355
1621784858268.938,-0.011303243574051408,-0.01592625458996328,-0.0009631272949816401,-0.304,-6.257,-6.453
1621784858269.86,-0.014,-0.014,0.0,-0.30519291263975745,-6.257,-6.467613179837029
1621784858274.645,-0.03,-0.005,0.005,-0.3113829827553534,-6.257,-6.54344153875308
1621784858279.428,-0.045,0.005,0.007,-0.3175705261828059,-6.257,-6.619238945739372
1621784858284.207,-0.056,0.012,0.014,-0.32375301623397135,-6.257,-6.694974448866149
1621784858284.398,-0.056399672901972814,0.012199836450986405,0.014279771031380967,-0.324,-6.257,-6.698
1621784858288.984,-0.066,0.017,0.021,-0.324,-6.251054661412588,-6.773803066989508
1621784858293.758,-0.075,0.028,0.026,-0.324,-6.244865293009859,-6.852717514124294
1621784858298.527,-0.077,0.028,0.028,-0.324,-6.2386825713336185,-6.931547215496368
1621784858299.825,-0.07591115776537458,0.028544421117312715,0.028544421117312715,-0.324,-6.237,-6.953
1621784858303.295,-0.073,0.03,0.03,-0.324,-6.245789873457867,-7.0303058101550855
1621784858308.06,-0.073,0.044,0.033,-0.324,-6.257860565792395,-7.1364660017126
1621784858312.822,-0.072,0.04,0.035,-0.324,-6.269923218419968,-7.242555485078177
1621784858315.221,-0.06393474580618683,0.0445367054840199,0.03600815677422665,-0.324,-6.276,-7.296
1621784858317.581,-0.056,0.049,0.037,-0.3178571519349304,-6.2790714240325345,-7.3125856897756885
1621784858322.337,-0.042,0.049,0.038,-0.30547868081591156,-6.285260659592044,-7.346007561797039
1621784858327.091,-0.028,0.051,0.04,-0.2931046578127979,-6.291447671093601,-7.379417423905446
1621784858330.589,-0.0198975940777298,0.05320974706971005,0.037790252930289946,-0.284,-6.296,-7.404
1621784858331.84,-0.017,0.054,0.037,-0.28563163928162016,-6.291186664119221,-7.400818303400841
1621784858336.587,-0.003,0.056,0.038,-0.291822888803974,-6.272922478028277,-7.388745366832251
1621784858341.332,0.009,0.056,0.038,-0.2980119093109158,-6.2546648675327985,-7.3766767768437145
1621784858345.923,0.016747051856429274,0.056,0.04381028889232195,-0.304,-6.237,-7.365
1621784858346.073,0.017,0.056,0.044,-0.3043820296421563,-6.236235940715687,-7.363560042118026
1621784858350.812,0.026,0.045,0.038,-0.3164595172380785,-6.212080965523843,-7.318037204256473
1621784858355.548,0.026,0.051,0.038,-0.32852953845662963,-6.187940923086741,-7.272542508894242
1621784858360.28,0.033,0.054,0.04,-0.3405889823072383,-6.1638220353855235,-7.2270876820727175
1621784858361.226,0.03380004129245381,0.05259992773820584,0.040800041292453806,-0.343,-6.159,-7.218
1621784858365.01,0.037,0.047,0.044,-0.35761936051159077,-6.163707929656275,-7.183805563549161
1621784858369.737,0.033,0.047,0.038,-0.37588247801758595,-6.169589272581934,-7.141088441247002
1621784858374.461,0.03,0.052,0.044,-0.39413333333333334,-6.175466666666667,-7.0984
1621784858376.497,0.03,0.046824429849511295,0.04443129751254072,-0.402,-6.178,-7.08
1621784858379.182,0.03,0.04,0.045,-0.42102259950348364,-6.184869272042924,-7.069784159525907
1621784858383.9,0.037,0.044,0.044,-0.45445096500360377,-6.196940626251301,-7.051831889164731
1621784858388.615,0.026,0.035,0.038,-0.48785857291583246,-6.20900448466405,-7.033890766397053
1621784858391.74,0.0293160621761658,0.035,0.03733678756476684,-0.51,-6.217,-7.022
1621784858393.327,0.031,0.035,0.037,-0.5202234063041664,-6.223154907876998,-7.030136996854337
1621784858398.036,0.028,0.031,0.035,-0.5505601848879759,-6.241418886820312,-7.0542825961353275
1621784858402.743,0.028,0.021,0.033,-0.5808843808178725,-6.2596752904923925,-7.078418180650959
1621784858406.952,0.03247466777408638,0.01652533222591362,0.02405066445182724,-0.608,-6.276,-7.1
1621784858407.446,0.033,0.016,0.023,-0.6092694348846933,-6.275381557363867,-7.097461130230613
1621784858412.147,0.038,0.012,0.028,-0.6213460004502911,-6.26949810234473,-7.073307999099418
1621784858416.845,0.047,0.005,0.023,-0.6334150397221061,-6.263618313981538,-7.049169920555788
1621784858421.54,0.045,0.002,0.017,-0.6454765527001384,-6.257742192274291,-7.025046894599724
1621784858422.133,0.045252836473404806,0.0008622358696783595,0.01636790881648798,-0.647,-6.257,-7.022
1621784858426.231,0.047,-0.007,0.012,-0.63645224130708,-6.24104313428507,-6.9979294737520545
1621784858430.92,0.047,-0.002,0.012,-0.6243831168831169,-6.222784715284716,-6.970387112887113
1621784858435.606,0.04,-0.005,0.01,-0.6123215333054043,-6.204537704231253,-6.942861960620025
1621784858437.285,0.03928297362110312,-0.006434052757793764,0.01,-0.608,-6.198,-6.933
1621784858440.289,0.038,-0.009,0.01,-0.5962783034099716,-6.201774783647637,-6.909755279643503
1621784858444.969,0.03,-0.007,0.002,-0.5780179863084475,-6.207655224748127,-6.873544142340481
1621784858449.646,0.017,-0.014,0.005,-0.5597691003616637,-6.213531984629294,-6.8373556735985535
1621784858452.406,0.015228889237035878,-0.011048148728393128,0.003819259491357251,-0.549,-6.217,-6.816
1621784858454.321,0.014,-0.009,0.003,-0.5365639105042629,-6.224487033471923,-6.8134620225518905
1621784858458.992,0.007,-0.005,0.005,-0.5062315208774854,-6.242748370083962,-6.807271738954589
1621784858463.66,0.0,0.003,0.007,-0.4759181563748726,-6.260998252794719,-6.801085338035689
1621784858467.497,-0.002467088740058602,0.004644725826705735,0.009467088740058603,-0.451,-6.276,-6.796
1621784858468.326,-0.003,0.005,0.01,-0.4472023992866986,-6.274954283861555,-6.798146469968388
1621784858472.989,-0.005,0.012,0.014,-0.4258373996919835,-6.269071168031125,-6.810222339304532
1621784858477.647,-0.007,0.016,0.01,-0.4044958904109589,-6.263194520547945,-6.822284931506849
1621784858482.304,-0.009,0.014,0.012,-0.3831588554753992,-6.2573191051309065,-6.834344994731296
1621784858482.557,-0.009543461155117242,0.014271730577558622,0.01210869223102345,-0.382,-6.257,-6.835
1621784858486.958,-0.019,0.019,0.014,-0.3650141174559337,-6.239721257412071,-6.81772125741207
1621784858491.61,-0.024,0.023,0.016,-0.34705960523109414,-6.22145718463163,-6.79945718463163
1621784858496.258,-0.04,0.026,0.017,-0.32912111120136467,-6.203209406222078,-6.781209406222078
1621784858497.585,-0.04,0.027428308630295384,0.018713970356354463,-0.324,-6.198,-6.776
1621784858500.903,-0.04,0.031,0.023,-0.3282034932933976,-6.223884669227765,-6.763168283630681
1621784858505.544,-0.056,0.026,0.03,-0.3340826930589921,-6.260088162521162,-6.745221252767287
1621784858510.184,-0.063,0.042,0.023,-0.3399609649693971,-6.2962859421799715,-6.727277054303946
1621784858512.583,-0.06765711727842436,0.0482094897045658,0.021965085049239032,-0.343,-6.315,-6.718
1621784858514.82,-0.072,0.054,0.021,-0.3371712146666884,-6.326807026700811,-6.753122168034057
1621784858519.454,-0.068,0.052,0.031,-0.32509698412957316,-6.35126508342984,-6.825877146911546
1621784858524.084,-0.063,0.059,0.038,-0.3130335676654325,-6.375701234728996,-6.898566964067266
1621784858527.551,-0.05925422029964128,0.06349493564043047,0.037250844059928255,-0.304,-6.394,-6.953
1621784858528.712,-0.058,0.065,0.037,-0.31161745185863277,-6.394,-6.962871595775984
1621784858533.337,-0.045,0.068,0.033,-0.3419655082224474,-6.394,-7.002200199431131
1621784858537.958,-0.037,0.068,0.037,-0.3722879327819008,-6.394,-7.041495586360218
1621784858542.486,-0.024255616047359797,0.068,0.037,-0.402,-6.394,-7.08
1621784858542.577,-0.024,0.068,0.037,-0.4021767191953609,-6.393402810994988,-7.080121875307145
1621784858547.193,-0.017,0.07,0.038,-0.41115899485633783,-6.363048913933755,-7.086316548176785
1621784858551.806,-0.007,0.07,0.035,-0.42013461979490874,-6.33271749172755,-7.092506634341317
1621784858556.416,-0.003,0.073,0.035,-0.4291050191658749,-6.302403728336009,-7.09869311666612
1621784858557.39,-0.0019432552718024797,0.06982976581540744,0.03542269789127901,-0.431,-6.296,-7.1
1621784858561.024,0.002,0.058,0.037,-0.42391469699954043,-6.286471489068347,-7.076056562274308
1621784858565.628,-0.002,0.068,0.035,-0.4149382345216992,-6.274399694701596,-7.045722309762983
1621784858570.229,0.0,0.066,0.037,-0.40596748407852407,-6.262335582036636,-7.015407359989495
1621784858572.264,-0.0013277226145595499,0.06777029681941274,0.03611485159029364,-0.402,-6.257,-7.002
1621784858574.827,-0.003,0.07,0.035,-0.402,-6.243360628237809,-6.993540136501932
1621784858579.423,-0.007,0.073,0.038,-0.402,-6.218901225228188,-6.9783691143820406
1621784858584.015,-0.012,0.08,0.031,-0.402,-6.194465208453252,-6.96321259764822
1621784858587.109,-0.015370299452156802,0.07191128131482369,0.03841465879474496,-0.402,-6.178,-6.953
1621784858588.605,-0.017,0.068,0.042,-0.402,-6.181938627861369,-6.957948532441208
1621784858593.192,-0.023,0.07,0.04,-0.402,-6.194014172942863,-6.973120371133341
1621784858597.776,-0.026,0.082,0.035,-0.402,-6.206082005306613,-6.988282519487797
1621784858601.923,-0.0323384328358209,0.0756615671641791,0.03681098081023454,-0.402,-6.217,-7.002
1621784858602.356,-0.033,0.075,0.037,-0.4022928110188106,-6.217585622037621,-7.0048695479843435
1621784858606.934,-0.028,0.082,0.037,-0.4053897045465806,-6.223779409093161,-7.035219104556489
1621784858611.509,-0.028,0.075,0.038,-0.408484451123846,-6.229968902247692,-7.065547621013691
1621784858616.082,-0.026,0.075,0.037,-0.41157787650080097,-6.236155753001602,-7.095863189707849
1621784858616.706,-0.025590253286309712,0.07377075985892914,0.037,-0.412,-6.237,-7.1
1621784858620.651,-0.023,0.066,0.037,-0.412,-6.242347851989144,-7.105347851989144
1621784858625.217,-0.016,0.08,0.028,-0.412,-6.248538028728404,-7.111538028728404
1621784858629.78,-0.019,0.073,0.031,-0.412,-6.254723902826504,-7.117723902826504
1621784858631.459,-0.016423241622952573,0.07115945830210899,0.031,-0.412,-6.257,-7.12
1621784858634.341,-0.012,0.068,0.031,-0.41571878834101533,-6.257,-7.123718788341016
1621784858638.898,-0.014,0.063,0.03,-0.42159860065656396,-6.257,-7.129598600656564
1621784858643.453,-0.014,0.058,0.024,-0.4274758928275359,-6.257,-7.135475892827536
1621784858646.184,-0.011,0.0544,0.0222,-0.431,-6.257,-7.139
1621784858648.005,-0.009,0.052,0.021,-0.4274059623118083,-6.2593547143474355,-7.1341666389710525
1621784858652.554,-0.005,0.044,0.026,-0.41842665093555786,-6.265237711456013,-7.12209101332713
1621784858657.1,0.003,0.037,0.023,-0.4094531224035362,-6.271116919804579,-7.110023164611652
1621784858660.876,0.004662295786758384,0.039493443680137574,0.019675408426483233,-0.402,-6.276,-7.1
1621784858661.643,0.005,0.04,0.019,-0.4009536432662848,-6.277046356733715,-7.096913247635539
1621784858666.182,0.003,0.042,0.021,-0.3947624217397096,-6.28323757826029,-7.078649144132143
1621784858670.719,0.009,0.037,0.023,-0.38857353137072065,-6.289426468629279,-7.060391917543626
1621784858675.253,0.005,0.03,0.021,-0.3823889702943919,-6.295611029705609,-7.042147462368456
1621784858675.538,0.005125841728168938,0.030062920864084467,0.02087415827183106,-0.382,-6.296,-7.041
1621784858679.785,0.007,0.031,0.019,-0.3593623531767218,-6.290195475173519,-7.02387665176188
1621784858684.313,0.009,0.031,0.026,-0.3352255072076882,-6.284006540309663,-7.005619293913508
1621784858688.839,0.003,0.024,0.028,-0.31109907234383344,-6.277820274959957,-6.987369811131874
1621784858690.171,0.00476708778749595,0.026061602418745278,0.026527426843753376,-0.304,-6.276,-6.982
1621784858693.361,0.009,0.031,0.023,-0.28696007623633263,-6.276,-6.97784924933962
1621784858697.88,0.005,0.03,0.031,-0.26282355301434446,-6.276,-6.971969839836827
1621784858702.397,0.0,0.03,0.028,-0.23869615809007927,-6.276,-6.966092653893737
1621784858704.774,0.002632916869489967,0.03368608361728595,0.02957975012169398,-0.226,-6.276,-6.963
1621784858706.911,0.005,0.037,0.031,-0.22878631862884716,-6.278932966977734,-6.958600549533399
1621784858711.422,0.005,0.037,0.031,-0.23466836999681673,-6.285124599996649,-6.9493131000050266
1621784858715.93,0.0,0.035,0.035,-0.24054596478295107,-6.291311541876791,-6.940032687184814
1621784858719.346,0.0,0.03879125345472281,0.035,-0.245,-6.296,-6.933
1621784858720.435,0.0,0.04,0.035,-0.24649788462829897,-6.298920875025183,-6.930079124974817
1621784858724.937,0.005,0.038,0.037,-0.25268954401987775,-6.310994610838762,-6.918005389161238
1621784858729.436,0.003,0.044,0.037,-0.25887717413202604,-6.3230604895574505,-6.90593951044255
1621784858733.888,0.003,0.05093157751832745,0.037,-0.265,-6.335,-6.894
1621784858733.932,0.003,0.051,0.037,-0.26505753991621384,-6.334939431667143,-6.893939431667143
1621784858738.426,0.0,0.052,0.037,-0.27094195534767906,-6.328745310160338,-6.887745310160338
1621784858742.916,0.0,0.049,0.037,-0.2768209364537241,-6.32255690899608,-6.88155690899608
1621784858747.404,0.002,0.052,0.038,-0.2826973602301596,-6.316371199757727,-6.875371199757726
1621784858748.399,0.0015562452357617336,0.05089061308940433,0.03844375476423827,-0.284,-6.315,-6.874
1621784858751.888,0.0,0.047,0.04,-0.284,-6.310422176889099,-6.869422176889098
1621784858756.369,0.0,0.051,0.035,-0.284,-6.304542856661159,-6.86354285666116
1621784858760.848,0.0,0.049,0.04,-0.284,-6.298666099065988,-6.857666099065988
1621784858762.88,-0.0022698265517617543,0.05126982655176175,0.03863810406894295,-0.284,-6.296,-6.855
1621784858765.324,-0.005,0.054,0.037,-0.284,-6.296,-6.858213858475264
1621784858769.797,-0.009,0.061,0.038,-0.284,-6.296,-6.864095819816167
1621784858774.267,-0.005,0.059,0.038,-0.284,-6.296,-6.869973607731819
1621784858777.329,-0.008427525142107564,0.059,0.03937101005684303,-0.284,-6.296,-6.874
1621784858778.734,-0.01,0.059,0.04,-0.28594852692177447,-6.296,-6.877897053843548
1621784858783.198,-0.017,0.065,0.04,-0.2921405350491026,-6.296,-6.8902810700982045
1621784858787.659,-0.014,0.052,0.037,-0.29832814087368775,-6.296,-6.902656281747375
1621784858791.748,-0.012165498357064623,0.04924824753559694,0.039751752464403066,-0.304,-6.296,-6.914
1621784858792.117,-0.012,0.049,0.04,-0.3030001357381611,-6.296,-6.914999864261839
1621784858796.573,-0.017,0.052,0.037,-0.2909223577718581,-6.296,-6.9270776422281415
1621784858801.026,-0.019,0.056,0.037,-0.278853182211514,-6.296,-6.939146817788486
1621784858805.475,-0.017,0.052,0.035,-0.2667939325041994,-6.296,-6.951206067495801
1621784858806.137,-0.017,0.05333950041174856,0.035,-0.265,-6.296,-6.953
1621784858809.922,-0.017,0.061,0.035,-0.2700085182351441,-6.290727875541954,-6.960644580464168
1621784858814.365,-0.017,0.061,0.037,-0.275887324662076,-6.284539658250447,-6.969617495536853
1621784858818.806,-0.014,0.058,0.037,-0.28176354671427356,-6.278354161353396,-6.978586466037576
1621784858820.496,-0.014761689954890527,0.05723831004510947,0.037,-0.284,-6.276,-6.982
1621784858823.244,-0.016,0.056,0.037,-0.28783586387880644,-6.276,-6.978355929315134
1621784858827.679,-0.016,0.056,0.037,-0.2940270947293083,-6.276,-6.972474260007157
1621784858832.111,-0.014,0.063,0.037,-0.30021423580934853,-6.276,-6.966596475981119
1621784858834.823,-0.015224629292762252,0.05626453888980762,0.0345507414144755,-0.304,-6.276,-6.963
1621784858836.54,-0.016,0.052,0.033,-0.304,-6.276,-6.961799112097669
1621784858840.967,-0.021,0.056,0.037,-0.304,-6.276,-6.958702894220098
1621784858845.389,-0.017,0.058,0.037,-0.304,-6.276,-6.9556102621019384
1621784858849.121,-0.022909161190568225,0.058,0.035311668231266226,-0.304,-6.276,-6.953
1621784858849.81,-0.024,0.058,0.035,-0.30211663843113096,-6.2750824648767045,-6.953482913222787
1621784858854.227,-0.03,0.063,0.035,-0.29004230196622005,-6.269200095829697,-6.956578896931739
1621784858858.642,-0.028,0.056,0.035,-0.27797330458442426,-6.263320327874463,-6.959673511645019
1621784858863.053,-0.031,0.058,0.037,-0.26591565275424817,-6.2574460872392486,-6.9627652172425005
1621784858863.388,-0.030468187607287225,0.05807597319895897,0.037379865994794835,-0.265,-6.257,-6.963
1621784858867.462,-0.024,0.059,0.042,-0.2704369030266655,-6.273596861870874,-6.974159958844208
1621784858871.868,-0.03,0.052,0.038,-0.27631691674526276,-6.2915463774329075,-6.986229460687644
1621784858876.27,-0.03,0.059,0.035,-0.28219171739689614,-6.309479979422105,-6.998288262025207
1621784858877.625,-0.0287681722339363,0.05961591388303185,0.035615913883031855,-0.284,-6.315,-7.002
1621784858880.67,-0.026,0.061,0.037,-0.27992663515255695,-6.315,-6.993638882681564
1621784858885.067,-0.023,0.058,0.037,-0.274044555221315,-6.315,-6.981565139664804
1621784858889.461,-0.021,0.059,0.037,-0.2681663944993554,-6.315,-6.9694994413407825
1621784858891.828,-0.022616731517509727,0.059,0.03592217898832685,-0.265,-6.315,-6.963
1621784858893.853,-0.024,0.059,0.035,-0.265,-6.315,-6.958713990458311
1621784858898.241,-0.023,0.058,0.038,-0.265,-6.315,-6.949427378102341
1621784858902.627,-0.019,0.061,0.038,-0.265,-6.315,-6.940144899330015
1621784858906.003,-0.02285202518246142,0.05868878489052315,0.037229594963507716,-0.265,-6.315,-6.933
1621784858907.009,-0.024,0.058,0.037,-0.26357744485484486,-6.313648572612103,-6.933
1621784858911.388,-0.024,0.054,0.042,-0.2573859988263316,-6.307766698885016,-6.933
1621784858915.765,-0.026,0.058,0.038,-0.251197314370534,-6.301887448652008,-6.933
1621784858920.138,-0.026,0.056,0.042,-0.24501415306016777,-6.2960134454071595,-6.933
1621784858920.148,-0.0259954200178731,0.056,0.0420045799821269,-0.245,-6.296,-6.933
1621784858924.509,-0.024,0.056,0.044,-0.2511797927730017,-6.301870803134352,-6.927129196865648
1621784858928.877,-0.033,0.059,0.04,-0.25736927228382145,-6.30775080866963,-6.92124919133037
1621784858933.242,-0.028,0.058,0.042,-0.2635546003355763,-6.313626870318798,-6.915373129681202
1621784858934.262,-0.029169194604578272,0.05963687244640958,0.042,-0.265,-6.315,-6.914
1621784858937.604,-0.033,0.065,0.042,-0.265,-6.315,-6.918508268044096
1621784858941.962,-0.028,0.065,0.038,-0.265,-6.315,-6.924386899396796
1621784858946.319,-0.024,0.066,0.04,-0.265,-6.315,-6.9302645427442275
1621784858948.347,-0.02586337633202468,0.0646024677509815,0.03906831183398766,-0.265,-6.315,-6.933
1621784858950.672,-0.028,0.063,0.038,-0.265,-6.315,-6.941106235886746
1621784858955.022,-0.024,0.059,0.038,-0.265,-6.315,-6.956270957095709
1621784858959.37,-0.021,0.059,0.038,-0.265,-6.315,-6.971429720340455
1621784858962.402,-0.01611530033151655,0.060395628476709554,0.03730218576164522,-0.265,-6.315,-6.982
1621784858963.715,-0.014,0.061,0.037,-0.2667787487379452,-6.313221251262055,-6.982
1621784858968.056,-0.016,0.059,0.04,-0.2726594018730634,-6.307340598126937,-6.982
1621784858972.394,-0.012,0.059,0.033,-0.2785364168088291,-6.301463583191171,-6.982
1621784858976.427,-0.005489132882882883,0.054349380630630634,0.03486024774774775,-0.284,-6.296,-6.982
1621784858976.73,-0.005,0.054,0.035,-0.28362774506243976,-6.295235897759745,-6.981431821411093
1621784858981.086,-0.01,0.052,0.033,-0.27827579293032945,-6.28425031180436,-6.973263052367345
1621784858986.084,-0.007,0.052,0.03,-0.2721349362971851,-6.27164539555738,-6.963890165927283
1621784858991.081,-0.012,0.047,0.028,-0.2659952795187951,-6.259042942170158,-6.954519110844477
1621784858991.891,-0.012324150058616647,0.045379249706916765,0.027675849941383352,-0.265,-6.257,-6.953
1621784858996.079,-0.014,0.037,0.026,-0.2598132918090285,-6.246626583618057,-6.9478132918090285
1621784859001.076,-0.023,0.045,0.024,-0.2536248601578327,-6.234249720315665,-6.941624860157833
1621784859006.072,-0.028,0.042,0.026,-0.24743733559096542,-6.22187467118193,-6.935437335590965
1621784859008.04,-0.029181733776387803,0.042,0.02521217748240813,-0.245,-6.217,-6.933
1621784859011.068,-0.031,0.042,0.024,-0.245,-6.224500831544253,-6.925686689244353
1621784859016.065,-0.04,0.031,0.023,-0.245,-6.236878443349157,-6.913618517734571
1621784859021.061,-0.044,0.038,0.026,-0.245,-6.2492542408756915,-6.901552115146201
1621784859024.188,-0.04462575727965604,0.03737424272034395,0.020368184483095565,-0.245,-6.257,-6.894
1621784859026.058,-0.045,0.037,0.017,-0.24048280763298757,-6.254683491093839,-6.901991955726253
1621784859031.054,-0.052,0.037,0.016,-0.22841553512565396,-6.248495146218284,-6.92334174554692
1621784859036.05,-0.054,0.037,0.017,-0.21634767290652313,-6.242306498926422,-6.944692578703844
1621784859040.334,-0.051426497188951356,0.037,0.017,-0.206,-6.237,-6.963
1621784859041.044,-0.051,0.037,0.017,-0.20428491062517012,-6.234405377612437,-6.9616807004809
1621784859046.04,-0.049,0.031,0.014,-0.19221558842210326,-6.216146659407797,-6.9523966064785405
1621784859051.035,-0.059,0.031,0.012,-0.18014921513474277,-6.197892402383329,-6.943114780872879
1621784859056.03,-0.066,0.033,0.014,-0.168082252064241,-6.179637253122826,-6.933832501587878
1621784859056.478,-0.06680722420450658,0.032372158952050444,0.013820616843442983,-0.167,-6.178,-6.933
1621784859061.025,-0.075,0.026,0.012,-0.15573355312906445,-6.205602794833792,-6.938633223435468
1621784859066.02,-0.075,0.031,0.012,-0.14335643204984727,-6.235926741477874,-6.944821783975076
1621784859071.015,-0.079,0.031,0.01,-0.13097991591300928,-6.266249206013127,-6.951010042043496
1621784859072.621,-0.07932168003129278,0.0329300801877567,0.010643360062585566,-0.127,-6.276,-6.953
1621784859076.008,-0.08,0.037,0.012,-0.13119675404232148,-6.284183670382527,-6.959085293361366
1621784859081.003,-0.073,0.03,0.014,-0.13738585452180357,-6.296252416317517,-6.968059489056616
1621784859085.997,-0.073,0.033,0.009,-0.14357404746419009,-6.308319392555171,-6.9770323688230755
1621784859088.762,-0.07133903691029088,0.03189269127352726,0.009,-0.147,-6.315,-6.982
1621784859090.991,-0.07,0.031,0.009,-0.15238643067846608,-6.312375841464338,-6.979375841464337
1621784859095.985,-0.065,0.03,0.009,-0.16445486725663716,-6.306496346721126,-6.9734963467211255
1621784859100.978,-0.059,0.026,0.007,-0.17652035398230087,-6.300618289085546,-6.967618289085546
1621784859104.901,-0.05821447078953801,0.02050129552676607,0.0038578831581520413,-0.186,-6.296,-6.963
1621784859105.972,-0.058,0.019,0.003,-0.183411525310902,-6.293411525310902,-6.959747813852159
1621784859110.965,-0.054,0.026,0.003,-0.17134417077672545,-6.281344170776726,-6.944586265847681
1621784859115.957,-0.058,0.023,0.002,-0.1592797664074556,-6.269279766407456,-6.929428424460649
1621784859120.95,-0.061,0.023,0.003,-0.1472130019062604,-6.25721300190626,-6.91426761777966
1621784859121.038,-0.061070604341873655,0.023052953256405242,0.003,-0.147,-6.257,-6.914
1621784859125.943,-0.065,0.026,0.003,-0.129064049993191,-6.250920016946845,-6.914
1621784859130.936,-0.063,0.017,0.003,-0.11080671518709619,-6.244731089893931,-6.914
1621784859135.928,-0.072,0.021,0.003,-0.09255295132321566,-6.238543373329904,-6.914
1621784859137.173,-0.07274827603071354,0.021,0.004496552061427104,-0.088,-6.237,-6.914
1621784859140.92,-0.075,0.021,0.009,-0.0835878739275825,-6.237,-6.92979076699602
1621784859145.912,-0.079,0.028,0.003,-0.0777092557006461,-6.237,-6.950830032229266
1621784859150.904,-0.08,0.021,0.01,-0.07183092496482017,-6.237,-6.9718682685469595
1621784859153.308,-0.08289008462554419,0.023408403854620164,0.008554957687227902,-0.069,-6.237,-6.982
1621784859155.895,-0.086,0.026,0.007,-0.078301489284417,-6.246461859789321,-6.98841482019615
1621784859160.887,-0.084,0.023,0.009,-0.09625048432013561,-6.26472032025669,-7.000793437462162
1621784859165.878,-0.08,0.019,0.0,-0.11419596803487106,-6.282975208863059,-7.0131696331274975
1621784859169.439,-0.07500552756444749,0.019,0.0071349606222178745,-0.127,-6.296,-7.022
1621784859170.869,-0.073,0.019,0.01,-0.127,-6.294227005100728,-7.023684345154309
1621784859175.86,-0.077,0.017,0.005,-0.127,-6.288038323570812,-7.029563592607729
1621784859180.851,-0.068,0.017,0.007,-0.127,-6.281849944754726,-7.03544255248301
1621784859185.569,-0.06610937729296092,0.018890622707039083,0.007,-0.127,-6.276,-7.041
1621784859185.842,-0.066,0.019,0.007,-0.127,-6.2753398837279715,-7.040678404893115
1621784859190.832,-0.063,0.023,0.003,-0.127,-6.263271801005269,-7.034799082541029
1621784859195.822,-0.056,0.012,0.005,-0.127,-6.251203718282565,-7.028919760188942
1621784859200.812,-0.056,0.017,0.009,-0.127,-6.239135635559862,-7.0230404378368565
1621784859201.695,-0.055292137580116446,0.016115171975145556,0.007938206370174665,-0.127,-6.237,-7.022
1621784859205.802,-0.052,0.012,0.003,-0.127,-6.231906437352389,-7.022
1621784859210.792,-0.052,0.019,0.009,-0.127,-6.2257176769817715,-7.022
1621784859215.782,-0.056,0.014,0.005,-0.127,-6.2195289166111545,-7.022
1621784859217.821,-0.054365157817470026,0.017678394910692438,0.006634842182529973,-0.127,-6.217,-7.022
1621784859220.771,-0.052,0.023,0.009,-0.11986480225304343,-6.213523878020713,-7.01834092423233
1621784859225.761,-0.056,0.021,0.003,-0.10779525770698323,-6.207643843498274,-7.012151414208709
1621784859230.749,-0.054,0.019,0.007,-0.09573043728423475,-6.201766110471807,-7.005964326812428
1621784859233.945,-0.05848431612429655,0.02348431612429655,0.005718766821629557,-0.088,-6.198,-7.002
1621784859235.738,-0.061,0.026,0.005,-0.088,-6.2001129012719565,-7.004224106602059
1621784859240.727,-0.056,0.03,0.012,-0.088,-6.20599214112659,-7.010412780133253
1621784859245.716,-0.052,0.023,0.009,-0.088,-6.211871380981223,-7.016601453664446
1621784859250.068,-0.05548999070040625,0.021255004649796877,0.011617493025304685,-0.088,-6.217,-7.022
1621784859250.704,-0.056,0.021,0.012,-0.08878911894339851,-6.216250337003771,-7.024288444935856
1621784859255.692,-0.054,0.026,0.01,-0.09497787134786362,-6.21037102221953,-7.042235826908804
1621784859260.68,-0.054,0.028,0.014,-0.10116692667706707,-6.204491419656787,-7.060184087363495
1621784859265.668,-0.054,0.024,0.016,-0.10735598200627054,-6.198611817094044,-7.078132347818185
1621784859266.187,-0.053687766191804966,0.023687766191804963,0.015791844127869978,-0.108,-6.198,-7.08
1621784859270.655,-0.051,0.021,0.014,-0.1024561743634794,-6.187189540008785,-7.091087651273042
1621784859275.643,-0.051,0.024,0.019,-0.09626711903427593,-6.175120882116838,-7.1034657619314485
1621784859280.63,-0.049,0.024,0.019,-0.09007957832876422,-6.16305517774109,-7.115840843342472
1621784859282.306,-0.04664793695854339,0.02366399099407763,0.019672018011844747,-0.088,-6.159,-7.12
1621784859285.618,-0.042,0.023,0.021,-0.07998518451190692,-6.1548898382112345,-7.12
1621784859290.605,-0.04,0.03,0.021,-0.0679168787493183,-6.148700963461189,-7.12
1621784859295.592,-0.042,0.033,0.024,-0.05584857298672968,-6.142512088711143,-7.12
1621784859298.422,-0.042,0.036972389484505805,0.024,-0.049,-6.139,-7.12
1621784859300.579,-0.042,0.04,0.024,-0.049,-6.141677516137831,-7.12254364033094
1621784859305.564,-0.04,0.035,0.03,-0.049,-6.147865351395581,-7.128422083825803
1621784859310.551,-0.038,0.049,0.033,-0.049,-6.154055914174016,-7.134303118465315
1621784859314.534,-0.042792831611418496,0.0474023894628605,0.0314023894628605,-0.049,-6.159,-7.139
1621784859315.537,-0.044,0.047,0.031,-0.050245170381369414,-6.160182911862301,-7.141428082243671
1621784859320.523,-0.035,0.045,0.031,-0.056433748996196915,-6.166062061546387,-7.1534958105425845
1621784859325.509,-0.033,0.049,0.031,-0.06262263064591889,-6.171941499113623,-7.165564129759542
1621784859330.495,-0.03,0.049,0.035,-0.06881151229564085,-6.177820936680859,-7.1776324489764995
1621784859330.647,-0.02981722009991184,0.04893907336663728,0.03506092663336272,-0.069,-6.178,-7.178
1621784859335.48,-0.024,0.047,0.037,-0.069,-6.1723000287935506,-7.195699910588449
1621784859340.466,-0.016,0.044,0.037,-0.069,-6.1664195220270654,-7.213960431600164
1621784859345.45,-0.01,0.056,0.037,-0.069,-6.160541606680104,-7.23221290557231
1621784859346.757,-0.009213379695381753,0.05495117292717567,0.03883544737744257,-0.069,-6.159,-7.237
1621784859350.435,-0.007,0.052,0.044,-0.07790501379247629,-6.154433326260269,-7.237
1621784859355.42,-0.003,0.052,0.04,-0.08997421867895358,-6.148243990421049,-7.237
1621784859360.405,0.005,0.049,0.042,-0.10204401467155719,-6.142054351450484,-7.237
1621784859362.865,0.008455079847163711,0.050480748505927306,0.04002566865876359,-0.108,-6.139,-7.237
1621784859365.389,0.012,0.052,0.038,-0.11411002167093519,-6.134456650552382,-7.234023322775698
1621784859370.374,0.012,0.054,0.042,-0.12617817145801447,-6.125482898146605,-7.228143967751223
1621784859375.358,0.016,0.061,0.04,-0.1382433661175686,-6.116511343143347,-7.222266052404262
1621784859378.975,0.01817722263041881,0.05446833210874357,0.03854851824638746,-0.147,-6.11,-7.218
1621784859380.342,0.019,0.052,0.038,-0.14869743822949824,-6.106605123541004,-7.214605123541004
1621784859385.325,0.026,0.045,0.038,-0.15488509928755495,-6.09422980142489,-7.20222980142489
1621784859390.308,0.033,0.044,0.038,-0.16107306351371836,-6.081853872972563,-7.189853872972563
1621784859395.081,0.030126971686097775,0.044957676104634074,0.0418307044185363,-0.167,-6.07,-7.178
1621784859395.292,0.03,0.045,0.042,-0.16647609374526273,-6.07,-7.178
1621784859400.275,0.028,0.047,0.038,-0.1541000212230543,-6.07,-7.178
1621784859405.259,0.026,0.047,0.042,-0.1417209168359458,-6.07,-7.178
1621784859410.241,0.026,0.045,0.042,-0.12934726980565747,-6.07,-7.178
1621784859411.186,0.026,0.048034442212532454,0.042,-0.127,-6.07,-7.178
1621784859415.224,0.026,0.061,0.042,-0.127,-6.065235741790728,-7.168220733149389
1621784859420.207,0.019,0.058,0.044,-0.127,-6.059356750856554,-7.156153330705558
1621784859425.188,0.016,0.056,0.047,-0.127,-6.053480064279434,-7.1440906582577846
1621784859427.29,0.01304703576678099,0.055156295933366,0.04573444390004899,-0.127,-6.051,-7.139
1621784859430.171,0.009,0.054,0.044,-0.11304481911635382,-6.040444158049549,-7.135600661066804
1621784859435.153,0.0,0.056,0.044,-0.0889106346847803,-6.0221888134154105,-7.12972182126937
1621784859440.135,-0.007,0.056,0.042,-0.06477763289565455,-6.003934363344149,-7.1238432695515055
1621784859443.392,-0.014845339605998237,0.05796133490149956,0.047884004704498676,-0.049,-5.992,-7.12
1621784859445.117,-0.019,0.059,0.051,-0.04482174539388885,-5.992,-7.122035559936311
1621784859450.098,-0.037,0.061,0.049,-0.032755963302752295,-5.992,-7.12791376146789
1621784859455.08,-0.042,0.063,0.052,-0.020687224201986508,-5.992,-7.133793403593904
1621784859459.492,-0.04997171845897461,0.05857126752279188,0.05111425350455837,-0.01,-5.992,-7.139
1621784859460.061,-0.051,0.058,0.051,-0.010671676423306744,-5.992,-7.140378704237314
1621784859465.041,-0.061,0.056,0.056,-0.0165493493888198,-5.992,-7.1524434013770515
1621784859470.022,-0.073,0.059,0.052,-0.022428174952227854,-5.992,-7.164510464375626
1621784859475.003,-0.075,0.059,0.054,-0.0283070005156359,-5.992,-7.1765775273742
1621784859475.59,-0.07558940299970592,0.058174835800411724,0.05317483580041173,-0.029,-5.992,-7.178
1621784859479.984,-0.08,0.052,0.047,-0.03445984072810011,-6.0187532195676905,-7.194106530147895
1621784859484.964,-0.087,0.054,0.047,-0.04064838832006068,-6.0490771027682975,-7.212362745544179
1621784859489.944,-0.086,0.054,0.044,-0.046836632536973836,-6.0793994994311715,-7.230618065984073
1621784859491.685,-0.08634952455641604,0.05295142633075189,0.04190285266150377,-0.049,-6.09,-7.237
1621784859494.925,-0.087,0.051,0.038,-0.053026090254076605,-6.111740887372013,-7.241026090254077
1621784859499.904,-0.079,0.056,0.031,-0.05921312097080016,-6.145150853242321,-7.2472131209708
1621784859504.883,-0.07,0.052,0.031,-0.06540015168752371,-6.178560819112628,-7.253400151687523
1621784859507.78,-0.07174517109520541,0.053163447396803606,0.026927934111187372,-0.069,-6.198,-7.257
1621784859509.863,-0.073,0.054,0.024,-0.07404829092895181,-6.1954111328569486,-7.251951709071048
1621784859514.842,-0.066,0.044,0.017,-0.08611519730553913,-6.1892229757407495,-7.239884802694461
1621784859519.821,-0.051,0.031,0.014,-0.09818210368212643,-6.1830348186245505,-7.227817896317873
1621784859523.872,-0.03961153054221002,0.02530576527110501,0.009932689479360721,-0.108,-6.178,-7.218
1621784859524.801,-0.037,0.024,0.009,-0.10909697438698714,-6.1757483157319735,-7.200448409808206
1621784859529.779,-0.026,0.007,0.005,-0.11497537327021122,-6.163682128550619,-7.10639402767662
1621784859534.758,-0.023,0.0,-0.007,-0.12085492534595776,-6.151613574289876,-7.0123211944646755
1621784859539.737,-0.016,0.005,-0.019,-0.1267344774217043,-6.139545020029134,-6.918248361252731
1621784859539.962,-0.015683815595880335,0.0044579695929377145,-0.019,-0.127,-6.139,-6.914
1621784859544.715,-0.009,-0.007,-0.019,-0.06909611386777136,-6.144908559809411,-6.85018755405836
1621784859549.692,-0.01,-0.021,-0.016,-0.008467898817923855,-6.1510951123655175,-6.783372786452406
1621784859554.67,-0.014,-0.017,-0.019,0.052175187022958674,-6.157283182349281,-6.71654163062776
1621784859556.051,-0.017329279058361943,-0.01866463952918097,-0.019554879843060324,0.069,-6.159,-6.698
1621784859559.648,-0.026,-0.023,-0.021,0.0732485278047596,-6.154527865468674,-6.676086540796503
1621784859564.626,-0.044,-0.026,-0.016,0.07912835417678485,-6.148338574550753,-6.6457590152986885
1621784859569.603,-0.056,-0.026,-0.017,0.0850070270762506,-6.142150497814473,-6.615437439290917
1621784859572.137,-0.06668950465914664,-0.02498195193722413,-0.017,0.088,-6.139,-6.6
1621784859574.581,-0.077,-0.024,-0.017,0.10289099022524437,-6.131554504887378,-6.632820958047477
1621784859579.558,-0.093,-0.023,-0.014,0.1332144071398215,-6.116392796430089,-6.699656244308178
1621784859584.534,-0.11,-0.016,-0.023,0.1635303867403315,-6.101234806629834,-6.766475138121547
1621784859588.222,-0.11889198469537918,-0.009331011478465615,-0.021518002550770136,0.186,-6.09,-6.816
1621784859589.511,-0.122,-0.007,-0.021,0.20563927855711422,-6.103386773547094,-6.830909819639278
1621784859594.487,-0.119,-0.005,-0.026,0.2814513572599745,-6.155062761887411,-6.888465112042266
1621784859599.464,-0.117,-0.002,-0.023,0.3572783142041659,-6.20674889172284,-6.946031699763163
1621784859604.303,-0.11311010254648939,0.0018898974535106225,-0.02105505127324469,0.431,-6.257,-7.002
1621784859604.44,-0.113,0.002,-0.021,0.43117036137260856,-6.25799661402976,-7.002
1621784859609.416,-0.112,0.021,-0.019,0.4373598542362587,-6.294205147282113,-7.002
1621784859614.392,-0.112,0.016,-0.012,0.4435493470999089,-6.330413680534467,-7.002
1621784859619.368,-0.101,0.028,-0.014,0.4497385362890981,-6.366620437291224,-7.002
1621784859620.382,-0.09998076356855433,0.027184610854843458,-0.01318461085484346,0.451,-6.374,-7.002
1621784859624.343,-0.096,0.024,-0.01,0.42931641936120774,-6.374,-7.035757392585392
1621784859629.318,-0.089,0.03,-0.005,0.40208096532661025,-6.374,-7.078158042616527
1621784859634.293,-0.077,0.031,-0.012,0.3748468478046262,-6.374,-7.1205566119405255
1621784859636.457,-0.07004170346384064,0.03056510646649004,-0.01286978706701992,0.363,-6.374,-7.139
1621784859639.269,-0.061,0.03,-0.014,0.33903441519979344,-6.367177680239357,-7.128679054721079
1621784859644.244,-0.049,0.03,-0.019,0.29663584587579545,-6.355108014519387,-7.110419816837021
1621784859649.218,-0.044,0.023,-0.021,0.2542435186732075,-6.343040125753687,-7.092163267165834
1621784859652.532,-0.038005005397978214,0.019003336931985474,-0.02433055255667877,0.226,-6.335,-7.08
1621784859654.193,-0.035,0.017,-0.026,0.23199353006393997,-6.330969867715627,-7.060779369105296
1621784859659.167,-0.03,0.003,-0.03,0.2499397658065398,-6.3189025712680165,-7.003227647585924
1621784859664.141,-0.023,0.014,-0.037,0.26788688243245296,-6.306834682502316,-6.945673101164893
1621784859668.607,-0.023,0.012204289991655622,-0.037,0.284,-6.296,-6.894
1621784859669.115,-0.023,0.012,-0.037,0.28709752578259085,-6.295367851881104,-6.884707422652228
1621784859674.089,-0.028,0.003,-0.042,0.3174238065584228,-6.289178814988077,-6.793728580324731
1621784859679.062,-0.035,0.003,-0.042,0.3477426449368915,-6.282991296951654,-6.7027720651893254
1621784859684.036,-0.049,-0.005,-0.042,0.3780674372332508,-6.276802563829949,-6.611797688300247
1621784859684.681,-0.050167304860088364,-0.005,-0.04225940108001964,0.382,-6.276,-6.6
1621784859689.009,-0.058,-0.005,-0.044,0.40058139782169494,-6.270883383208519,-6.570916072974738
1621784859693.983,-0.072,-0.007,-0.042,0.42193512175115067,-6.265003372271422,-6.537492852911242
1621784859698.956,-0.075,-0.01,-0.044,0.4432857012653613,-6.259124227187799,-6.504074554541173
1621784859700.753,-0.07752983059170145,-0.01,-0.04436140437024306,0.451,-6.257,-6.492
1621784859703.928,-0.082,-0.01,-0.045,0.451,-6.25304921394395,-6.488049213943951
1621784859708.9,-0.093,-0.012,-0.044,0.451,-6.246862535125693,-6.4818625351256935
1621784859713.873,-0.096,-0.014,-0.04,0.451,-6.240674337358548,-6.475674337358548
1621784859716.826,-0.10550257795236927,-0.014,-0.04,0.451,-6.237,-6.472
1621784859718.845,-0.112,-0.014,-0.04,0.4484870478129416,-6.246800513529528,-6.49047019857488
1621784859723.817,-0.122,-0.026,-0.037,0.4422988650693569,-6.270934426229508,-6.535953341740227
1621784859728.789,-0.122,-0.028,-0.033,0.4361103784621462,-6.29506952399763,-6.581438718303225
1621784859732.895,-0.12365165725509453,-0.032129143137736314,-0.03465165725509453,0.431,-6.315,-6.619
1621784859733.761,-0.124,-0.033,-0.035,0.4299759459048777,-6.316077951679077,-6.63274388390822
1621784859738.733,-0.126,-0.037,-0.031,0.42409636833308006,-6.322266980702021,-6.711654003950767
1621784859743.705,-0.126,-0.054,-0.024,0.41821650205135996,-6.328456313630148,-6.790567998784379
1621784859748.676,-0.122,-0.052,-0.031,0.41233807931925237,-6.334644127032366,-6.869462619662665
1621784859748.962,-0.122,-0.052402662474824384,-0.030827430367932406,0.412,-6.335,-6.874
1621784859753.646,-0.122,-0.059,-0.028,0.4292014223410883,-6.3236295682830095,-6.905487349370127
1621784859758.617,-0.115,-0.077,-0.024,0.44745630404060355,-6.311562782074855,-6.938903065023478
1621784859763.588,-0.119,-0.075,-0.021,0.4657111857401188,-6.299495995866701,-6.972318780676828
1621784859765.028,-0.119,-0.07615882526274433,-0.020420587368627837,0.471,-6.296,-6.982
1621784859768.559,-0.119,-0.079,-0.019,0.48814615314466364,-6.2874269234276685,-6.9993659756208775
1621784859773.529,-0.119,-0.077,-0.005,0.5122797519530656,-6.275360124023467,-7.023808979542207
1621784859778.499,-0.12,-0.07,0.007,0.5364133507614677,-6.263293324619266,-7.048251983463538
1621784859781.091,-0.12312924301223166,-0.0746938645183475,0.008564621506115833,0.549,-6.257,-7.061
1621784859783.469,-0.126,-0.079,0.01,0.5577342310849014,-6.254039243700033,-7.063812718484968
1621784859788.439,-0.127,-0.077,0.021,0.5759891327476669,-6.247851141441469,-7.069691415630604
1621784859793.409,-0.129,-0.075,0.026,0.5942440344104326,-6.241663039182904,-7.075570112776241
1621784859797.154,-0.13276848621824794,-0.075,0.03127588070554709,0.608,-6.237,-7.08
1621784859798.378,-0.134,-0.075,0.033,0.6199643823538353,-6.237,-7.086020294305433
1621784859803.347,-0.129,-0.08,0.044,0.6685402997780547,-6.237,-7.110462953391505
1621784859808.317,-0.131,-0.077,0.056,0.7171257638867775,-6.237,-7.134910416223283
1621784859813.214,-0.131,-0.07502889008991304,0.06979776937060876,0.765,-6.237,-7.159
1621784859813.286,-0.131,-0.075,0.07,0.7642088242896021,-6.236825673148556,-7.159
1621784859818.255,-0.129,-0.063,0.08,0.7094373983245404,-6.22475739285117,-7.159
1621784859823.223,-0.126,-0.056,0.093,0.6546767366548584,-6.212691484347681,-7.159
1621784859828.192,-0.127,-0.058,0.098,0.5999053106897967,-6.200623204050294,-7.159
1621784859829.272,-0.12634778121775025,-0.057565187478500174,0.0995218438252494,0.588,-6.198,-7.159
1621784859833.16,-0.124,-0.056,0.105,0.5429635091987228,-6.198,-7.135271096244488
1621784859838.129,-0.124,-0.051,0.112,0.48540447012315646,-6.198,-7.10494429071005
1621784859843.096,-0.12,-0.045,0.119,0.42786805534438194,-6.198,-7.074629405504029
1621784859845.329,-0.11550493881763231,-0.04994456730060445,0.119,0.402,-6.198,-7.061
1621784859848.064,-0.11,-0.056,0.119,0.37201761029244035,-6.172957890414709,-7.050949085268488
1621784859853.031,-0.103,-0.054,0.119,0.3175637878857004,-6.127476572836352,-7.032694678893502
1621784859857.999,-0.096,-0.047,0.119,0.2630992593944371,-6.081986313244218,-7.0144366835469985
1621784859861.383,-0.09259351191939051,-0.05176908331285328,0.11627480953551242,0.226,-6.051,-7.002
1621784859862.966,-0.091,-0.054,0.115,0.1892201590705172,-6.022009991331721,-6.99716833188862
1621784859867.934,-0.089,-0.058,0.106,0.07379249357482853,-5.931029472147452,-6.982004912024576
1621784859872.901,-0.091,-0.066,0.098,-0.04160680992137719,-5.840071307997627,-6.966845217999604
1621784859877.437,-0.08917350700417792,-0.0742192184811993,0.08064831653969035,-0.147,-5.757,-6.953
1621784859877.868,-0.089,-0.075,0.079,-0.1620088230372545,-5.745669546830552,-6.948247653528455
1621784859882.834,-0.084,-0.086,0.056,-0.33498019380257693,-5.615090086252795,-6.893478543286125
1621784859887.8,-0.086,-0.106,0.031,-0.5079515645678994,-5.484510625675038,-6.838709433043796
1621784859892.766,-0.087,-0.124,-0.003,-0.6809229353332218,-5.353931165097282,-6.783940322801466
1621784859893.486,-0.08801489675516223,-0.12602979351032448,-0.007929498525073745,-0.706,-5.335,-6.776
1621784859897.732,-0.094,-0.138,-0.037,-0.8435514487793748,-5.228662149212868,-6.685268948208989
1621784859902.698,-0.108,-0.148,-0.072,-1.0044354703779754,-5.10428642482318,-6.579147372423758
1621784859907.664,-0.124,-0.176,-0.11,-1.1653194919765761,-4.979910700433493,-6.473025796638527
1621784859909.537,-0.13192094395280235,-0.18052625368731562,-0.12584188790560472,-1.226,-4.933,-6.433
1621784859912.63,-0.145,-0.188,-0.152,-1.3090682205452775,-4.963259189386562,-6.336633154819864
1621784859917.595,-0.175,-0.187,-0.185,-1.4424245831304772,-5.011836797103213,-6.181927397760467
1621784859922.561,-0.216,-0.197,-0.218,-1.5758071750243428,-5.060423959347614,-6.027191212268744
1621784859925.584,-0.23731467637222114,-0.197,-0.23200678733031674,-1.657,-5.09,-5.933
1621784859927.525,-0.251,-0.197,-0.241,-1.6534921489866716,-5.199106262552492,-5.944854117217455
1621784859932.49,-0.304,-0.199,-0.251,-1.6445186689793683,-5.478212433814131,-5.975178291035238
1621784859937.455,-0.365,-0.187,-0.26,-1.635545188972065,-5.757318605075771,-6.005502464853022
1621784859941.63,-0.41209817037182767,-0.18363584497344088,-0.25411272870352153,-1.628,-5.992,-6.031
1621784859942.419,-0.421,-0.183,-0.253,-1.5956903272926461,-6.039259658252309,-6.101422300330183
1621784859947.384,-0.463,-0.176,-0.237,-1.3923853106313049,-6.336635793734119,-6.544546781089758
1621784859952.348,-0.501,-0.185,-0.209,-1.1891302779933355,-6.6339388171208595,-6.987562316458971
1621784859957.312,-0.536,-0.215,-0.182,-0.9858652485506915,-6.931256462926615,-7.430599640906255
1621784859957.675,-0.5373895829234704,-0.21807170962030298,-0.18017160141648633,-0.971,-6.953,-7.463
1621784859962.276,-0.555,-0.257,-0.157,-0.9371535768645357,-7.166691400304415,-7.882064611872146
1621784859967.239,-0.553,-0.309,-0.138,-0.9006418264840182,-7.397210502283105,-8.334129589041096
1621784859972.203,-0.492,-0.34,-0.12,-0.8641246879756469,-7.627763622526636,-8.786261278538813
1621784859973.715,-0.46702542164527705,-0.3527918572060776,-0.1163451836554064,-0.853,-7.698,-8.924
1621784859977.168,-0.41,-0.382,-0.108,-0.7840399583358493,-7.823750664211099,-9.009826429563432
1621784859982.182,-0.283,-0.415,-0.096,-0.6839033270937745,-8.006352756476058,-9.134454682688244
1621784859987.197,-0.15,-0.452,-0.084,-0.5837423162852485,-8.18899930559749,-9.259113278183685
1621784859989.888,-0.08613390465988216,-0.46595393679700053,-0.07916979110873058,-0.53,-8.287,-9.326
1621784859992.211,-0.031,-0.478,-0.075,-0.4273737647625934,-8.271520065075922,-9.153140726681128
1621784859997.225,0.082,-0.506,-0.066,-0.20585641118341774,-8.2381068329718,-8.780026301518438
1621784860002.24,0.173,-0.524,-0.038,0.015693299590262666,-8.204688720173536,-8.40685737527115
1621784860006.095,0.21067395432633784,-0.5140048692603594,-0.014165457467010763,0.186,-8.179,-8.12
1621784860007.254,0.222,-0.511,-0.007,0.21896527777777777,-8.15375760725476,-8.000795839358881
1621784860012.268,0.243,-0.494,0.04,0.36159027777777775,-8.044545839358882,-7.485056414196191
1621784860017.282,0.246,-0.463,0.086,0.5042083333333334,-7.9353393890094,-6.969342100506146
1621784860022.295,0.239,-0.431,0.134,0.6467986111111111,-7.826154208845504,-6.453728232706677
1621784860022.302,0.23897035342225684,-0.4309576477460812,0.1340691753480674,0.647,-7.826,-6.453
1621784860027.31,0.218,-0.401,0.183,0.6590526545739425,-7.63192135711703,-6.322584096661444
1621784860032.324,0.194,-0.372,0.234,0.6711194106303484,-7.43761564420875,-6.192015608051102
1621784860037.338,0.166,-0.344,0.283,0.6831861666867542,-7.2433099313004705,-6.0614471194407615
1621784860038.507,0.15747249627027288,-0.33985148467202464,0.2917579768035035,0.686,-7.198,-6.031
1621784860042.411,0.129,-0.326,0.321,0.6093474821531931,-7.0397113640748605,-6.035746285934787
1621784860047.501,0.087,-0.314,0.365,0.5094019946867718,-6.833322385312932,-6.041934861010107
1621784860052.591,0.045,-0.298,0.4,0.40945650722035054,-6.626933406551002,-6.048123436085428
1621784860054.957,0.02826573292402149,-0.298,0.41348038181120494,0.363,-6.531,-6.051
1621784860057.681,0.009,-0.298,0.429,0.26879291257957766,-6.4694094261504445,-6.063914152581359
1621784860062.771,-0.024,-0.295,0.456,0.09274885363645807,-6.354315594996067,-6.088046730081469
1621784860067.863,-0.051,-0.288,0.48,-0.08336275542760474,-6.239177601020968,-6.112188567527861
1621784860071.409,-0.06423910957589714,-0.2768512761466129,0.4932391095758971,-0.206,-6.159,-6.129
1621784860072.952,-0.07,-0.272,0.499,-0.23262868672482345,-6.143341582101952,-6.131812889442763
1621784860078.043,-0.079,-0.26,0.508,-0.32049071271734614,-6.091676235831701,-6.14109408937155
1621784860083.135,-0.089,-0.253,0.52,-0.4083695923090618,-6.040000979170376,-6.150377069610112
1621784860087.865,-0.09829074953244138,-0.2353475758883614,0.5376524241116386,-0.49,-5.992,-6.159
1621784860088.226,-0.099,-0.234,0.539,-0.4979655341246291,-5.991561127596439,-6.159416928783383
1621784860093.317,-0.115,-0.211,0.564,-0.6102693323442137,-5.985373590504452,-6.165295089020772
1621784860098.409,-0.136,-0.183,0.581,-0.722600059347181,-5.979184569732938,-6.171174658753709
1621784860103.501,-0.161,-0.159,0.593,-0.8349307863501484,-5.972995548961425,-6.1770542284866465
1621784860104.32,-0.16373509806742437,-0.15642579005418886,0.5941262168512923,-0.853,-5.972,-6.178
1621784860108.592,-0.178,-0.143,0.6,-1.0336700688345597,-5.9771916686446716,-6.2647008663660095
1621784860113.684,-0.195,-0.134,0.613,-1.249022430572039,-5.983379954901496,-6.368045246854972
1621784860118.777,-0.209,-0.127,0.607,-1.4644160930453358,-5.989569427961073,-6.471409446949917
1621784860120.777,-0.209,-0.1266072113540468,0.607,-1.549,-5.992,-6.512
1621784860123.869,-0.209,-0.126,0.607,-1.6447914095870906,-5.9882434741338395,-6.611360109159943
1621784860128.962,-0.202,-0.138,0.599,-1.8025855185097295,-5.982055469862364,-6.775032822140484
1621784860134.055,-0.185,-0.141,0.586,-1.9603796274323684,-5.975867465590888,-6.938705535121025
1621784860137.238,-0.166250179761277,-0.14662494607161689,0.5728751258328939,-2.059,-5.972,-7.041
1621784860139.148,-0.155,-0.15,0.565,-2.0795367673232086,-5.981166127788325,-7.045525050427148
1621784860144.241,-0.115,-0.164,0.541,-2.1343006051257714,-6.005608744660655,-7.057591658756526
1621784860149.334,-0.091,-0.166,0.52,-2.189064442928334,-6.030051361532985,-7.069658267085904
1621784860153.699,-0.07557598849748381,-0.17199822669542295,0.4977208722741433,-2.236,-6.051,-7.08
1621784860154.428,-0.073,-0.173,0.494,-2.232501801788442,-6.054453917221538,-7.069151157445168
1621784860159.521,-0.066,-0.175,0.469,-2.2080624471697834,-6.0785839129209736,-6.993358222235404
1621784860164.614,-0.059,-0.182,0.459,-2.183623092551125,-6.102713908620408,-6.91756528702564
1621784860169.708,-0.056,-0.182,0.44,-2.159179051799564,-6.126848531134607,-6.841757818872066
1621784860170.162,-0.055375988497483826,-0.1818217109992811,0.4377713874910137,-2.157,-6.129,-6.835
1621784860174.802,-0.049,-0.18,0.415,-2.1240267364612375,-6.095744913695948,-6.774126282697669
1621784860179.897,-0.045,-0.182,0.391,-2.0878194732783677,-6.059228186725191,-6.70728210451391
1621784860184.991,-0.037,-0.183,0.375,-2.0516191500088974,-6.0227184589833325,-6.6404507384779645
1621784860186.626,-0.037,-0.1820372801763381,0.36954458766591597,-2.04,-6.011,-6.619
1621784860190.086,-0.037,-0.18,0.358,-2.0049088294165616,-6.007007591370747,-6.555121461931945
1621784860195.181,-0.042,-0.176,0.346,-1.9532352731855587,-6.001128564015123,-6.461057024241975
1621784860200.276,-0.047,-0.162,0.323,-1.9015617169545556,-5.9952495366595,-6.366992586552006
1621784860203.092,-0.053633758267037285,-0.15260217578836385,0.3169190549218825,-1.873,-5.992,-6.315
1621784860205.37,-0.059,-0.145,0.312,-1.8458850538925706,-6.010952793962846,-6.290651885128023
1621784860210.466,-0.068,-0.133,0.297,-1.785230218387226,-6.053349286127296,-6.236186318551795
1621784860215.561,-0.075,-0.099,0.283,-1.7245870064789692,-6.095737653634598,-6.18173118949132
1621784860219.559,-0.09304474680208882,-0.09429267474728117,0.2869227710439323,-1.677,-6.129,-6.139
1621784860220.657,-0.098,-0.093,0.288,-1.6684657810461392,-6.142734758628869,-6.141600269837505
1621784860225.753,-0.138,-0.077,0.29,-1.628853872612976,-6.206485173763491,-6.153669523188234
1621784860230.849,-0.168,-0.056,0.286,-1.5892400664215396,-6.270238643102835,-6.165739354762187
1621784860235.945,-0.175,-0.035,0.284,-1.5496281579883762,-6.333989058237457,-6.177808608112916
1621784860236.026,-0.17504756430521626,-0.03458777602145902,0.28390487138956744,-1.549,-6.335,-6.178
1621784860241.042,-0.178,-0.009,0.278,-1.561183891005589,-6.376729826694143,-6.237701065927387
1621784860246.138,-0.175,0.003,0.274,-1.5735616948097193,-6.419123804723289,-6.298352304567625
1621784860251.234,-0.166,0.026,0.258,-1.5859394986138495,-6.461517782752435,-6.359003543207863
1621784860252.494,-0.16377521793275218,0.03242714819427148,0.25626961394769615,-1.589,-6.472,-6.374
1621784860256.331,-0.157,0.052,0.251,-1.6141613649165456,-6.467573463579497,-6.346741854673742
1621784860261.427,-0.147,0.08,0.246,-1.6475769766683466,-6.46169479114168,-6.310541608609291
1621784860266.525,-0.143,0.106,0.232,-1.6810053956301325,-6.455813865583588,-6.274327488067356
1621784860268.964,-0.14491416802375706,0.11604938212472458,0.22625749592872882,-1.697,-6.453,-6.257
1621784860271.622,-0.147,0.127,0.22,-1.6858652931149485,-6.430730586229897,-6.223757251908396
1621784860276.72,-0.15,0.154,0.209,-1.6645091973615949,-6.38801839472319,-6.159998473282442
1621784860281.817,-0.162,0.183,0.209,-1.6431571926183945,-6.34531438523679,-6.096251908396947
1621784860285.435,-0.1712261277655397,0.19435523417297196,0.209,-1.628,-6.315,-6.051
1621784860286.915,-0.175,0.199,0.209,-1.6191958741497101,-6.327397646605511,-6.018388799146376
1621784860292.013,-0.199,0.211,0.208,-1.5888694221734814,-6.3701022422455065,-5.906057145397691
1621784860297.111,-0.225,0.239,0.218,-1.5585415178505269,-6.412808883026809,-5.793720112038176
1621784860301.909,-0.25323427996743453,0.2559405679804607,0.22647028399023036,-1.53,-6.453,-5.688
1621784860302.209,-0.255,0.257,0.227,-1.5307102361971372,-6.4553128204368315,-5.69067704412767
1621784860307.307,-0.284,0.265,0.246,-1.542777316776813,-6.494608185401416,-5.7361606555433715
1621784860312.406,-0.314,0.279,0.251,-1.5548472868446788,-6.53391295972498,-5.781655158106867
1621784860317.505,-0.344,0.284,0.258,-1.5669166790149067,-6.573215852176748,-5.827147482440802
1621784860318.385,-0.3500411280283443,0.2871068658431485,0.25920822560566886,-1.569,-6.58,-5.835
1621784860322.604,-0.379,0.302,0.265,-1.5538919924132413,-6.703168672020864,-5.953047313516878
1621784860327.703,-0.387,0.312,0.278,-1.5356331683608453,-6.852024508787007,-6.095713718400853
1621784860332.802,-0.384,0.319,0.284,-1.5173734700530481,-7.000887472957354,-6.238386954331269
1621784860334.861,-0.3783477261847774,0.3198074676878889,0.29328587841072284,-1.51,-7.061,-6.296
1621784860337.902,-0.37,0.321,0.307,-1.5028034132322006,-7.175038221089745,-6.355602500666647
1621784860343.001,-0.339,0.332,0.321,-1.490736881870167,-7.366246333441972,-6.455538132203491
1621784860348.101,-0.302,0.342,0.339,-1.4786674617048385,-7.557500222215638,-6.555497688957364
1621784860351.341,-0.2695991670257073,0.3464471731533343,0.3529768299104792,-1.471,-7.679,-6.619
1621784860353.201,-0.251,0.349,0.361,-1.471,-7.706646422752185,-6.623513701673826
1621784860358.301,-0.197,0.365,0.377,-1.471,-7.782458154347505,-6.635891127240408
1621784860363.401,-0.14,0.384,0.391,-1.471,-7.858266256850837,-6.648267960302177
1621784860367.823,-0.08971982387288217,0.3961365942375802,0.4057372930027759,-1.471,-7.924,-6.659
1621784860368.502,-0.082,0.398,0.408,-1.4758605918772403,-7.920745874929644,-6.644830138934147
1621784860373.603,-0.017,0.405,0.426,-1.5123788251325652,-7.8962972272417575,-6.538370204698285
1621784860378.703,0.03,0.424,0.436,-1.5488883194596677,-7.871854430192256,-6.431935746659952
1621784860383.804,0.075,0.442,0.454,-1.5854065527149923,-7.847405782504369,-6.32547581242409
1621784860384.306,0.07844339171212555,0.4434757393051967,0.45429514786103936,-1.589,-7.845,-6.315
1621784860388.906,0.11,0.457,0.457,-1.6682489670186456,-7.771331946151681,-6.1866389970824756
1621784860394.007,0.14,0.482,0.475,-1.756128593220088,-7.689641026020763,-6.044298757460421
1621784860399.108,0.168,0.497,0.471,-1.84400401344727,-7.607954015668735,-5.901965330331888
1621784860400.791,0.17360917009667848,0.5016193165502058,0.4723198047286302,-1.873,-7.581,-5.855
1621784860404.209,0.185,0.511,0.475,-1.968565262456504,-7.536223217590879,-5.759434737543496
1621784860409.311,0.192,0.524,0.464,-2.1112168949433627,-7.469384274820464,-5.616783105056638
1621784860414.413,0.197,0.539,0.456,-2.2538685274302215,-7.402545332050049,-5.474131472569779
1621784860417.279,0.19419122362061542,0.5468645738622769,0.4509442025171077,-2.334,-7.365,-5.394
1621784860419.515,0.192,0.553,0.447,-2.388506255274418,-7.360932369009372,-5.344781665013399
1621784860424.618,0.176,0.569,0.428,-2.512910027686067,-7.351648505396562,-5.232446915298403
1621784860429.72,0.162,0.581,0.419,-2.63728999304147,-7.342366418429741,-5.120133662999867
1621784860433.769,0.14454377571524257,0.5921085063630275,0.4039241699358913,-2.736,-7.335,-5.031
1621784860434.823,0.14,0.595,0.4,-2.7491656772321496,-7.339409862762225,-5.02345849556605
1621784860439.925,0.103,0.614,0.37,-2.812898900025168,-7.360757398552119,-4.986951115519564
1621784860445.028,0.07,0.627,0.356,-2.8766443217315354,-7.382109020385806,-4.950436747746014
1621784860450.131,0.033,0.66,0.333,-2.9403897434379025,-7.403460642219492,-4.913922379972464
1621784860450.26,0.03193925188940974,0.6605303740552951,0.3325706495742849,-2.942,-7.404,-4.913
1621784860455.235,-0.009,0.681,0.316,-3.172776302349336,-7.377453183520599,-5.128994552264215
1621784860460.338,-0.045,0.693,0.305,-3.4094754629835236,-7.35022504478098,-5.350532590191115
1621784860465.442,-0.113,0.719,0.305,-3.646231247501887,-7.322990392444227,-5.572123625112877
1621784860466.752,-0.14842083612360088,0.7184866545489333,0.3270738543958672,-3.707,-7.316,-5.629
1621784860470.546,-0.251,0.717,0.391,-4.020514209591474,-6.760967140319716,-6.989095026642984
1621784860475.65,-0.482,0.588,0.391,-4.442285642391948,-6.01428007696862,-8.818834191829485
1621784860480.754,-0.696,0.586,0.201,-4.864057075192422,-5.267593013617525,-10.648573357015986
1621784860483.246,-0.7917213663764233,0.6328839345517175,0.16681379772270596,-5.07,-4.903,-11.542
1621784860485.857,-0.892,0.682,0.131,-4.800003048645129,-5.412132586464607,-12.047967323259979
1621784860490.962,-1.073,0.625,0.178,-4.27207745926507,-6.40764057065901,-13.037286261857897
1621784860496.067,-1.07,0.33,0.15,-3.74415186988501,-7.403148554853413,-14.026605200455817
1621784860499.743,-0.8798609011766957,0.15498560221945853,0.06573380847603558,-3.364,-8.12,-14.739
1621784860501.171,-0.806,0.087,0.033,-3.294410263999053,-8.412813528471647,-14.581990322007814
1621784860506.277,-0.387,0.012,-0.03,-3.0455695513199954,-9.459863442642359,-14.02055120161004
1621784860511.382,0.019,0.016,-0.012,-2.7967883272167633,-10.506663046051852,-13.459246300461704
1621784860516.241,0.31310416068866576,-0.012553802008608318,-0.00057847919655667,-2.56,-11.503,-12.925
1621784860516.487,0.328,-0.014,0.0,-2.5503363711681857,-11.465568351284176,-12.887568351284177
1621784860521.593,0.531,-0.087,-0.014,-2.349835246774766,-10.688935909575097,-12.110935909575097
1621784860526.698,0.661,-0.161,-0.03,-2.1493724701148063,-9.912452006154574,-11.334452006154574
1621784860531.804,0.745,-0.185,-0.01,-1.948871345721387,-9.135819564445496,-10.557819564445495
1621784860532.743,0.7575049249306685,-0.18628727168403938,-0.006505976857607345,-1.912,-8.993,-10.415
1621784860536.91,0.813,-0.192,0.009,-1.4812411201680546,-8.27237523854609,-10.018833128689142
1621784860542.017,0.871,-0.155,0.042,-0.9532914478453185,-7.38915814311286,-9.533280352678373
1621784860547.123,0.909,-0.089,0.099,-0.42546796455464,-6.506152151722709,-9.047843632113851
1621784860549.246,0.9077526059099168,-0.059062541838003246,0.12311628574160849,-0.206,-6.139,-8.846
1621784860552.229,0.906,-0.017,0.157,-0.051847325760265045,-5.759672376050172,-8.512755531889717
1621784860557.335,0.866,0.044,0.183,0.21202147674831381,-5.110363329783458,-7.942328718494853
1621784860562.442,0.792,0.087,0.213,0.4759407466572003,-4.460930097029937,-7.371792805585137
1621784860565.752,0.7427429609445958,0.13560892012046466,0.23892475739758115,0.647,-4.04,-7.002
1621784860567.549,0.716,0.162,0.253,0.8413207329517725,-3.8916195187600753,-6.925142612065013
1621784860572.656,0.634,0.246,0.302,1.3935284617773638,-3.46996174039073,-6.706734401112146
1621784860577.764,0.545,0.337,0.354,1.945841785349838,-3.04822333141074,-6.488284425514294
1621784860582.26,0.46488833118217887,0.41711166881782114,0.3786497442516373,2.432,-2.677,-6.296
1621784860582.871,0.454,0.428,0.382,2.4468809618882825,-2.658491340934972,-6.3123246372953545
1621784860587.979,0.367,0.539,0.414,2.571267491902924,-2.5037817264889006,-6.44877851723679
1621784860593.087,0.281,0.653,0.456,2.6956540219175653,-2.3490721120428297,-6.585232397178225
1621784860598.195,0.201,0.73,0.469,2.8200464971826613,-2.1943551030066404,-6.721692799148143
1621784860598.768,0.19191179845109477,0.7329172004971795,0.46574619944545365,2.834,-2.177,-6.737
1621784860603.302,0.12,0.756,0.44,2.3223878299445473,-2.362915963031423,-6.842178454713494
1621784860608.41,0.024,0.735,0.379,1.746008,-2.572368,-6.960672
1621784860613.519,-0.066,0.696,0.316,1.1694904251386322,-2.7818700924214417,-7.0791938632162665
1621784860615.278,-0.09492191532065374,0.675685797572398,0.3022276593711173,0.971,-2.854,-7.12
1621784860618.628,-0.15,0.637,0.276,0.851485810620961,-3.2878223037222165,-7.147798716375091
1621784860623.737,-0.211,0.583,0.258,0.6692051137960101,-3.949479569956079,-7.19019677319176
1621784860628.846,-0.253,0.532,0.243,0.48693312728294463,-4.611105218792979,-7.232592804010588
1621784860631.787,-0.261059349166149,0.5181839728580303,0.2314866440483586,0.382,-4.992,-7.257
1621784860633.955,-0.267,0.508,0.223,0.24688754824113918,-5.14772727675997,-7.370315885197178
1621784860639.064,-0.253,0.478,0.187,-0.07150920463114935,-5.514703514764376,-7.637348341687737
1621784860644.174,-0.223,0.452,0.15,-0.38998203433438317,-5.881767437046237,-7.904444602167708
1621784860648.298,-0.17859411146161935,0.43262288500143387,0.1160900487525093,-0.647,-6.178,-8.12
1621784860649.282,-0.168,0.428,0.108,-0.6972878601948638,-6.204276002779544,-8.139304818368643
1621784860654.392,-0.113,0.405,0.066,-0.9584727737776662,-6.340748214734539,-8.239570116947824
1621784860659.502,-0.061,0.384,0.021,-1.2196452089832488,-6.477213906589588,-8.339830625249494
1621784860664.613,0.002,0.384,-0.023,-1.4808800360749297,-6.613712198944365,-8.440115084938718
1621784860664.811,0.004208647873865265,0.38361251791686574,-0.02462742474916388,-1.491,-6.619,-8.444
1621784860669.723,0.059,0.374,-0.065,-1.5257961241112212,-6.581229848186965,-8.36816229360375
1621784860674.833,0.115,0.372,-0.11,-1.561996614879747,-6.5419352983783945,-8.289263788082604
1621784860679.944,0.162,0.386,-0.152,-1.598204023710624,-6.502633239220092,-8.210350204733256
1621784860681.327,0.1728225852679851,0.3930346804241903,-0.16417540842648323,-1.608,-6.492,-8.189
1621784860685.055,0.202,0.412,-0.197,-1.61251414550507,-6.301728766961303,-8.182228781742396
1621784860690.166,0.239,0.442,-0.244,-1.6187029887368078,-6.040869024743548,-8.172945516894789
1621784860695.278,0.278,0.464,-0.286,-1.624893014455908,-5.779959440683478,-8.163660478316139
1621784860697.844,0.29858815097945535,0.47354085045389394,-0.30960105112279024,-1.628,-5.649,-8.159
1621784860700.388,0.319,0.483,-0.333,-1.5660916910525848,-5.516097336762141,-8.140827909313943
1621784860705.5,0.365,0.501,-0.372,-1.4416868848097897,-5.249029307439922,-8.104311075640686
1621784860710.611,0.396,0.508,-0.401,-1.3173058437527712,-4.98201229641453,-8.067801217817978
1621784860714.363,0.4040737415225905,0.5197436240328589,-0.4164135065431273,-1.226,-4.786,-8.041
1621784860715.723,0.407,0.524,-0.422,-1.1920857742440811,-4.743195637395442,-7.998277953477374
1621784860720.835,0.408,0.532,-0.429,-1.0645938580675671,-4.582283510182366,-7.837675272662785
1621784860725.947,0.401,0.525,-0.435,-0.9371019418910531,-4.421371382969291,-7.677072591848196
1621784860730.883,0.40003461777204796,0.5105192665807191,-0.43596538222795206,-0.814,-4.266,-7.522
1621784860731.06,0.4,0.51,-0.436,-0.8113751293039752,-4.262325181025565,-7.518314467267622
1621784860736.172,0.4,0.49,-0.442,-0.7355652430914733,-4.156191340328062,-7.41187119846313
1621784860741.285,0.419,0.469,-0.454,-0.6597444953450569,-4.05004229348308,-7.305412679178366
1621784860746.398,0.45,0.445,-0.466,-0.5839201270873355,-3.94388817792227,-7.198949076400178
1621784860747.404,0.45688834232771386,0.43634036964515976,-0.46796809780791826,-0.569,-3.923,-7.178
1621784860751.51,0.485,0.401,-0.476,-0.39607448663022604,-3.8375310681045947,-6.929543802629635
1621784860756.623,0.487,0.365,-0.473,-0.1807350273304772,-3.731098921554144,-6.620148027773674
1621784860761.737,0.443,0.318,-0.459,0.03464556064411284,-3.6246464470379673,-6.3106931599940905
1621784860763.93,0.40740309411259135,0.30813579716373013,-0.4487069187795445,0.127,-3.579,-6.178
1621784860766.85,0.36,0.295,-0.435,0.18778839363541006,-3.515030818325528,-6.049708215757827
1621784860771.964,0.281,0.271,-0.426,0.2942455863016532,-3.403003191159307,-5.82503402425872
1621784860777.078,0.206,0.251,-0.419,0.4006976967512225,-3.290980912139702,-5.600370558600617
1621784860780.455,0.1439241896214255,0.24307542846230962,-0.4110754284623096,0.471,-3.217,-5.452
1621784860782.192,0.112,0.239,-0.407,0.5359459627145685,-3.270596182822702,-5.452
1621784860787.306,-0.003,0.236,-0.384,0.7271777705557361,-3.4284088397790056,-5.452
1621784860792.42,-0.108,0.232,-0.361,0.9184095783969037,-3.586221496735309,-5.452
1621784860796.982,-0.18470259176172976,0.23021621879623885,-0.344054078564269,1.089,-3.727,-5.452
1621784860797.535,-0.194,0.23,-0.342,1.1099762492060912,-3.753228675243342,-5.47695738741267
1621784860802.649,-0.257,0.227,-0.323,1.3039671949544334,-3.995794706290711,-5.707766391444988
1621784860807.763,-0.297,0.236,-0.302,1.4979581407027753,-4.23836073733808,-5.938575395477305
1621784860812.878,-0.344,0.253,-0.265,1.6919861305998256,-4.480973088341728,-6.169428474365981
1621784860813.511,-0.34894965402052014,0.25436115485564303,-0.2615352421856359,1.716,-4.511,-6.198
1621784860817.994,-0.384,0.264,-0.237,1.6549876689064462,-4.766167126929041,-6.416017396440966
1621784860823.109,-0.415,0.255,-0.213,1.5853727386841912,-5.057312235103005,-6.6647747471018235
1621784860828.225,-0.408,0.253,-0.201,1.515741194713136,-5.348526825666396,-6.91359146422506
1621784860830.043,-0.3969825783972125,0.249801393728223,-0.19637979094076655,1.491,-5.452,-7.002
1621784860833.34,-0.377,0.244,-0.188,1.418607982988526,-5.620316425227779,-7.152567418302101
1621784860838.456,-0.318,0.234,-0.178,1.3062810880255171,-5.881484192028825,-7.38619498220588
1621784860843.572,-0.236,0.229,-0.162,1.1939541930625082,-6.1426519588298705,-7.619822546109659
1621784860846.576,-0.18550398472918156,0.2213668814125507,-0.15906418515867335,1.128,-6.296,-7.757
1621784860848.688,-0.15,0.216,-0.157,1.0516120429980509,-6.339814497076369,-7.775777641604158
1621784860853.805,-0.059,0.197,-0.161,0.8665449766700135,-6.445965005020377,-7.821270716437304
1621784860858.92,0.042,0.178,-0.161,0.6815485499970468,-6.552074995570256,-7.866746426672966
1621784860863.11,0.13043530534351144,0.14770271946564884,-0.16181884541984734,0.53,-6.639,-7.904
1621784860864.037,0.15,0.141,-0.162,0.520637979654811,-6.628572839615538,-7.8633004384993574
1621784860869.154,0.258,0.119,-0.164,0.4689607122292599,-6.571016122602649,-7.638643575320016
1621784860874.271,0.349,0.08,-0.171,0.4172834448037088,-6.51345940558976,-7.413986712140674
1621784860879.388,0.412,0.054,-0.173,0.3656061773781577,-6.45590268857687,-7.189329848961332
1621784860879.646,0.41482350696431974,0.05208404884564014,-0.17315125930165998,0.363,-6.453,-7.178
1621784860884.506,0.468,0.016,-0.176,0.3744617485532066,-6.277253188850833,-6.771842653832526
1621784860889.623,0.49,-0.033,-0.176,0.386529201606236,-6.092218908704382,-6.344221625132869
1621784860894.741,0.494,-0.072,-0.171,0.3985989577182001,-5.907149314987599,-5.916518985473013
1621784860896.183,0.4855465343700806,-0.08270772313123122,-0.17043643562467206,0.402,-5.855,-5.796
1621784860899.859,0.464,-0.11,-0.169,0.35844444444444445,-5.765444444444444,-5.482222222222222
1621784860904.977,0.412,-0.145,-0.171,0.2977976148305585,-5.640747136615893,-5.045317510922187
1621784860910.095,0.346,-0.188,-0.182,0.2371536781202031,-5.516055776951234,-4.608433640335341
1621784860912.724,0.30748058946966805,-0.2141931991606257,-0.18456796070202214,0.206,-5.452,-4.384
1621784860915.214,0.271,-0.239,-0.187,0.13223274831357845,-5.4786465378540745,-4.279069848111356
1621784860920.332,0.185,-0.278,-0.19,-0.019388282875994534,-5.533415767487859,-4.0633966670110855
1621784860925.45,0.101,-0.326,-0.201,-0.1710093140655675,-5.588184997121643,-3.8477234859108154
1621784860929.264,0.03618151468904998,-0.3565466425028615,-0.20621528042731782,-0.284,-5.629,-3.687
1621784860930.569,0.014,-0.367,-0.208,-0.3142149782336014,-5.676965291817309,-3.7504277872057843
1621784860935.688,-0.063,-0.389,-0.215,-0.43271805504316385,-5.865085058658599,-3.99919142625249
1621784860940.807,-0.124,-0.408,-0.225,-0.5512211318527263,-6.053204825499889,-4.2479550652991955
1621784860945.808,-0.16111758535189777,-0.4343730211710852,-0.23867489986648865,-0.667,-6.237,-4.491
1621784860945.927,-0.162,-0.435,-0.239,-0.667,-6.239888715103583,-4.504818405831316
1621784860951.046,-0.183,-0.461,-0.25,-0.667,-6.364257687540578,-5.0997475948769395
1621784860956.166,-0.173,-0.476,-0.265,-0.667,-6.488656318243523,-5.694818656672371
1621784860961.286,-0.141,-0.485,-0.286,-0.667,-6.613049017293278,-6.289861343917842
1621784860962.354,-0.13202970627503335,-0.47957610146862484,-0.2853741655540721,-0.667,-6.639,-6.414
1621784860966.406,-0.098,-0.459,-0.283,-0.39327644603106704,-6.662993656787974,-6.737914366637655
1621784860971.526,-0.054,-0.428,-0.278,-0.047415347622770665,-6.693310640369382,-7.1471936449866496
1621784860976.645,-0.017,-0.387,-0.264,0.2983962737317264,-6.723623286963962,-7.5564143740134835
1621784860978.904,-0.00817753623188406,-0.3742074275362319,-0.26002989130434784,0.451,-6.737,-7.737
1621784860981.766,0.003,-0.358,-0.255,0.6376091850584209,-6.723510179393367,-7.762596069868995
1621784860986.887,0.026,-0.335,-0.239,0.9714936563200756,-6.699373952555176,-7.808393013100437
1621784860992.008,0.049,-0.312,-0.211,1.3053940457925175,-6.67523657500295,-7.854192139737991
1621784860995.453,0.06447222884386174,-0.30056400476758044,-0.19552777115613826,1.53,-6.659,-7.885
1621784860997.129,0.072,-0.295,-0.188,1.4853398781513225,-6.75632058298544,-7.795578486185074
1621784861002.25,0.075,-0.265,-0.173,1.34888092463379,-7.053683517974893,-7.522351148416409
1621784861007.371,0.063,-0.227,-0.168,1.2124219711162578,-7.351046452964345,-7.249123810647745
1621784861012.003,0.05938266838266838,-0.19715701415701417,-0.18608665808665809,1.089,-7.62,-7.002
1621784861012.493,0.059,-0.194,-0.188,1.0329613699721225,-7.659756936147617,-6.997056285676357
1621784861017.615,0.063,-0.169,-0.223,0.447166423293066,-8.075352611472484,-6.945377597828812
1621784861022.736,0.079,-0.166,-0.265,-0.1385168370281873,-8.490869050252961,-6.893708762924613
1621784861027.858,0.113,-0.201,-0.307,-0.7242838621177929,-8.90644491644173,-6.842032538312905
1621784861028.555,0.11953069004956157,-0.21120420320243996,-0.3146191383911552,-0.804,-8.963,-6.835
1621784861032.981,0.161,-0.276,-0.363,-1.2889728063707417,-9.238370446836749,-6.926701032296122
1621784861038.102,0.216,-0.367,-0.421,-1.8501063265005162,-9.556985400383423,-7.0328029051762275
1621784861043.225,0.286,-0.473,-0.489,-2.411453856363368,-9.87572186993069,-7.138945244064297
1621784861045.11,0.31507474140807473,-0.5212125458792125,-0.5169706373039706,-2.618,-9.993,-7.178
1621784861048.347,0.365,-0.604,-0.565,-2.3780104914738303,-10.019839642994356,-7.548857256849011
1621784861053.47,0.431,-0.744,-0.642,-1.998168897951946,-10.062319886514763,-8.135828796879156
1621784861058.593,0.487,-0.88,-0.752,-1.618327304430062,-10.10480013003517,-8.7228003369093
1621784861061.632,0.5136695232994108,-0.9018205190631543,-0.808369674246482,-1.393,-10.13,-9.071
1621784861063.607,0.531,-0.916,-0.845,-1.28632018582759,-9.807611870959855,-9.488077280437672
1621784861068.55,0.609,-0.789,-0.831,-1.0192975380900715,-9.000665097727586,-10.532033727096291
1621784861073.493,0.6,-0.686,-0.815,-0.7522880786099607,-8.19375817962315,-11.575938612711463
1621784861077.608,0.466778639529714,-0.6768410314676678,-0.8891043817615966,-0.53,-7.522,-12.445
1621784861078.435,0.44,-0.675,-0.904,-0.35425688522084675,-7.569741647562281,-12.299237811401499
1621784861083.377,0.332,-0.7,-0.93,0.6957407916857712,-7.854979672932906,-11.428364664526976
1621784861088.319,0.367,-0.625,-0.869,1.7457903408222528,-8.140231789698916,-10.557448494574356
1621784861093.26,0.483,-0.532,-0.827,2.795580528809415,-8.425413449488003,-9.686747440012228
1621784861093.582,0.49101645419507856,-0.5329124419409033,-0.8288248838818064,2.864,-8.444,-9.63
1621784861098.201,0.606,-0.546,-0.855,3.414103771421583,-8.001487502484217,-9.403248498004984
1621784861103.142,0.705,-0.538,-0.888,4.002588904346231,-7.528100408175745,-9.160676287588094
1621784861108.083,0.771,-0.469,-0.853,4.591044960481861,-7.0547367037133295,-8.918116062556372
1621784861109.552,0.7811106059108431,-0.4541314618958189,-0.839618315706237,4.766,-6.914,-8.846
1621784861113.023,0.805,-0.419,-0.808,4.246321372926404,-5.946959077994684,-9.0247277518101
1621784861117.964,0.782,-0.412,-0.82,3.5065186203525496,-4.5703014694650665,-9.27916054134971
1621784861122.904,0.717,-0.407,-0.876,2.766898634405646,-3.193983961140134,-9.533530473833746
1621784861125.535,0.6696013640407236,-0.39262063852920825,-0.889846792527429,2.373,-2.461,-9.669
1621784861127.844,0.628,-0.38,-0.902,1.963992879347044,-2.3701899912714577,-9.372238105446916
1621784861132.783,0.534,-0.349,-0.929,1.089155276174142,-2.175953738725633,-8.737485184447882
1621784861137.723,0.438,-0.342,-0.977,0.21414469473071662,-1.981679080593541,-8.10260675619803
1621784861141.478,0.3680552617270525,-0.35264376451979634,-1.0157737136078295,-0.451,-1.834,-7.62
1621784861142.662,0.346,-0.356,-1.028,-0.4757812385264962,-1.9773453677640436,-7.553075816913474
1621784861147.601,0.272,-0.372,-1.08,-0.5791471056174275,-2.5752581079427244,-7.273926080039163
1621784861152.538,0.237,-0.335,-1.098,-0.6824720964386244,-3.172934402153959,-6.994886733569943
1621784861157.437,0.20129184379634207,-0.27945397923875437,-1.0404701927829956,-0.785,-3.766,-6.718
1621784861157.477,0.201,-0.279,-1.04,-0.7859585653956791,-3.767967317461289,-6.720509333496542
1621784861162.415,0.136,-0.227,-0.955,-0.9041777342554624,-4.010595140461472,-7.029983597527388
1621784861167.353,0.033,-0.213,-0.895,-1.0223969031152458,-4.253222963461656,-7.339457861558235
1621784861172.291,-0.084,-0.201,-0.838,-1.1406160719750291,-4.4958507864618396,-7.648932125589082
1621784861173.393,-0.1058757788547127,-0.20367866679853625,-0.8239369993076847,-1.167,-4.55,-7.718
1621784861177.228,-0.182,-0.213,-0.775,-1.0513780433684792,-4.868260853596952,-8.029049504950494
1621784861182.165,-0.26,-0.237,-0.689,-0.9025298636509711,-5.2779801674139595,-8.429485148514852
1621784861187.102,-0.314,-0.307,-0.602,-0.753681683933463,-5.6876994812309665,-8.829920792079209
1621784861189.347,-0.32263935317970527,-0.35156087429532196,-0.5560750173078824,-0.686,-5.874,-9.012
1621784861192.039,-0.333,-0.405,-0.501,-0.5255158392507346,-6.113966852350637,-9.028537799951028
1621784861196.975,-0.298,-0.51,-0.393,-0.23126819600881493,-6.55394597820764,-9.058859849412341
1621784861201.911,-0.237,-0.602,-0.272,0.0629648934867777,-6.99390334231146,-9.089180399118511
1621784861205.3,-0.1800108813928183,-0.6569292709466812,-0.18685963003264416,0.265,-7.296,-9.11
1621784861206.847,-0.154,-0.682,-0.148,0.24782874247829617,-7.325491877325413,-9.043449250509102
1621784861211.783,-0.058,-0.771,-0.042,0.19303573670591478,-7.419599638651988,-8.831087657515578
1621784861216.719,0.052,-0.853,0.037,0.1382427309335334,-7.513707399978564,-8.618726064522056
1621784861221.245,0.15015304304799607,-0.9282200890648195,0.08928713508164275,0.088,-7.6,-8.424
1621784861221.653,0.159,-0.935,0.094,0.07796918930507488,-7.557343465743775,-8.420980521270405
1621784861226.588,0.239,-1.009,0.15,-0.04336700254203549,-7.0413551192919055,-8.38445585127561
1621784861231.522,0.281,-1.052,0.188,-0.16468518575235067,-6.525443355486815,-8.347936602248016
1621784861236.457,0.284,-1.075,0.213,-0.2860273804783927,-6.009429481486019,-8.311410125264157
1621784861237.188,0.2822222662048491,-1.076333300346363,0.21551845620979712,-0.304,-5.933,-8.306
1621784861241.391,0.272,-1.084,0.23,-0.3738583612782703,-5.609806222916379,-8.241413967874806
1621784861246.325,0.239,-1.086,0.246,-0.45586159217235517,-5.2304252377233675,-8.165599660067068
1621784861251.259,0.216,-1.052,0.241,-0.5378688808244139,-4.851025479657617,-8.089781600747239
1621784861253.132,0.2228330529440871,-1.0315008411677389,0.23378733300346363,-0.569,-4.707,-8.061
1621784861256.193,0.234,-0.998,0.222,-0.4465038436801323,-4.6298159015037825,-7.938695843925148
1621784861261.126,0.255,-0.956,0.187,-0.24910116076077304,-4.50543364674895,-7.741602569599706
1621784861266.059,0.276,-0.888,0.169,-0.05168870784968305,-4.381045235980521,-7.544499540596
1621784861269.075,0.2735544667161594,-0.8445917842118287,0.16716585003711953,0.069,-4.305,-7.424
1621784861270.992,0.272,-0.817,0.166,0.1551086230663195,-4.305,-7.2836525654771025
1621784861275.923,0.269,-0.735,0.171,0.37660912850359934,-4.305,-6.922631490274162
1621784861280.855,0.234,-0.649,0.169,0.5981425333129116,-4.305,-6.561556792770715
1621784861285.015,0.21207078507078506,-0.5857426492426492,0.16646970596970598,0.785,-4.305,-6.257
1621784861285.787,0.208,-0.574,0.166,0.8144638271794087,-4.311639053163781,-6.222787069097595
1621784861290.719,0.183,-0.501,0.166,1.0026392216944997,-4.354040416730504,-6.00428077217711
1621784861295.651,0.161,-0.428,0.18,1.190814616209591,-4.396441780297227,-5.785774475256626
1621784861300.582,0.127,-0.351,0.208,1.378962065267351,-4.438836846943466,-5.567300628159951
1621784861300.95,0.12401539832648413,-0.3442100311927514,0.21113383175719166,1.393,-4.442,-5.551
1621784861305.513,0.087,-0.26,0.25,1.3984409646676677,-4.545951061808599,-5.3794664296877395
1621784861310.444,0.037,-0.175,0.298,1.404320932798088,-4.658289400300309,-5.194092697576074
1621784861315.375,-0.017,-0.094,0.332,1.4102006098121533,-4.770622176937456,-5.008728143290534
1621784861316.884,-0.029856039221512407,-0.06675744069727133,0.33995850047046006,1.412,-4.805,-4.952
1621784861320.305,-0.059,-0.005,0.358,1.20133359898236,-4.779874649419914,-4.99001014574936
1621784861325.234,-0.119,0.068,0.384,0.8977977746785392,-4.743673129090101,-5.04477654829959
1621784861330.164,-0.192,0.126,0.407,0.59418677680884,-4.707462643105641,-5.09955651427608
1621784861332.814,-0.21941316297726934,0.14857554598128064,0.41076259099688006,0.431,-4.688,-5.129
1621784861335.094,-0.243,0.168,0.414,0.2527720771954566,-4.679553857473519,-5.218901313671689
1621784861340.023,-0.26,0.211,0.407,-0.13252008829345302,-4.66129503196039,-5.41324949031991
1621784861344.952,-0.271,0.236,0.403,-0.5178122537823626,-4.6430362064472614,-5.6075976669681316
1621784861348.741,-0.262544328875681,0.24753046062407133,0.3922382367508668,-0.814,-4.629,-5.757
1621784861349.881,-0.26,0.251,0.389,-0.8926004874534389,-4.674599736345939,-5.742253460459555
1621784861354.809,-0.248,0.26,0.368,-1.2323330012109692,-4.871694099973941,-5.678514937842022
1621784861359.738,-0.232,0.264,0.346,-1.5721328387264895,-5.068827521191961,-5.614763784355504
1621784861364.666,-0.213,0.271,0.325,-1.91186535248402,-5.2659218848199645,-5.551025261737971
1621784861364.668,-0.2129980183304434,0.2709956403269755,0.32499643299479813,-1.912,-5.266,-5.551
1621784861369.594,-0.208,0.26,0.316,-2.0184210607013076,-5.378298968123763,-5.444578939298692
1621784861374.521,-0.201,0.262,0.309,-2.1248632189018872,-5.4906201990156545,-5.338136781098113
1621784861379.448,-0.199,0.251,0.3,-2.231305377102467,-5.602941429907545,-5.231694622897533
1621784861380.591,-0.19783999801793767,0.24821599524305038,0.2979119964322878,-2.256,-5.629,-5.207
1621784861384.375,-0.194,0.239,0.291,-2.2838092105263157,-5.573143893387314,-5.169683367071525
1621784861389.302,-0.197,0.222,0.29,-2.3200191387559808,-5.500414550361919,-5.121093976199239
1621784861394.229,-0.216,0.204,0.283,-2.3562290669856463,-5.427685207336523,-5.0725045853269535
1621784861396.511,-0.22433850423749815,0.1975144967041681,0.27975724835208404,-2.373,-5.394,-5.05
1621784861399.155,-0.234,0.19,0.276,-2.3160262269938654,-5.372738650306749,-5.046844018404908
1621784861404.081,-0.239,0.18,0.257,-2.2098803527607362,-5.33312736196319,-5.0409642177914105
1621784861409.007,-0.237,0.176,0.232,-2.103734478527607,-5.293516073619632,-5.035084417177914
1621784861412.429,-0.231442781384745,0.176,0.21532834415423502,-2.03,-5.266,-5.031
1621784861413.933,-0.229,0.176,0.208,-1.9716063738420955,-5.272519676706951,-5.027314965339549
