time,gyro_x,gyro_y,gyro_z,acc_x,acc_y,acc_z
1621786385514.969,,,,1.255,-3.864,-8.63
1621786385533.677,,,,1.128,-4.021,-8.61
1621786385550.433,0.775,0.187,0.932,1.0063743531134026,-4.072999370770357,-8.59325443992141
1621786385552.689,0.7883080943171064,0.18890115633101517,0.9354220813958274,0.99,-4.08,-8.591
1621786385556.366,0.81,0.192,0.941,0.9639274314813177,-4.061159238807668,-8.589096892808854
1621786385562.328,0.838,0.185,0.935,0.9216532051201052,-4.030610710269273,-8.586011182855481
1621786385568.319,0.864,0.176,0.932,0.8791712430028178,-3.9999120661115253,-8.582910309708234
1621786385572.01,0.8823902359905929,0.17416097640094072,0.932,0.853,-3.981,-8.581
1621786385574.34,0.894,0.173,0.932,0.8239111265923567,-4.003202527866242,-8.569364450636943
1621786385580.388,0.904,0.171,0.922,0.7484092854299362,-4.060830463773885,-8.539163714171975
1621786385586.467,0.909,0.175,0.906,0.6725173168789809,-4.118756170382166,-8.508806926751593
1621786385591.635,0.9022311135982093,0.18938388360380526,0.8840011191941802,0.608,-4.168,-8.483
1621786385592.575,0.901,0.192,0.88,0.5953898744669188,-4.194764348070213,-8.498646849641048
1621786385598.195,0.888,0.22,0.864,0.5199911498509378,-4.354794294193928,-8.592202818144143
1621786385603.82,0.869,0.26,0.841,0.4445269180893303,-4.5149632758920335,-8.685840068983035
1621786385609.45,0.86,0.298,0.815,0.3689971791820965,-4.6752712931645295,-8.779558602157726
1621786385609.897,0.8608723201524535,0.3005376586253194,0.8129381523669279,0.363,-4.688,-8.787
1621786385615.087,0.871,0.33,0.789,0.31834272639691713,-4.877437861271676,-8.901345375722544
1621786385620.73,0.908,0.353,0.763,0.26978650181973884,-5.083415221579961,-9.025674052665382
1621786385626.379,0.96,0.372,0.74,0.22117985977306787,-5.289606454720617,-9.150131824020553
1621786385628.143,0.9752914705247246,0.3763689915784928,0.7325103001511553,0.206,-5.354,-9.189
1621786385632.032,1.009,0.386,0.716,0.226819167522439,-5.456183873247889,-9.091064936450568
1621786385637.693,1.063,0.403,0.689,0.25712583187740895,-5.604933929928915,-8.948499913311371
1621786385643.359,1.11,0.408,0.66,0.2874573291900615,-5.7538058708206075,-8.805818073912057
1621786385646.449,1.1268854413220295,0.4156256831776907,0.6436592503335198,0.304,-5.835,-8.728
1621786385649.032,1.141,0.422,0.63,0.2819181899153185,-5.883242425853795,-8.645298698536351
1621786385654.71,1.166,0.443,0.611,0.23337786315355674,-5.9892891269957325,-8.463504353721602
1621786385660.394,1.185,0.449,0.586,0.18478535820161385,-6.0954498225276845,-8.281514589952542
1621786385664.814,1.1935462192086517,0.45443850313277834,0.5603613423740452,0.147,-6.178,-8.14
1621786385666.083,1.196,0.456,0.553,0.1416282443658333,-6.223246710918558,-8.123746995773548
1621786385671.779,1.199,0.468,0.515,0.11751734965618665,-6.42633463174212,-8.050796083575129
1621786385677.481,1.208,0.499,0.482,0.09338165268889861,-6.629631463889662,-7.977770128648462
1621786385683.189,1.218,0.515,0.456,0.06922012003656744,-6.833145911999682,-7.904666004213204
1621786385683.241,1.2181638741665242,0.5151274576850744,0.45579060523166354,0.069,-6.835,-7.904
1621786385688.901,1.236,0.529,0.433,-0.08406957888203678,-7.093381449152878,-7.904
1621786385694.621,1.251,0.529,0.412,-0.23877001597844894,-7.354515786971622,-7.904
1621786385700.346,1.288,0.513,0.384,-0.3935959037067361,-7.615861885456971,-7.904
1621786385701.729,1.2971690092852883,0.5096219439475254,0.37603743930488115,-0.431,-7.679,-7.904
1621786385706.078,1.326,0.499,0.351,-0.4907759544144547,-7.79151944360368,-7.851256510810775
1621786385711.815,1.368,0.456,0.318,-0.5696326968377002,-7.939955664635671,-7.78167703220203
1621786385717.557,1.405,0.436,0.291,-0.6485565542381134,-8.088518219742332,-7.712038334495783
1621786385720.281,1.418267538644471,0.42604934601664685,0.27820630202140306,-0.686,-8.159,-7.679
1621786385723.306,1.433,0.415,0.264,-0.6080008656078273,-8.111225530184795,-7.562651291198343
1621786385729.061,1.449,0.398,0.258,-0.4596010597138248,-8.020330649074719,-7.341288247406456
1621786385734.822,1.435,0.38,0.253,-0.31105016590816686,-7.9293432266187525,-7.1196998308130155
1621786385738.896,1.4074438751746623,0.37081462505822077,0.25441313460642756,-0.206,-7.865,-6.963
1621786385740.588,1.396,0.367,0.255,-0.14829906542056073,-7.842807332854062,-6.853757728253055
1621786385746.361,1.325,0.358,0.251,0.048591843670348384,-7.767080060126789,-6.480994091889419
1621786385752.138,1.241,0.353,0.267,0.24560764655904846,-7.691304751323443,-6.107994000392131
1621786385757.574,1.1329399898717083,0.3473620864280891,0.2848533929777177,0.431,-7.62,-5.757
1621786385757.923,1.126,0.347,0.286,0.43539638888527027,-7.628587861339447,-5.749138660552609
1621786385763.713,1.016,0.353,0.305,0.5083057332308534,-7.77100823313315,-5.618766866849914
1621786385769.509,0.894,0.36,0.326,0.5812950119198051,-7.913584747860297,-5.4882521397027215
1621786385775.311,0.768,0.377,0.353,0.6543580761564817,-8.056305394526008,-5.357605473991376
1621786385776.315,0.7489829724616355,0.38028475930208117,0.3566305234391423,0.667,-8.081,-5.335
1621786385781.118,0.658,0.396,0.374,0.6971462762158301,-8.301476579442893,-5.482665658074151
1621786385786.931,0.564,0.438,0.396,0.7336319589637037,-8.568316784624376,-5.661383663398481
1621786385792.75,0.494,0.476,0.426,0.7701559509122784,-8.835437166417766,-5.8402893188753975
1621786385795.115,0.47004940703180653,0.49264363240162595,0.4393960943720404,0.785,-8.944,-5.913
1621786385798.576,0.435,0.517,0.459,0.837110226640262,-9.033908489625805,-6.031899390362288
1621786385804.407,0.398,0.572,0.496,0.924906548104428,-9.18538805834919,-6.23222339144954
1621786385810.242,0.382,0.614,0.543,1.0127616847228154,-9.336969103923167,-6.432681590494312
1621786385813.977,0.38072151422721767,0.6299810721597794,0.5749621443195587,1.069,-9.434,-6.561
1621786385816.085,0.38,0.639,0.593,1.069,-9.42196748219263,-6.569690151749768
1621786385821.934,0.38,0.665,0.642,1.069,-9.388579126664602,-6.5938039640755655
1621786385827.788,0.384,0.66,0.679,1.069,-9.355162898730256,-6.6179379064725925
1621786385832.897,0.3927184401299892,0.6547689359220066,0.7156174485459544,1.069,-9.326,-6.639
1621786385833.648,0.394,0.654,0.721,1.0356417783723981,-9.303128052075026,-6.631639822986081
1621786385839.514,0.403,0.627,0.756,0.7750767617773432,-9.124472560269638,-6.574148609360126
1621786385845.385,0.421,0.59,0.766,0.5142840069982247,-8.945660920575294,-6.516607147451566
1621786385851.263,0.44,0.555,0.775,0.25318760130702145,-8.76664108369568,-6.4589986878328665
1621786385851.875,0.44166460555255843,0.5513586753537785,0.7759363406233142,0.226,-8.748,-6.453
1621786385857.146,0.456,0.52,0.784,0.08482013539850242,-8.584951097548466,-6.366077495127706
1621786385863.036,0.466,0.482,0.782,-0.07293642937737202,-8.402757731562211,-6.268948943481383
1621786385868.931,0.473,0.45,0.775,-0.23083031592983896,-8.220405772386911,-6.171735844702021
1621786385870.916,0.47064562564632884,0.442600537745605,0.7736546432264737,-0.284,-8.159,-6.139
1621786385874.833,0.466,0.428,0.771,-0.30409549858132456,-8.110811814626416,-5.9741348891899495
1621786385880.738,0.45,0.415,0.771,-0.3343903018838987,-8.038166112829428,-5.725593849850464
1621786385886.651,0.436,0.408,0.777,-0.36472518596150405,-7.965424298969864,-5.476723984560722
1621786385890.018,0.42007193235718704,0.408,0.7787065786760157,-0.382,-7.924,-5.335
1621786385892.57,0.408,0.408,0.78,-0.4017098266043241,-7.878321145099439,-5.246172605776459
1621786385898.495,0.368,0.403,0.785,-0.4474706399459811,-7.772267368233301,-5.039939751054261
1621786385904.425,0.325,0.403,0.791,-0.4932691646175995,-7.666126192811915,-4.833536940540954
1621786385909.181,0.2825372213539525,0.4005964464917332,0.7990118450275562,-0.53,-7.581,-4.668
1621786385910.361,0.272,0.4,0.801,-0.539576410230361,-7.556260940238235,-4.646944174942219
1621786385916.302,0.213,0.408,0.812,-0.5877833540751276,-7.43172633530592,-4.540950702257892
1621786385922.25,0.14,0.414,0.829,-0.6360477484570646,-7.307043316485917,-4.434830912046326
1621786385928.204,0.075,0.415,0.841,-0.6843616691641481,-7.182232354659284,-4.328602227414726
1621786385928.406,0.07245924135670981,0.4148306160904473,0.8413726446010159,-0.686,-7.178,-4.325
1621786385934.164,0.0,0.41,0.852,-0.7710851265822785,-7.0755993037974685,-4.342614113924051
1621786385940.128,-0.073,0.414,0.859,-0.8592114556962025,-6.969538493670886,-4.360857810126583
1621786385946.099,-0.147,0.415,0.86,-0.9474460126582278,-6.863347430379747,-4.379123911392405
1621786385947.693,-0.16273253012048192,0.41553330610577904,0.8610666122115581,-0.971,-6.835,-4.384
1621786385952.077,-0.206,0.417,0.864,-1.0022591745450848,-6.835,-4.471160618074617
1621786385958.06,-0.258,0.41,0.869,-1.0449228296228525,-6.835,-4.590120590627224
1621786385964.049,-0.297,0.403,0.871,-1.0876282657314222,-6.835,-4.709197062112433
1621786385966.906,-0.3089790147152911,0.3980087438686287,0.8690034975474514,-1.108,-6.835,-4.766
1621786385969.773,-0.321,0.393,0.867,-1.1430213512800211,-6.838099234626551,-4.831393850620216
1621786385975.496,-0.332,0.384,0.862,-1.2129328318817632,-6.84428609131697,-4.961936526788071
1621786385981.219,-0.339,0.379,0.857,-1.2828413301662709,-6.850472684085511,-5.092473634204275
1621786385985.407,-0.3360739445628998,0.3738794029850746,0.8518794029850746,-1.334,-6.855,-5.188
1621786385986.944,-0.335,0.372,0.85,-1.3453823172340988,-6.851759778305622,-5.189578569543415
1621786385992.667,-0.321,0.356,0.845,-1.3877604776986012,-6.8396959224069676,-5.195455832673528
1621786385998.391,-0.311,0.358,0.831,-1.4301476774874637,-6.827629493269992,-5.2013343494325674
1621786386003.908,-0.3052170185540627,0.34739786734911493,0.822325527831094,-1.471,-6.816,-5.207
1621786386004.115,-0.305,0.347,0.822,-1.471436467296627,-6.813358813281951,-5.205690598110119
1621786386009.838,-0.298,0.34,0.812,-1.483501596895951,-6.740349311091168,-5.169495209312147
1621786386015.562,-0.3,0.34,0.799,-1.495569300005279,-6.667324235865491,-5.133292099984163
1621786386021.286,-0.307,0.34,0.775,-1.5076364884126063,-6.594302275246793,-5.097090534762181
1621786386022.407,-0.3066082913929881,0.3403917086070119,0.7714746225368933,-1.51,-6.58,-5.09
1621786386027.01,-0.305,0.342,0.757,-1.4465595640240685,-6.599654095851367,-5.09
1621786386032.734,-0.311,0.344,0.74,-1.3676712102818536,-6.624094017206798,-5.09
1621786386038.456,-0.312,0.349,0.724,-1.2888064103240788,-6.648526641507442,-5.09
1621786386040.909,-0.31371413947536786,0.35499948816378757,0.7180005118362124,-1.255,-6.659,-5.09
1621786386044.18,-0.316,0.363,0.71,-1.225649440456081,-6.683223052153716,-5.082927576013513
1621786386049.904,-0.314,0.365,0.7,-1.1742870565878378,-6.725612489442567,-5.070551097972973
1621786386055.628,-0.312,0.372,0.686,-1.1229268633868243,-6.768000118771115,-5.058175147804054
1621786386059.409,-0.30737543724938143,0.38124912550123713,0.6741082672126952,-1.089,-6.796,-5.05
1621786386061.351,-0.305,0.386,0.668,-1.1012814182413173,-6.804187612160878,-5.060286999894436
1621786386067.075,-0.298,0.401,0.654,-1.1374772511348041,-6.828318167423203,-5.090604877018896
1621786386072.798,-0.29,0.422,0.635,-1.1736684524437875,-6.852445634962525,-5.120918874696506
1621786386077.911,-0.2757057292777612,0.4255735676805597,0.6162387696770616,-1.206,-6.874,-5.148
1621786386078.521,-0.274,0.426,0.614,-1.208342494226328,-6.879669515011547,-5.1453519630484985
1621786386084.079,-0.26,0.436,0.592,-1.2296827197391658,-6.931319046325227,-5.1212282298600735
1621786386089.633,-0.246,0.435,0.565,-1.2510070099171307,-6.982930009509578,-5.097122510528461
1621786386095.184,-0.236,0.44,0.545,-1.2723200516234205,-7.034513748132047,-5.073029506860482
1621786386095.882,-0.23436441647597253,0.4397483717655342,0.541854647069178,-1.275,-7.041,-5.07
1621786386100.732,-0.223,0.438,0.52,-1.2403599258895972,-7.051554397580514,-5.019663642308322
1621786386106.277,-0.218,0.45,0.499,-1.200753582911013,-7.063621955206801,-4.962110675167566
1621786386111.817,-0.215,0.45,0.482,-1.161185602964416,-7.07567782409678,-4.904613454307667
1621786386113.803,-0.21535862281784518,0.44964137718215486,0.47626203491447716,-1.147,-7.08,-4.884
1621786386117.355,-0.216,0.449,0.466,-1.1043075243281606,-7.095687002688722,-4.837137561588121
1621786386122.891,-0.222,0.443,0.45,-1.0377672412616523,-7.120136688094556,-4.764097995059302
1621786386128.422,-0.227,0.447,0.436,-0.9712885804364739,-7.144563730909389,-4.6911260696884085
1621786386131.691,-0.22995615119667934,0.44463507904265653,0.42890523712796963,-0.932,-7.159,-4.648
1621786386133.951,-0.232,0.443,0.424,-0.944405114180227,-7.163936729112539,-4.6654684260905235
1621786386139.477,-0.241,0.436,0.408,-0.9747378093805552,-7.176007903733078,-4.708181813209353
1621786386144.998,-0.248,0.44,0.391,-1.0050423629153562,-7.188067879119377,-4.750855572268563
1621786386149.545,-0.2578862248960453,0.432585331327966,0.3753468105812616,-1.03,-7.198,-4.786
1621786386150.517,-0.26,0.431,0.372,-1.0214353859853416,-7.20012751558326,-4.791346064798958
1621786386156.033,-0.274,0.421,0.349,-0.9728416329885609,-7.21219857524488,-4.821678471128159
1621786386161.546,-0.286,0.412,0.33,-0.9242736899787657,-7.224263223508459,-4.851994766764847
1621786386167.055,-0.307,0.412,0.318,-0.875740160284951,-7.236319323241318,-4.882289581478184
1621786386167.366,-0.3080166245511371,0.4121129582834597,0.31670097974021366,-0.873,-7.237,-4.884
1621786386172.562,-0.325,0.414,0.295,-0.743881107938948,-7.2486849676073355,-4.820901174920391
1621786386178.064,-0.339,0.419,0.283,-0.6071605633029538,-7.261057867574394,-4.754087515098276
1621786386183.564,-0.356,0.421,0.274,-0.47048855276161194,-7.273426375315691,-4.687297573295267
1621786386185.153,-0.3635161662817552,0.42331266654823235,0.2734218333629419,-0.431,-7.277,-4.668
1621786386189.061,-0.382,0.429,0.272,-0.42011617289946573,-7.229022313189482,-4.637569707902588
1621786386194.492,-0.403,0.435,0.264,-0.40499086935405537,-7.162347505723999,-4.595280593908277
1621786386199.919,-0.431,0.442,0.251,-0.38987644487615347,-7.095720654964269,-4.553021896898633
1621786386202.747,-0.44664489263044166,0.4346990501057939,0.24682802863188222,-0.382,-7.061,-4.531
1621786386205.342,-0.461,0.428,0.243,-0.39801020920502095,-7.010152761506276,-4.593410167364016
1621786386210.76,-0.496,0.421,0.239,-0.4314374895397489,-6.90399019525802,-4.723714658298466
1621786386216.174,-0.527,0.407,0.236,-0.46484066945606695,-6.797904170153417,-4.85392520223152
1621786386220.252,-0.5465982670698136,0.40021598447583373,0.23147732298388918,-0.49,-6.718,-4.952
1621786386221.584,-0.553,0.398,0.23,-0.49450089485458615,-6.696258389261745,-5.011121923937361
1621786386226.99,-0.586,0.394,0.213,-0.5127676314317674,-6.608020763422819,-5.2510663450783
1621786386232.391,-0.614,0.375,0.195,-0.5310178691275168,-6.5198628355704695,-5.490794043624161
1621786386237.713,-0.6347036635006784,0.36711289009497966,0.18218344640434192,-0.549,-6.433,-5.727
1621786386237.789,-0.635,0.367,0.182,-0.5489169107856192,-6.432658896909384,-5.730257971827038
1621786386243.182,-0.656,0.356,0.169,-0.5430343541944075,-6.408509454061251,-5.960916111850866
1621786386248.57,-0.665,0.337,0.152,-0.5371568575233023,-6.384380783516715,-6.191375849744201
1621786386253.954,-0.674,0.312,0.131,-0.5312838881491345,-6.3602706987175,-6.421658069941833
1621786386255.131,-0.6735624432746415,0.30871832455981124,0.12946855146124525,-0.53,-6.355,-6.472
1621786386259.334,-0.672,0.297,0.124,-0.5440323238001546,-6.355,-6.5953876747944635
1621786386264.71,-0.66,0.276,0.112,-0.561981308411215,-6.355,-6.753214953271028
1621786386270.082,-0.651,0.262,0.108,-0.5799172510716042,-6.355,-6.910927552526175
1621786386272.503,-0.6437840996952745,0.2579410560785919,0.10258807477145586,-0.588,-6.355,-6.982
1621786386275.45,-0.635,0.253,0.096,-0.5681016259017132,-6.351598568530208,-7.038803905545537
1621786386280.813,-0.611,0.246,0.096,-0.5318902445897205,-6.3454085888187555,-7.142176566726781
1621786386286.171,-0.592,0.234,0.093,-0.495713480613165,-6.339224526600541,-7.245450405770965
1621786386289.831,-0.5749123734840886,0.234,0.09163298987872709,-0.471,-6.335,-7.316
1621786386291.526,-0.567,0.234,0.091,-0.471,-6.331167301349113,-7.322682654057957
1621786386296.876,-0.559,0.216,0.094,-0.471,-6.319068517391243,-7.3437779696768075
1621786386302.202,-0.555,0.202,0.101,-0.471,-6.307024391625023,-7.364777983833293
1621786386307.077,-0.55316798935731,0.19741997339327494,0.09916798935730997,-0.471,-6.296,-7.384
1621786386307.524,-0.553,0.197,0.099,-0.47253587727654006,-6.296494604546683,-7.3921739909293835
1621786386312.84,-0.548,0.176,0.103,-0.4908011572856391,-6.302376643871646,-7.489382430299843
1621786386318.151,-0.543,0.168,0.11,-0.5090479832804925,-6.308252740378464,-7.586492656780926
1621786386323.459,-0.534,0.154,0.112,-0.527285582268223,-6.314125865476208,-7.683553776817322
1621786386324.249,-0.5298285530132131,0.15265917775424703,0.11214898024952812,-0.53,-6.315,-7.698
1621786386328.762,-0.506,0.145,0.113,-0.53,-6.361644688070256,-7.809209369297445
1621786386334.06,-0.478,0.134,0.12,-0.53,-6.41640456774635,-7.939766822536496
1621786386339.354,-0.438,0.124,0.126,-0.53,-6.47112154995438,-8.070222000456203
1621786386341.374,-0.4200495753323486,0.11674344534711964,0.12179883677991138,-0.53,-6.492,-8.12
1621786386344.643,-0.391,0.105,0.115,-0.5449332990177155,-6.5276101745807065,-8.15197257610203
1621786386349.928,-0.332,0.094,0.108,-0.5690752798867584,-6.585179513576116,-8.203661176167804
1621786386355.207,-0.271,0.08,0.098,-0.5931904945738429,-6.6426850255222405,-8.25529246915169
1621786386358.449,-0.22982194760714617,0.07508321762473387,0.09492701101545867,-0.608,-6.678,-8.287
1621786386360.482,-0.204,0.072,0.093,-0.5916437552869658,-6.670956069795117,-8.274106026065638
1621786386365.753,-0.143,0.07,0.082,-0.5492357664128923,-6.652692775316501,-8.24067491074885
1621786386371.02,-0.082,0.056,0.082,-0.5068592054138529,-6.634443015470199,-8.207268570691213
1621786386375.477,-0.030321685461042282,0.05261125806301917,0.07352814515754791,-0.471,-6.619,-8.179
1621786386376.281,-0.021,0.052,0.072,-0.4612459091824116,-6.604605613550743,-8.155325022287407
1621786386381.538,0.031,0.056,0.052,-0.39746369309521756,-6.510480401460904,-8.000513818192276
1621786386386.791,0.072,0.07,0.047,-0.33373183216863656,-6.416429499899348,-7.8458248353607685
1621786386392.039,0.093,0.077,0.049,-0.27005921260748283,-6.322466022488713,-7.691279642251172
1621786386392.456,0.09395458991197429,0.07723864747799357,0.04868180336267524,-0.265,-6.315,-7.679
1621786386397.281,0.105,0.08,0.045,-0.15874118545852917,-6.262013030818462,-7.472179894484966
1621786386402.52,0.112,0.093,0.047,-0.04336356560094562,-6.204478882578488,-7.247611122322484
1621786386407.756,0.115,0.106,0.045,0.07194953440770313,-6.1469769077752465,-7.023167930348546
1621786386409.393,0.115,0.11163182454503033,0.04687727484834344,0.108,-6.129,-6.953
1621786386412.988,0.115,0.124,0.051,0.16227924020989637,-6.129,-6.886162033623893
1621786386418.215,0.112,0.147,0.056,0.2412007025456438,-6.129,-6.788980311375168
1621786386423.438,0.103,0.18,0.065,0.32005949954464635,-6.129,-6.691875753501887
1621786386426.282,0.10027483273288729,0.19689603705609882,0.07154040144107052,0.363,-6.129,-6.639
1621786386428.656,0.098,0.211,0.077,0.3656780501239328,-6.147041600834915,-6.647316050384844
1621786386433.868,0.091,0.236,0.087,0.3715574221977417,-6.186650002174259,-6.665573047877198
1621786386439.077,0.075,0.26,0.101,0.3774334893968604,-6.226236139094638,-6.683819782863935
1621786386443.125,0.05710907299680991,0.2740015950459749,0.10800079752298743,0.382,-6.257,-6.698
1621786386444.281,0.052,0.278,0.11,0.38337669360935045,-6.283294847938594,-6.717549049252777
1621786386449.481,0.047,0.297,0.124,0.38956934349014366,-6.4015744606617435,-6.80548467756004
1621786386454.676,0.049,0.295,0.134,0.39575617840320987,-6.519743007501308,-6.8933377333255805
1621786386459.866,0.066,0.3,0.138,0.4019369076001628,-6.63779493516311,-6.981104087922312
1621786386459.919,0.06625543836519447,0.30002043506921555,0.13802043506921557,0.402,-6.639,-6.982
1621786386465.051,0.091,0.302,0.14,0.34806542655548434,-6.735224182168056,-7.048192431045543
1621786386470.232,0.122,0.302,0.141,0.2936177036561899,-6.832363869613388,-7.115014636421949
1621786386475.409,0.157,0.3,0.141,0.23921103271327776,-6.929430316636539,-7.181786459851887
1621786386476.666,0.16502062780269058,0.2982986547085202,0.14075695067264574,0.226,-6.953,-7.198
1621786386480.581,0.19,0.293,0.14,0.17300858300068722,-6.959799783597258,-7.152042841894402
1621786386485.748,0.218,0.286,0.138,0.1030715445014695,-6.968774005351581,-7.091389481072071
1621786386490.911,0.257,0.274,0.134,0.03319068298460326,-6.977741018555073,-7.030784840110541
1621786386493.363,0.26745853843241196,0.27304922377887164,0.13067228322605073,0.0,-6.982,-7.002
1621786386496.069,0.279,0.272,0.127,-0.011213688748130553,-6.951771795548518,-6.925454385501891
1621786386501.223,0.302,0.267,0.12,-0.03257068707662532,-6.894200756576054,-6.779669657781296
1621786386506.371,0.316,0.262,0.112,-0.053904416292777334,-6.836692443036862,-6.634043767044955
1621786386510.014,0.31246254148885727,0.2605850165955429,0.10421759127548602,-0.069,-6.796,-6.531
1621786386511.52,0.311,0.26,0.101,-0.056524589683470114,-6.77999893024619,-6.489324897420867
1621786386516.677,0.298,0.253,0.098,-0.01380808909730364,-6.725210375146542,-6.346627022274326
1621786386521.83,0.281,0.248,0.086,0.0288760550996483,-6.6704633206330595,-6.204037236225088
1621786386526.674,0.25935801005406434,0.2527047804230295,0.08411808783078821,0.069,-6.619,-6.07
1621786386526.978,0.258,0.253,0.084,0.07258673604374284,-6.619365993473851,-6.0685726254519805
1621786386532.122,0.232,0.244,0.087,0.1332875621013023,-6.62555995531646,-6.044416174265809
1621786386537.261,0.201,0.244,0.08,0.19392788899667812,-6.631747743775171,-6.020283799276832
1621786386542.395,0.178,0.243,0.089,0.2545105976423553,-6.637929652820649,-5.9961743539994705
1621786386543.284,0.1734946697125452,0.24230687226346848,0.08848015419760137,0.265,-6.639,-5.992
1621786386547.525,0.152,0.239,0.086,0.2598796627905263,-6.644120337209474,-6.049603793606579
1621786386552.651,0.131,0.243,0.086,0.2536908077994429,-6.650309192200557,-6.119228412256267
1621786386557.772,0.12,0.236,0.084,0.2475078480788787,-6.656492151921121,-6.188786709112614
1621786386559.849,0.11512877522782575,0.23153471062550693,0.08602967698840594,0.245,-6.659,-6.217
1621786386562.889,0.108,0.225,0.089,0.22696387447711114,-6.669858483733168,-6.280310481427283
1621786386568.002,0.096,0.223,0.084,0.1966265058460083,-6.6881228179090355,-6.386800836622175
1621786386573.11,0.101,0.209,0.087,0.16631810858350699,-6.7063697101385005,-6.493189496400751
1621786386576.366,0.10355222238170422,0.20836194440457392,0.0825336108320176,0.147,-6.718,-6.561
1621786386578.213,0.105,0.208,0.08,0.12939628570158146,-6.718,-6.578603714298419
1621786386583.313,0.117,0.195,0.075,0.08078536809497694,-6.718,-6.627214631905023
1621786386588.407,0.124,0.187,0.066,0.032232625353866215,-6.718,-6.675767374646134
1621786386592.838,0.1344439648971371,0.1687230614300101,0.05729669591905241,-0.01,-6.718,-6.718
1621786386593.498,0.136,0.166,0.056,-0.006825630814039885,-6.714021993045442,-6.715629268582638
1621786386598.583,0.147,0.157,0.051,0.017625464380182483,-6.683380747169139,-6.697368324070497
1621786386603.665,0.148,0.15,0.042,0.04206247213718905,-6.652757155169851,-6.67911790055577
1621786386608.742,0.147,0.136,0.037,0.06647482687906797,-6.622164457455345,-6.6608858887865185
1621786386609.267,0.14638145219266713,0.13527836089144502,0.037,0.069,-6.619,-6.659
1621786386613.836,0.141,0.129,0.037,0.1287004228800356,-6.583735099042956,-6.631787714222123
1621786386618.926,0.131,0.126,0.028,0.19521181096520512,-6.544446976778692,-6.601470895467022
1621786386624.014,0.117,0.126,0.024,0.26169448772164106,-6.505175814229542,-6.571167163736182
1621786386625.721,0.11297002881844381,0.1239850144092219,0.02366416906820365,0.284,-6.492,-6.561
1621786386629.097,0.105,0.12,0.023,0.3183606469564182,-6.502081866472243,-6.561
1621786386634.176,0.094,0.122,0.019,0.3700556787239424,-6.517249869805229,-6.561
1621786386639.25,0.079,0.126,0.019,0.4216985284270984,-6.532402562233101,-6.561
1621786386642.129,0.07956771460208946,0.12770314380626835,0.017864570795821096,0.451,-6.541,-6.561
1621786386644.321,0.08,0.129,0.017,0.46158228282436486,-6.556806447762976,-6.574127388820098
1621786386649.387,0.079,0.133,0.016,0.4860373856872194,-6.593334322925214,-6.604464098700601
1621786386654.448,0.087,0.131,0.024,0.5104689173665916,-6.629826990496934,-6.6347715683788095
1621786386658.494,0.0941989574283232,0.13659918911091806,0.020000579206487113,0.53,-6.659,-6.659
1621786386659.506,0.096,0.138,0.019,0.5335970740901408,-6.661418722233026,-6.6662561666990765
1621786386664.559,0.103,0.136,0.017,0.5515538137051054,-6.673493081629295,-6.7024792448878845
1621786386669.609,0.106,0.138,0.019,0.5694992745059909,-6.685559856995408,-6.738679570986223
1621786386674.654,0.119,0.136,0.019,0.5874282508862994,-6.697615548009753,-6.7748466440292585
1621786386674.815,0.11960640255714838,0.1362234114684231,0.019063831848120882,0.588,-6.698,-6.776
1621786386679.695,0.138,0.143,0.021,0.5706117435320585,-6.698,-6.758611743532058
1621786386684.732,0.145,0.145,0.016,0.5526650168728909,-6.698,-6.7406650168728905
1621786386689.764,0.157,0.136,0.016,0.5347356880389952,-6.698,-6.722735688038995
1621786386691.093,0.15752867200776888,0.13414964797280896,0.013620975965040059,0.53,-6.698,-6.718
1621786386694.792,0.159,0.129,0.007,0.5208852459016393,-6.702557377049181,-6.666501639344262
1621786386699.815,0.166,0.12,0.005,0.5085080463227553,-6.708745976838623,-6.596570461723568
1621786386704.835,0.166,0.124,0.005,0.4961380658745676,-6.714930967062716,-6.526680072191307
1621786386707.326,0.166,0.12052384892436484,0.004006813978389954,0.49,-6.718,-6.492
1621786386709.851,0.166,0.117,0.003,0.49,-6.718,-6.473659142822794
1621786386714.862,0.164,0.108,0.002,0.49,-6.718,-6.4372629237797545
1621786386719.902,0.161,0.103,0.0,0.49,-6.718,-6.400655686463092
1621786386723.572,0.15444121782130218,0.10154249284917827,0.0,0.49,-6.718,-6.374
1621786386724.938,0.152,0.101,0.0,0.4884032534246575,-6.713041681687095,-6.374
1621786386729.969,0.154,0.086,-0.007,0.4825222602739726,-6.694779650324441,-6.374
1621786386734.997,0.145,0.087,-0.007,0.4766446917808219,-6.6765282534246575,-6.374
1621786386739.826,0.143077655748858,0.08027179512100302,-0.009883516376712994,0.471,-6.659,-6.374
1621786386740.021,0.143,0.08,-0.01,0.4712285985333313,-6.6585187399298285,-6.373290141396497
1621786386745.041,0.138,0.082,-0.014,0.4771115059705763,-6.646133671640892,-6.355022165670316
1621786386750.057,0.138,0.087,-0.016,0.4829895496092397,-6.633758842927916,-6.336769293318677
1621786386755.069,0.124,0.087,-0.016,0.48886330166091946,-6.621393049134906,-6.318529747473987
1621786386756.039,0.12031986154446178,0.08913060647425897,-0.017549531981279252,0.49,-6.619,-6.315
1621786386760.077,0.105,0.098,-0.024,0.5097261459025303,-6.628987921975964,-6.319993960987983
1621786386765.082,0.099,0.094,-0.026,0.5341777885137992,-6.641368500513316,-6.3261842502566585
1621786386770.082,0.091,0.091,-0.017,0.5586043843227247,-6.65373639712543,-6.332368198562715
1621786386772.21,0.08801842349606608,0.09227781850168597,-0.01955563700337194,0.569,-6.659,-6.335
1621786386775.078,0.084,0.094,-0.023,0.562066260045707,-6.659,-6.352423243987711
1621786386780.07,0.079,0.112,-0.021,0.5499967006190123,-6.659,-6.382751880495815
1621786386785.059,0.075,0.113,-0.028,0.5379348145233303,-6.659,-6.41306123530035
1621786386788.341,0.07170740668168904,0.113,-0.029317037327324384,0.53,-6.659,-6.433
1621786386790.043,0.07,0.113,-0.03,0.5216432625189682,-6.659,-6.441356737481032
1621786386795.024,0.07,0.112,-0.035,0.4971856297420334,-6.659,-6.4658143702579665
1621786386800.001,0.075,0.103,-0.037,0.4727471775417299,-6.659,-6.490252822458269
1621786386804.43,0.0723282768777614,0.10121885125184095,-0.039671723122238586,0.451,-6.659,-6.512
1621786386804.974,0.072,0.101,-0.04,0.44802276728796064,-6.6576467124036185,-6.514300588913848
1621786386809.943,0.072,0.098,-0.044,0.42083765405864854,-6.645289842753931,-6.535307267318316
1621786386814.908,0.066,0.091,-0.047,0.3936752474045292,-6.632943294274786,-6.556296399732863
1621786386819.902,0.065,0.079,-0.051,0.36635255904316677,-6.620523890474167,-6.577409386193916
1621786386820.515,0.06450897442167555,0.07740416687044555,-0.05112275639458111,0.363,-6.619,-6.58
1621786386824.894,0.061,0.066,-0.052,0.32578067066521266,-6.5950926935659755,-6.606624045801527
1621786386829.882,0.049,0.051,-0.058,0.28338628377559677,-6.567861262571186,-6.636949957591179
1621786386834.866,0.04,0.037,-0.066,0.2410271719374773,-6.540652490003635,-6.667250636132316
1621786386836.634,0.03822482596332974,0.028834199431316793,-0.06564496519266595,0.226,-6.531,-6.678
1621786386839.846,0.035,0.014,-0.065,0.21801117318435753,-6.523210893854748,-6.709356145251396
1621786386844.823,0.03,0.0,-0.07,0.20563201360213748,-6.511141213262084,-6.757944346611611
1621786386849.797,0.017,-0.021,-0.079,0.19326014087928103,-6.499078637357299,-6.806503947048822
1621786386852.716,0.014062119127186948,-0.026875761745626107,-0.07958757617456261,0.186,-6.492,-6.835
1621786386854.765,0.012,-0.031,-0.08,0.186,-6.492,-6.8399812492390115
1621786386859.731,0.017,-0.045,-0.093,0.186,-6.492,-6.852055080360404
1621786386864.694,0.017,-0.063,-0.096,0.186,-6.492,-6.864121788627785
1621786386868.757,0.014541559976363996,-0.08020908016545204,-0.10419480007878669,0.186,-6.492,-6.874
1621786386869.652,0.014,-0.084,-0.106,0.19371765926287526,-6.488700421039785,-6.876237002684891
1621786386874.607,0.016,-0.096,-0.117,0.23644267146692702,-6.470433930314864,-6.888621064193312
1621786386879.559,0.019,-0.106,-0.124,0.2791445264827923,-6.452177340126922,-6.900998413473273
1621786386884.506,0.016,-0.119,-0.127,0.32180217232121067,-6.43393965096412,-6.913362948498901
1621786386884.761,0.016257777777777777,-0.11987644444444444,-0.1275671111111111,0.324,-6.433,-6.914
1621786386889.45,0.021,-0.136,-0.138,0.39593918268128236,-6.461775673072513,-6.919578957024262
1621786386894.391,0.024,-0.133,-0.138,0.47174763411762904,-6.492099053647052,-6.925457979788714
1621786386899.327,0.03,-0.15,-0.141,0.5474736809919124,-6.522389472396765,-6.931330611995291
1621786386900.73,0.03142210234583787,-0.14943115906166485,-0.141,0.569,-6.531,-6.933
1621786386904.26,0.035,-0.148,-0.141,0.5645675112276023,-6.541859597492374,-6.919924158121426
1621786386909.189,0.04,-0.152,-0.141,0.5583784583314173,-6.557022777088028,-6.901666452077681
1621786386914.115,0.047,-0.157,-0.136,0.5521930841035545,-6.572176943946292,-6.883419598105485
1621786386916.658,0.04906656415852388,-0.15958320519815486,-0.13703328207926196,0.549,-6.58,-6.874
1621786386919.037,0.051,-0.162,-0.138,0.5313289229019716,-6.574159559264211,-6.856478677792633
1621786386923.956,0.052,-0.166,-0.138,0.4947935856653297,-6.562084320685999,-6.820252962057996
1621786386928.87,0.051,-0.169,-0.138,0.4582945153904077,-6.550021068645982,-6.784063205937946
1621786386932.545,0.05474148645289585,-0.17947616206810837,-0.13500681083768332,0.431,-6.541,-6.757
1621786386933.781,0.056,-0.183,-0.134,0.42951817677685694,-6.542559813919098,-6.750838735019562
1621786386938.688,0.056,-0.19,-0.14,0.42363566345235526,-6.548751933208047,-6.726379863828214
1621786386943.592,0.056,-0.199,-0.138,0.4177566622508395,-6.554940355525432,-6.701935595674543
1621786386948.394,0.04717982062780269,-0.2078201793721973,-0.13603996013951172,0.412,-6.561,-6.678
1621786386948.492,0.047,-0.208,-0.136,0.41169665297804675,-6.560876184888999,-6.678247630222002
1621786386953.389,0.047,-0.215,-0.14,0.3965232500694723,-6.5546829592120295,-6.690634081575941
1621786386958.282,0.049,-0.225,-0.145,0.38136195078272145,-6.548494673788866,-6.703010652422268
1621786386963.171,0.049,-0.223,-0.148,0.36621351159415816,-6.542311637385371,-6.715376725229259
1621786386964.208,0.04857547594063859,-0.22639619247489132,-0.14884904811872282,0.363,-6.541,-6.718
1621786386968.057,0.047,-0.239,-0.152,0.363,-6.541,-6.713120252576841
1621786386972.938,0.052,-0.25,-0.159,0.363,-6.541,-6.706931810443558
1621786386977.816,0.056,-0.255,-0.164,0.363,-6.541,-6.700747392206024
1621786386979.983,0.05733326657320248,-0.255888844382135,-0.16622211095533748,0.363,-6.541,-6.698
1621786386982.692,0.059,-0.257,-0.169,0.3697130602050789,-6.541,-6.684401749840994
1621786386987.562,0.061,-0.258,-0.176,0.3817815646184633,-6.541,-6.659955292183113
1621786386992.429,0.051,-0.265,-0.176,0.39384220405503934,-6.541,-6.63552476614492
1621786386995.721,0.046262360086332374,-0.2690608342117151,-0.176,0.402,-6.541,-6.619
1621786386997.293,0.044,-0.271,-0.176,0.40300121283741763,-6.541,-6.619
1621786387002.153,0.047,-0.272,-0.185,0.40609659161587264,-6.541,-6.619
1621786387007.009,0.044,-0.269,-0.19,0.4091893270307252,-6.541,-6.619
1621786387011.422,0.044,-0.27081869403360503,-0.188181305966395,0.412,-6.541,-6.619
1621786387011.862,0.044,-0.271,-0.188,0.41171908273185026,-6.540719082731851,-6.619
1621786387016.711,0.042,-0.279,-0.194,0.40862291299671066,-6.537622912996711,-6.619
1621786387021.556,0.037,-0.279,-0.197,0.40552923753254244,-6.534529237532542,-6.619
1621786387026.397,0.03,-0.29,-0.201,0.4024380563393456,-6.531438056339345,-6.619
1621786387027.083,0.03,-0.29,-0.20072403633685246,0.402,-6.531,-6.619
1621786387031.369,0.03,-0.29,-0.199,0.402,-6.531,-6.6346729212378
1621786387036.362,0.03,-0.302,-0.202,0.402,-6.531,-6.652932253915412
1621786387041.351,0.026,-0.302,-0.201,0.402,-6.531,-6.671176409170008
1621786387043.217,0.023380740233036323,-0.302,-0.20287089983354548,0.402,-6.531,-6.678
1621786387046.338,0.019,-0.302,-0.206,0.402,-6.531,-6.685748446734354
1621786387051.323,0.019,-0.307,-0.208,0.402,-6.531,-6.698125473556599
1621786387056.305,0.021,-0.305,-0.209,0.402,-6.531,-6.7104946203970295
1621786387059.328,0.018571918815570156,-0.31046318266496714,-0.209,0.402,-6.531,-6.718
1621786387061.285,0.017,-0.314,-0.209,0.41270730559645424,-6.5346502178169725,-6.725057087779481
1621786387066.262,0.017,-0.312,-0.211,0.43993773622136884,-6.543933319166375,-6.743004417054993
1621786387071.237,0.01,-0.311,-0.216,0.46715748091255443,-6.553212777583825,-6.760944703328729
1621786387075.412,0.01167945003682789,-0.3168780751288976,-0.21012192487110237,0.49,-6.561,-6.776
1621786387076.209,0.012,-0.318,-0.209,0.49779116050659084,-6.563878263117084,-6.773121736882915
1621786387081.18,0.014,-0.316,-0.215,0.5463928207623189,-6.581833016587353,-6.755166983412646
1621786387086.148,0.023,-0.312,-0.208,0.5949658370455962,-6.599777188207927,-6.737222811792073
1621786387091.113,0.028,-0.309,-0.211,0.6435102093564229,-6.617710777978806,-6.719289222021194
1621786387091.47,0.028143841007477372,-0.3084965564738292,-0.2104965564738292,0.647,-6.619,-6.718
1621786387096.076,0.03,-0.302,-0.204,0.6866398848947153,-6.613542334688408,-6.678360115105285
1621786387101.037,0.035,-0.298,-0.201,0.7293369113415247,-6.607663758583413,-6.635663088658475
1621786387105.995,0.035,-0.291,-0.202,0.7720066231215457,-6.6017889431934105,-6.5929933768784545
1621786387107.505,0.03347647203744765,-0.28734353288987435,-0.19986706085242673,0.785,-6.6,-6.58
1621786387110.95,0.03,-0.279,-0.195,0.7912414245405323,-6.585149714024251,-6.565364935560131
1621786387115.903,0.03,-0.272,-0.19,0.800214992755281,-6.563798810340883,-6.544323465263479
1621786387120.854,0.023,-0.269,-0.182,0.8091845801876001,-6.542457378174331,-6.523291329215282
1621786387123.512,0.019240491342311677,-0.2652404913423117,-0.182,0.814,-6.531,-6.512
1621786387125.803,0.016,-0.262,-0.182,0.8168626775064444,-6.528280456368877,-6.512
1621786387130.749,0.009,-0.264,-0.175,0.8230428761001205,-6.5224092677048855,-6.512
1621786387135.706,0.0,-0.251,-0.171,0.8292368023672609,-6.5165250377511015,-6.512
1621786387139.518,-0.009232224685883222,-0.24330647942843064,-0.1640758314855876,0.834,-6.512,-6.512
1621786387140.661,-0.012,-0.241,-0.162,0.8409985049124306,-6.519641224751327,-6.514070986147556
1621786387145.614,-0.016,-0.236,-0.157,0.8713308415207176,-6.552759184109354,-6.523046881674498
1621786387150.564,-0.017,-0.227,-0.154,0.9016437419906023,-6.585855922377494,-6.532017025691097
1621786387155.511,-0.019,-0.218,-0.145,0.9319387014096541,-6.618933071947275,-6.540981860621224
1621786387155.521,-0.01899595241621008,-0.21796761932968065,-0.14498178587294536,0.932,-6.619,-6.541
1621786387160.457,-0.017,-0.202,-0.136,0.9378699611870053,-6.631357813025274,-6.565097735399285
1621786387165.4,-0.014,-0.197,-0.127,0.943748051709911,-6.6437327404419175,-6.58922884386174
1621786387170.341,-0.01,-0.194,-0.12,0.9496241098988417,-6.6561033892607195,-6.613351609058403
1621786387171.498,-0.009297092850786117,-0.19118837140314446,-0.11882848808464352,0.951,-6.659,-6.619
1621786387175.279,-0.007,-0.182,-0.115,0.9464965181591393,-6.654259492799094,-6.609756010958233
1621786387180.215,-0.002,-0.173,-0.108,0.9406173036012183,-6.64807084589602,-6.5976881494972375
1621786387185.148,0.0,-0.157,-0.099,0.9347418693276603,-6.641886178239643,-6.585628047567303
1621786387187.45,0.002333679833679834,-0.14486486486486486,-0.09853326403326404,0.932,-6.639,-6.58
1621786387190.08,0.005,-0.131,-0.098,0.9351373982618293,-6.635697475513864,-6.568771416747137
1621786387195.009,0.0,-0.134,-0.089,0.9410169985132049,-6.629508422617679,-6.547728636900109
1621786387199.934,0.002,-0.122,-0.086,0.9468919391180393,-6.62332427461259,-6.526702533682807
1621786387203.378,-0.002895973819912733,-0.11850287584291948,-0.07830632685442285,0.951,-6.619,-6.512
1621786387204.858,-0.005,-0.117,-0.075,0.951,-6.620861021996408,-6.510138978003591
1621786387209.78,-0.01,-0.103,-0.068,0.951,-6.627050409074862,-6.503949590925139
1621786387214.7,-0.012,-0.093,-0.059,0.951,-6.633237033171136,-6.497762966828864
1621786387219.283,-0.018524528301886792,-0.07808679245283019,-0.056203773584905664,0.951,-6.639,-6.492
1621786387219.617,-0.019,-0.077,-0.056,0.9493593086905713,-6.63857930992066,-6.492820345654715
1621786387224.531,-0.019,-0.072,-0.049,0.9252190786641245,-6.632389507349775,-6.504890460667938
1621786387229.444,-0.024,-0.068,-0.045,0.9010836459806876,-6.626200934866843,-6.516958177009656
1621786387234.354,-0.026,-0.068,-0.033,0.8769638046620334,-6.620016360169752,-6.529018097668983
1621786387235.161,-0.026328872083188216,-0.06767112791681179,-0.03217781979202945,0.873,-6.619,-6.531
1621786387239.261,-0.028,-0.066,-0.028,0.8450625981947568,-6.629347185853794,-6.533586796463449
1621786387244.167,-0.024,-0.052,-0.028,0.8116338683343088,-6.641728196913219,-6.536682049228305
1621786387249.069,-0.03,-0.047,-0.024,0.7782317550291119,-6.654099349989218,-6.539774837497305
1621786387251.011,-0.02920737419033383,-0.04581106128550075,-0.02201843547583458,0.765,-6.659,-6.541
1621786387253.969,-0.028,-0.044,-0.019,0.7577115621915104,-6.6735768756169795,-6.54828843780849
1621786387258.867,-0.023,-0.04,-0.012,0.7456431700394867,-6.6977136599210265,-6.560356829960513
1621786387263.763,-0.019,-0.037,-0.014,0.733579590325765,-6.72184081934847,-6.572420409674235
1621786387266.839,-0.019,-0.03322792136513322,-0.010856601137611017,0.726,-6.737,-6.58
1621786387268.656,-0.019,-0.031,-0.009,0.7147320818848977,-6.734815403630746,-6.584484171494785
1621786387273.548,-0.014,-0.028,-0.005,0.6843925840092699,-6.72893325608343,-6.5965580533024335
1621786387278.436,-0.009,-0.028,-0.002,0.6540788258014678,-6.723056098879876,-6.6086216917728855
1621786387282.641,-0.009,-0.02455812559324574,-0.002,0.628,-6.718,-6.619
1621786387283.323,-0.009,-0.024,-0.002,0.628,-6.717135588499272,-6.618178809074309
1621786387288.206,-0.01,-0.024,-0.002,0.628,-6.7109454365386405,-6.612298164711707
1621786387293.088,-0.005,-0.024,0.0,0.628,-6.704756832038625,-6.606418990436693
1621786387297.966,-0.005,-0.021,0.002,0.628,-6.6985728699204605,-6.600544226424437
1621786387298.418,-0.004536694032839407,-0.020351371645975173,0.0022779835802963556,0.628,-6.698,-6.6
1621786387302.843,0.0,-0.014,0.005,0.6223823707170419,-6.692382370717042,-6.583427993615274
1621786387307.718,-0.005,-0.014,0.005,0.6161935253916844,-6.686193525391684,-6.5651708999054685
1621786387312.59,-0.002,-0.01,0.012,0.6100083993243348,-6.680008399324334,-6.546924778006788
1621786387314.172,-0.002,-0.011949556235270522,0.011025221882364739,0.608,-6.678,-6.541
1621786387317.459,-0.002,-0.016,0.009,0.5998501047729918,-6.678,-6.541
1621786387322.327,-0.005,-0.016,0.01,0.5877799301513388,-6.678,-6.541
1621786387327.192,-0.009,-0.007,0.012,0.575717019790454,-6.678,-6.541
1621786387329.901,-0.011785839819231734,-0.009785839819231736,0.01422867185538539,0.569,-6.678,-6.541
1621786387332.054,-0.014,-0.012,0.016,0.5609109352652197,-6.6888311205770785,-6.543742055842299
1621786387336.914,-0.012,-0.005,0.017,0.5426516074870965,-6.7132800509918535,-6.54993165847895
1621786387341.771,-0.005,-0.003,0.016,0.5244042037186742,-6.737713015359741,-6.556117219078415
1621786387345.605,-0.005,-0.0006313725490196078,0.021526797385620914,0.51,-6.757,-6.561
1621786387346.627,-0.005,0.0,0.023,0.5086963765746407,-6.758238442254091,-6.561
1621786387351.48,-0.005,-0.005,0.017,0.5025058781395494,-6.764119415767428,-6.561
1621786387356.331,0.005,-0.002,0.023,0.4963178711013531,-6.769998022453715,-6.561
1621786387361.179,0.007,0.0,0.024,0.49013391258311145,-6.775872783046044,-6.561
1621786387361.284,0.007108317799385359,4.332711975414378e-05,0.024,0.49,-6.776,-6.561
1621786387366.025,0.012,0.002,0.024,0.4781885088663267,-6.746319842792308,-6.554942825059655
1621786387370.869,0.017,-0.005,0.023,0.46612033874514575,-6.715994697359597,-6.548754019869306
1621786387375.71,0.012,0.0,0.021,0.4540594675525195,-6.68568789282428,-6.542568957719241
1621786387376.938,0.010731143736441148,0.0,0.02150754250542354,0.451,-6.678,-6.541
1621786387380.549,0.007,0.0,0.023,0.44637961733697773,-6.682620382663022,-6.511660570089809
1621786387385.386,-0.002,0.0,0.019,0.4401907848496681,-6.688809215150332,-6.4723614837953924
1621786387390.22,0.0,0.0,0.023,0.43400570089808665,-6.694994299101913,-6.43308620070285
1621786387392.569,-0.0034037800687285224,-0.00243127147766323,0.024458762886597936,0.431,-6.698,-6.414
1621786387395.051,-0.007,-0.005,0.026,0.42797809693670014,-6.7104057073124945,-6.410819049407053
1621786387399.88,-0.01,0.0,0.024,0.4220986733001658,-6.734542288557214,-6.4046301824212275
1621786387404.707,-0.016,0.002,0.024,0.416221330454645,-6.758670327607247,-6.3984435057417315
1621786387408.174,-0.016,0.007029954966351263,0.028311389971158223,0.412,-6.776,-6.394
1621786387409.532,-0.016,0.009,0.03,0.4093854181356649,-6.776,-6.399142010999859
1621786387414.354,-0.017,0.007,0.024,0.4001008790485592,-6.776,-6.417401604537834
1621786387419.174,-0.016,0.002,0.026,0.3908201005970009,-6.776,-6.435653802159232
1621786387423.755,-0.014098408837539272,0.013409546974764366,0.019344430931387453,0.382,-6.776,-6.453
1621786387423.992,-0.014,0.014,0.019,0.3814056781443234,-6.775405678144323,-6.4532895414168685
1621786387428.807,-0.017,0.005,0.021,0.3693343953043096,-6.76333439530431,-6.459170422800465
1621786387433.619,-0.016,0.01,0.017,0.35727045732759977,-6.7512704573276,-6.465047725917324
1621786387438.431,-0.019,0.009,0.017,0.34520651935088986,-6.73920651935089,-6.470925029034182
1621786387439.311,-0.019366175723717623,0.007718384966988318,0.01681691213814119,0.343,-6.737,-6.472
1621786387443.238,-0.021,0.002,0.016,0.3381952615278193,-6.722080022639018,-6.4821152388888015
1621786387448.044,-0.021,0.005,0.016,0.3323151697140252,-6.703820790164604,-6.494494379549421
1621786387452.847,-0.023,0.007,0.01,0.3264386624113698,-6.685572688540569,-6.5068659738708
1621786387454.84,-0.023,0.005339384693618103,0.006678769387236207,0.324,-6.678,-6.512
1621786387457.648,-0.023,0.003,0.002,0.320378550286542,-6.670938173058757,-6.512
1621786387462.447,-0.03,0.002,0.003,0.31418892877385224,-6.658868411109012,-6.512
1621786387467.243,-0.033,0.005,0.0,0.3080034007179293,-6.646806631399962,-6.512
1621786387470.347,-0.037532158680042775,0.0030576462799816674,-0.004532158680042777,0.304,-6.639,-6.512
1621786387472.037,-0.04,0.002,-0.007,0.3018168803115589,-6.636816880311559,-6.505559796919099
1621786387476.829,-0.045,-0.002,-0.012,0.29562732762562477,-6.630627327625625,-6.487300616495593
1621786387481.617,-0.054,0.003,-0.007,0.28944313577093483,-6.624443135770934,-6.469057250524258
1621786387485.831,-0.06368334353325174,0.00035908812729498144,-0.009640911872705018,0.284,-6.619,-6.453
1621786387486.404,-0.065,0.0,-0.01,0.27966249131231435,-6.621187290705755,-6.455187290705756
1621786387491.188,-0.066,-0.009,-0.01,0.2434488216339167,-6.639448884817084,-6.473448884817085
1621786387495.97,-0.072,-0.009,-0.009,0.207249936816832,-6.657703023314589,-6.491703023314589
1621786387500.75,-0.075,-0.017,-0.01,0.17106583686106022,-6.675949706198269,-6.5099497061982685
1621786387501.287,-0.07544973680175807,-0.017449736801758063,-0.010449736801758062,0.167,-6.678,-6.512
1621786387505.527,-0.079,-0.021,-0.014,0.12908618480375872,-6.678,-6.530682169806843
1621786387510.302,-0.075,-0.031,-0.017,0.08638920791609321,-6.678,-6.551721259867432
1621786387515.075,-0.075,-0.031,-0.019,0.043709695790422845,-6.678,-6.57275174410327
1621786387516.72,-0.07327566792916368,-0.034793530555839905,-0.020379465656669055,0.029,-6.678,-6.58
1621786387519.845,-0.07,-0.042,-0.023,0.029,-6.682056088093163,-6.5998748316565
1621786387524.613,-0.066,-0.049,-0.026,0.029,-6.688244791254061,-6.630199477144894
1621786387529.379,-0.063,-0.054,-0.026,0.029,-6.694430642478016,-6.66051014814228
1621786387532.129,-0.06069014662155234,-0.060929560135342974,-0.030042243412283398,0.029,-6.698,-6.678
1621786387534.141,-0.059,-0.066,-0.033,0.029,-6.6928985383040525,-6.678
1621786387538.902,-0.058,-0.063,-0.035,0.029,-6.680828215016902,-6.678
1621786387543.66,-0.056,-0.063,-0.035,0.029,-6.6687659381993045,-6.678
1621786387547.512,-0.0527603305785124,-0.06704958677685952,-0.04066942148760331,0.029,-6.659,-6.678
1621786387548.416,-0.052,-0.068,-0.042,0.029,-6.66011851769419,-6.676881482305809
1621786387553.17,-0.047,-0.086,-0.047,0.029,-6.666000174875203,-6.670999825124797
1621786387557.921,-0.044,-0.089,-0.049,0.029,-6.671878207370195,-6.6651217926298045
1621786387562.67,-0.037,-0.096,-0.049,0.029,-6.677753823407841,-6.659246176592159
1621786387562.869,-0.037125745731331,-0.09612574573133101,-0.049083830487554006,0.029,-6.678,-6.659
1621786387567.417,-0.04,-0.099,-0.051,0.029,-6.683933180457354,-6.623994235301612
1621786387572.161,-0.033,-0.099,-0.056,0.029,-6.6901217911968915,-6.587481431938341
1621786387576.903,-0.031,-0.113,-0.059,0.029,-6.696308172495064,-6.550981782279126
1621786387578.2,-0.031,-0.11081072587708,-0.059,0.029,-6.698,-6.541
1621786387581.642,-0.031,-0.105,-0.059,0.04676485693323551,-6.698,-6.534478723404256
1621786387586.379,-0.033,-0.115,-0.061,0.07121153784809724,-6.698,-6.525504625346901
1621786387591.113,-0.03,-0.115,-0.061,0.09564435867172796,-6.698,-6.516535615171137
1621786387593.507,-0.03050593334021257,-0.11044659993808689,-0.06201186668042514,0.108,-6.698,-6.512
1621786387595.845,-0.031,-0.106,-0.063,0.11090705737613242,-6.694939939604072,-6.514907057376132
1621786387600.575,-0.035,-0.113,-0.063,0.11678856631568857,-6.688748877562433,-6.520788566315688
1621786387605.303,-0.033,-0.117,-0.061,0.12266764663588285,-6.682560371962229,-6.526667646635882
1621786387608.787,-0.03152526609486411,-0.1118384313320244,-0.06247473390513589,0.127,-6.678,-6.531
1621786387610.028,-0.031,-0.11,-0.063,0.12862656,-6.678,-6.53343984
1621786387614.751,-0.033,-0.115,-0.061,0.13481695999999999,-6.678,-6.54272544
1621786387619.472,-0.037,-0.113,-0.059,0.14100479999999999,-6.678,-6.5520072
1621786387624.046,-0.031183182406209573,-0.11203053040103493,-0.06093893919793014,0.147,-6.678,-6.561
1621786387624.19,-0.031,-0.112,-0.061,0.14681087015755476,-6.678,-6.561
1621786387628.906,-0.038,-0.106,-0.059,0.14061863089227614,-6.678,-6.561
1621786387633.618,-0.037,-0.112,-0.056,0.13443184113093234,-6.678,-6.561
1621786387638.329,-0.035,-0.106,-0.056,0.12824601304675354,-6.678,-6.561
1621786387639.278,-0.03641066984653671,-0.1049923786810452,-0.057007621318954795,0.127,-6.678,-6.561
1621786387643.038,-0.042,-0.101,-0.061,0.1319454907438627,-6.687890981487725,-6.543938056933674
1621786387647.744,-0.045,-0.108,-0.059,0.13813498065282662,-6.700269961305653,-6.522584316747748
1621786387652.448,-0.042,-0.113,-0.063,0.14432222275741374,-6.712644445514828,-6.501238331486922
1621786387654.484,-0.041134015265590115,-0.1099690534295654,-0.06213401526559011,0.147,-6.718,-6.492
1621786387657.15,-0.04,-0.106,-0.061,0.15051181862035695,-6.718,-6.485151953690304
1621786387661.849,-0.04,-0.105,-0.063,0.15670188133140375,-6.718,-6.473081331403763
1621786387666.546,-0.04,-0.098,-0.059,0.162888728091333,-6.718,-6.461016980221901
1621786387669.667,-0.04,-0.098,-0.059,0.167,-6.718,-6.453
1621786387671.24,-0.04,-0.098,-0.059,0.1649245252629375,-6.709801874788603,-6.442830173788394
1621786387675.933,-0.044,-0.096,-0.056,0.15873224668610175,-6.685342374410102,-6.412488008761899
1621786387680.622,-0.049,-0.094,-0.056,0.15254544429590736,-6.660904504968834,-6.3821726770499465
1621786387684.825,-0.05527564836996146,-0.09131043641287366,-0.052413915217164875,0.147,-6.639,-6.355
1621786387685.31,-0.056,-0.091,-0.052,0.147,-6.639641122852304,-6.353717754295395
1621786387689.994,-0.063,-0.08,-0.049,0.147,-6.645831330160523,-6.341337339678955
1621786387694.677,-0.068,-0.077,-0.052,0.147,-6.6520205694926196,-6.328958861014762
1621786387699.357,-0.073,-0.086,-0.047,0.147,-6.658205614261515,-6.316588771476971
1621786387699.958,-0.07389943113616199,-0.08522905902614686,-0.04635754918845572,0.147,-6.659,-6.315
1621786387704.035,-0.08,-0.08,-0.042,0.147,-6.664126862295188,-6.325793394305659
1621786387708.71,-0.093,-0.077,-0.044,0.147,-6.67000591410012,-6.338170345473936
1621786387713.383,-0.096,-0.07,-0.042,0.147,-6.67588250977604,-6.350542125844295
1621786387715.067,-0.09924445954421911,-0.06747653146560736,-0.04127900899017353,0.147,-6.678,-6.355
1621786387718.054,-0.105,-0.063,-0.04,0.14303917125283264,-6.678,-6.366684444804144
1621786387722.722,-0.11,-0.065,-0.04,0.13684946584655228,-6.678,-6.384944075752671
1621786387727.389,-0.11,-0.059,-0.035,0.13066105535772093,-6.678,-6.403199886694723
1621786387730.15,-0.1111841884816754,-0.05485534031413612,-0.03263162303664922,0.127,-6.678,-6.414
1621786387732.052,-0.112,-0.052,-0.031,0.12460043767223213,-6.680525855081861,-6.418925417409628
1621786387736.713,-0.115,-0.052,-0.03,0.11872057059491004,-6.686715188847463,-6.430994618252553
1621786387741.373,-0.113,-0.056,-0.028,0.11284162749230021,-6.692903550008105,-6.443061922515805
1621786387745.211,-0.11217553888918026,-0.046106466670163104,-0.028,0.108,-6.698,-6.453
1621786387746.028,-0.112,-0.044,-0.028,0.11120635513411703,-6.6969130999545365,-6.453
1621786387750.682,-0.119,-0.04,-0.024,0.12946734753523415,-6.690722933038904,-6.453
1621786387755.334,-0.119,-0.04,-0.019,0.14772163408456193,-6.684535039293369,-6.453
1621786387759.984,-0.127,-0.03,-0.016,0.16596729882444633,-6.678350068195103,-6.453
1621786387760.247,-0.12739642763330708,-0.0296602048857368,-0.016,0.167,-6.678,-6.453
1621786387764.631,-0.134,-0.024,-0.016,0.1783894029826473,-6.678,-6.435769877539072
1621786387769.276,-0.133,-0.021,-0.009,0.19045619541706646,-6.678,-6.417514986420335
1621786387773.918,-0.143,-0.014,-0.005,0.2025160109938363,-6.678,-6.399270650034966
1621786387775.259,-0.14560112596022307,-0.012554930022098284,-0.003554930022098285,0.206,-6.678,-6.394
1621786387778.558,-0.152,-0.009,0.0,0.21040284769398693,-6.682402847693987,-6.394
1621786387783.196,-0.157,0.0,0.005,0.21659250932668653,-6.6885925093266865,-6.394
1621786387787.83,-0.157,0.007,0.01,0.222776957789616,-6.694776957789617,-6.394
1621786387790.245,-0.16064806912175333,0.009605763658395237,0.013126916390074284,0.226,-6.698,-6.394
1621786387792.464,-0.164,0.012,0.016,0.22303322888105498,-6.700966771118946,-6.399785203681943
1621786387797.094,-0.164,0.026,0.023,0.21684312573443007,-6.7071568742655705,-6.411855904817862
1621786387801.722,-0.166,0.031,0.024,0.21065563389476433,-6.713344366105236,-6.423921513905209
1621786387805.204,-0.16976451646959462,0.039281936233108106,0.03228193623310811,0.206,-6.718,-6.433
1621786387806.347,-0.171,0.042,0.035,0.20446981138243273,-6.716469811382432,-6.433
1621786387810.971,-0.175,0.049,0.037,0.19827844790951588,-6.710278447909516,-6.433
1621786387815.592,-0.175,0.056,0.044,0.19209100715896832,-6.7040910071589686,-6.433
1621786387820.141,-0.18189418045351233,0.06289418045351235,0.044984882921930334,0.186,-6.698,-6.433
1621786387820.211,-0.182,0.063,0.045,0.18591103907797588,-6.697906356924186,-6.432723752926346
1621786387824.827,-0.188,0.073,0.051,0.18002997560696102,-6.691715763796801,-6.414461503200563
1621786387829.441,-0.187,0.079,0.054,0.17415140055334546,-6.685527790056153,-6.396206980665651
1621786387834.052,-0.197,0.073,0.058,0.1682765581258288,-6.6793437453956095,-6.377964048917047
1621786387835.054,-0.19786935338664408,0.0753907218132712,0.059086691733305094,0.167,-6.678,-6.374
1621786387838.662,-0.201,0.084,0.063,0.16215228051760616,-6.682847719482394,-6.378847719482394
1621786387843.268,-0.209,0.087,0.072,0.15596396765781576,-6.689036032342185,-6.385036032342184
1621786387847.872,-0.213,0.101,0.077,0.14977827891033735,-6.695221721089663,-6.3912217210896625
1621786387849.94,-0.21389867374005306,0.1027973474801061,0.07834801061007958,0.147,-6.698,-6.394
1621786387852.474,-0.215,0.105,0.08,0.14034954247507023,-6.698,-6.40065045752493
1621786387857.074,-0.222,0.108,0.086,0.12827812915838413,-6.698,-6.412721870841616
1621786387861.672,-0.227,0.122,0.087,0.11621120073598265,-6.698,-6.424788799264017
1621786387864.801,-0.23040470750757133,0.12676659051059985,0.08972376600605705,0.108,-6.698,-6.433
1621786387866.267,-0.232,0.129,0.091,0.10602376094253932,-6.690193855723031,-6.440806144276969
1621786387870.859,-0.236,0.134,0.094,0.09983406832093727,-6.6657445698677025,-6.465255430132298
1621786387875.449,-0.234,0.138,0.103,0.09364667939182518,-6.641304383597709,-6.48969561640229
1621786387879.638,-0.24039099664768795,0.1425649976054914,0.103,0.088,-6.619,-6.512
1621786387880.037,-0.241,0.143,0.103,0.08748793393333992,-6.617436850954406,-6.514371674414004
1621786387884.623,-0.243,0.15,0.099,0.08160496818646358,-6.599478323937626,-6.541619094715326
1621786387889.206,-0.248,0.154,0.103,0.07572576072264531,-6.58153126957439,-6.568849108231958
1621786387893.787,-0.251,0.154,0.105,0.06984905878086572,-6.563591863646853,-6.596067517225464
1621786387894.449,-0.2512891579115781,0.15501205269052318,0.10471084208842195,0.069,-6.561,-6.6
1621786387898.365,-0.253,0.161,0.103,0.069,-6.555704173269942,-6.615622688853671
1621786387902.941,-0.251,0.169,0.103,0.069,-6.549515913893291,-6.633878054014791
1621786387907.514,-0.255,0.169,0.105,0.069,-6.543331616481775,-6.652121731378764
1621786387909.238,-0.2542457948416725,0.1705084103166551,0.10537710257916377,0.069,-6.541,-6.659
1621786387912.086,-0.253,0.173,0.106,0.08404688352709654,-6.541,-6.681570325290645
1621786387916.655,-0.253,0.183,0.099,0.10818768294498007,-6.541,-6.71778152441747
1621786387921.221,-0.255,0.182,0.105,0.13231171343994444,-6.541,-6.753967570159917
1621786387924.001,-0.25621825184551195,0.1856547555365358,0.10134524446346421,0.147,-6.541,-6.776
1621786387925.785,-0.257,0.188,0.099,0.147,-6.541,-6.800931544513458
1621786387930.347,-0.25,0.192,0.096,0.147,-6.541,-6.86468833126294
1621786387934.907,-0.251,0.197,0.093,0.147,-6.541,-6.92841782194617
1621786387938.741,-0.24090421086467373,0.1986826315225544,0.08963473695489124,0.147,-6.541,-6.982
1621786387939.464,-0.239,0.199,0.089,0.14508329323532826,-6.543899633310658,-6.993598533242629
1621786387944.019,-0.234,0.197,0.093,0.13301037017372114,-6.56216379896796,-7.066655195871841
1621786387948.57,-0.225,0.192,0.089,0.12094780069355722,-6.580412301514875,-7.1396492060595
1621786387953.12,-0.206,0.194,0.086,0.10888781960875409,-6.598656888284192,-7.2126275531367705
1621786387953.455,-0.2042323384152888,0.19385269486794074,0.08518982177367403,0.108,-6.6,-7.218
1621786387957.668,-0.182,0.192,0.075,0.15302562738906433,-6.6111847099883665,-7.257289878677081
1621786387962.213,-0.154,0.188,0.077,0.20159986704337712,-6.623250922386571,-7.299676317101546
1621786387966.756,-0.126,0.187,0.077,0.25015584178161876,-6.63531259764002,-7.342046817350839
1621786387968.145,-0.11835349462365592,0.18852930107526883,0.07485897849462365,0.265,-6.639,-7.355
1621786387971.297,-0.101,0.192,0.07,0.2860654968034097,-6.607401754794886,-7.355
1621786387975.835,-0.075,0.194,0.065,0.31639191529035693,-6.561912127064464,-7.355
1621786387980.371,-0.049,0.197,0.063,0.3467069126265317,-6.516439631060202,-7.355
1621786387982.809,-0.03770544514461141,0.19054596865406367,0.06084865621802122,0.363,-6.492,-7.355
1621786387984.904,-0.028,0.185,0.059,0.3811737180021679,-6.472395280580338,-7.301623647127491
1621786387989.435,-0.01,0.185,0.056,0.42047986325356457,-6.429994163261903,-7.186181189026932
1621786387993.964,-0.005,0.178,0.066,0.4597690652880847,-6.3876113232719085,-7.070788493287751
1621786387997.449,-0.0011492392359987048,0.178,0.07293136937520232,0.49,-6.355,-6.982
1621786387998.489,0.0,0.178,0.075,0.5025949187365326,-6.346603387508979,-6.956169742930162
1621786388003.014,-0.005,0.178,0.079,0.5573916849015317,-6.310072210065646,-6.8437899343544855
1621786388007.535,-0.014,0.18,0.096,0.6121411462074264,-6.273572569195049,-6.731507140828837
1621786388012.054,-0.028,0.187,0.108,0.666866955083769,-6.2370886966108205,-6.6192728548282025
1621786388012.065,-0.028024321694951896,0.18701216084747596,0.1080218895254567,0.667,-6.237,-6.619
1621786388016.571,-0.038,0.192,0.117,0.7608831757717728,-6.212911553584874,-6.613132301514264
1621786388021.085,-0.044,0.19,0.136,0.8549291223960512,-6.18878134359575,-6.607254429850246
1621786388025.598,-0.049,0.199,0.145,0.9489547226637665,-6.164656354053376,-6.601377829833514
1621786388026.656,-0.049,0.2011119714115545,0.15110125074449077,0.971,-6.159,-6.6
1621786388030.107,-0.049,0.208,0.171,1.0314181333601529,-6.1774808407925175,-6.565170723121794
1621786388034.615,-0.056,0.223,0.185,1.1103442622950819,-6.201622950819672,-6.519672131147541
1621786388039.12,-0.065,0.232,0.195,1.189219098863522,-6.225749371417077,-6.4742031077139695
1621786388041.221,-0.06733273693342008,0.23386618954673608,0.20246475818694426,1.226,-6.237,-6.453
1621786388043.623,-0.07,0.236,0.211,1.2340945433176629,-6.275820768972465,-6.449696104768301
1621786388048.123,-0.07,0.244,0.23,1.2492585460040295,-6.34854608797851,-6.4435067159167225
1621786388052.621,-0.072,0.243,0.239,1.2644159670920079,-6.421239842175957,-6.437320013431833
1621786388055.762,-0.072,0.24859013633154092,0.24528890337298354,1.275,-6.472,-6.433
1621786388057.116,-0.072,0.251,0.248,1.2594218723719177,-6.5022234332425075,-6.438503649880579
1621786388061.61,-0.063,0.258,0.251,1.207715746627645,-6.602539509536785,-6.45677108352676
1621786388066.099,-0.056,0.271,0.255,1.1560686076630673,-6.702741144414169,-6.47501767753221
1621786388070.277,-0.056,0.28030762536712717,0.25034618731643643,1.108,-6.796,-6.492
1621786388070.588,-0.056,0.281,0.25,1.102151699351512,-6.7993219939057745,-6.493750511758731
1621786388075.095,-0.049,0.291,0.257,1.0173398546761465,-6.847497429486679,-6.5191363700289084
1621786388080.093,-0.047,0.314,0.251,0.9232892569732011,-6.900920728181889,-6.547287569341355
1621786388085.09,-0.051,0.337,0.25,0.8292570357059146,-6.954333588561607,-6.57543326822408
1621786388085.901,-0.050026242486438936,0.3384606362703416,0.2474033132971705,0.814,-6.963,-6.58
1621786388090.086,-0.045,0.346,0.234,0.7352088480321746,-6.973108075416925,-6.6411668153434436
1621786388095.083,-0.042,0.358,0.223,0.6411301350186728,-6.985177383994315,-6.714201605709188
1621786388100.079,-0.042,0.377,0.211,0.5470698075265727,-6.997244333902841,-6.787222123104371
1621786388102.048,-0.040029370082588084,0.3805471338513414,0.20351160631383472,0.51,-7.002,-6.816
1621786388105.075,-0.037,0.386,0.192,0.475130976502253,-6.985502827592463,-6.826873136359512
1621786388110.07,-0.035,0.391,0.178,0.41758780657453054,-6.958278102035261,-6.8448167054767595
1621786388115.065,-0.038,0.405,0.15,0.3600474491184565,-6.931054707109807,-6.862759397586718
1621786388118.194,-0.040505767350928645,0.39936202346041055,0.13809760508308896,0.324,-6.914,-6.874
1621786388120.06,-0.042,0.396,0.131,0.324,-6.90937579598566,-6.871803503093188
1621786388125.054,-0.042,0.403,0.112,0.324,-6.897000015125618,-6.865925007184669
1621786388130.048,-0.042,0.393,0.096,0.324,-6.884623629240845,-6.860046223889402
1621786388134.335,-0.049728811072528974,0.38698870249914413,0.0796836210691055,0.324,-6.874,-6.855
1621786388135.04,-0.051,0.386,0.077,0.3274078758263869,-6.869718309859155,-6.85154843345789
1621786388140.033,-0.058,0.384,0.059,0.3515403095263309,-6.8393980726464045,-6.827106609582306
1621786388145.026,-0.049,0.389,0.044,0.375672743226275,-6.809077835433654,-6.802664785706722
1621786388150.019,-0.037,0.384,0.026,0.39980635693862426,-6.778756115641215,-6.7782217666903675
1621786388150.473,-0.03645449210153079,0.3825453122707488,0.025181738152296178,0.402,-6.776,-6.776
1621786388155.011,-0.031,0.368,0.017,0.4214102637831621,-6.748431799264495,-6.765028981339952
1621786388160.002,-0.026,0.356,0.0,0.44275758584681507,-6.718112414304524,-6.7529631036518
1621786388164.994,-0.024,0.349,-0.009,0.4641090848555473,-6.687787096871832,-6.740894865081647
1621786388166.605,-0.025291136763842693,0.34222153198982586,-0.011582273527685384,0.471,-6.678,-6.737
1621786388169.985,-0.028,0.328,-0.017,0.5038999228079735,-6.682191072969169,-6.716463742451074
1621786388174.975,-0.024,0.321,-0.023,0.5524691913000045,-6.6883782409299375,-6.686146619443309
1621786388179.966,-0.019,0.312,-0.031,0.6010479650062813,-6.694566619746023,-6.655823563244487
1621786388182.735,-0.017890160966779197,0.3081155633837272,-0.03432951709966241,0.628,-6.698,-6.639
1621786388184.956,-0.017,0.305,-0.037,0.633371593386628,-6.7087431867732565,-6.636245336724806
1621786388189.945,-0.017,0.29,-0.045,0.6454380450581395,-6.732876090116279,-6.6300574127906975
1621786388194.933,-0.009,0.283,-0.049,0.6575021348110466,-6.757004269622093,-6.623870700096899
1621786388198.86,-0.0034900905309517977,0.2719801810619036,-0.05608416931734769,0.667,-6.776,-6.619
1621786388199.922,-0.002,0.269,-0.058,0.67345566744908,-6.78120405845385,-6.61774839100477
1621786388204.911,0.01,0.253,-0.068,0.7037809797834482,-6.805649973498902,-6.611868993715453
1621786388209.899,0.023,0.244,-0.068,0.7341018399333686,-6.830092299538124,-6.6059904596047545
1621786388214.886,0.023,0.227,-0.086,0.764416763837359,-6.854529840236239,-6.600113076398879
1621786388214.982,0.022884587146982525,0.22692305809798835,-0.08613464832852039,0.765,-6.855,-6.6
1621786388219.874,0.017,0.223,-0.093,0.7977735643324448,-6.872904076811243,-6.593930821419917
1621786388224.861,0.005,0.209,-0.096,0.8311833656409013,-6.891155727526048,-6.587743821177611
1621786388229.848,-0.005,0.208,-0.099,0.8645915313787255,-6.9094064847346734,-6.5815571238187545
1621786388231.103,-0.006006903980805954,0.20472756206238063,-0.10176898594721638,0.873,-6.914,-6.58
1621786388234.834,-0.009,0.195,-0.11,0.8773980975173814,-6.914,-6.6253698480740395
1621786388239.82,-0.012,0.194,-0.119,0.8832757539496205,-6.914,-6.686002514427665
1621786388244.805,-0.012,0.188,-0.126,0.8891519714021721,-6.914,-6.746620336569775
1621786388247.221,-0.012969103461783284,0.18654634480732507,-0.13084551730891641,0.892,-6.914,-6.776
1621786388249.791,-0.014,0.185,-0.136,0.93267804700641,-6.921816565895349,-6.791633131790698
1621786388254.776,-0.014,0.183,-0.145,1.0115765331636133,-6.936977451470655,-6.82195490294131
1621786388259.759,-0.007,0.18,-0.14,1.0904479701777516,-6.95213313936749,-6.852266278734978
1621786388263.332,0.00016909963750367466,0.18215072989125108,-0.14071690996375036,1.147,-6.963,-6.874
1621786388264.743,0.003,0.183,-0.141,1.1839651377815503,-6.958707839451906,-6.877503804529057
1621786388269.727,0.016,0.183,-0.143,1.3145488525782885,-6.943545275411526,-6.889881407827326
1621786388274.71,0.023,0.169,-0.141,1.4451005850789704,-6.928386424955285,-6.902255979628338
1621786388279.439,0.03438574577516532,0.16805118785206957,-0.13151187852069557,1.569,-6.914,-6.914
1621786388279.694,0.035,0.168,-0.131,1.5719468752842718,-6.91119571545529,-6.913065238485096
1621786388284.676,0.044,0.166,-0.129,1.6294913126535067,-6.856435686345856,-6.894811895448619
1621786388289.659,0.049,0.168,-0.127,1.687047029928136,-6.801664923132902,-6.876554974377634
1621786388294.641,0.049,0.171,-0.12,1.7445942872737195,-6.7469022104975895,-6.85830073683253
1621786388295.542,0.048276541515537695,0.1719043231055779,-0.11909567689442212,1.755,-6.737,-6.855
1621786388299.622,0.045,0.176,-0.115,1.7699526553638045,-6.692395468745261,-6.834978647902703
1621786388304.604,0.04,0.183,-0.106,1.7882104273452428,-6.637931606563344,-6.810531800673319
1621786388309.584,0.031,0.182,-0.098,1.806461041521337,-6.583489096478724,-6.786094537623972
1621786388311.641,0.027696010195078915,0.18323899617684541,-0.09510900892069406,1.814,-6.561,-6.776
1621786388314.565,0.023,0.185,-0.091,1.810548441410694,-6.541380614334471,-6.776
1621786388319.545,0.01,0.187,-0.082,1.8046696094046264,-6.50796409556314,-6.776
1621786388324.525,0.0,0.185,-0.075,1.798790777398559,-6.474547576791809,-6.776
1621786388327.736,-0.005804501323918799,0.185,-0.0730651662253604,1.795,-6.453,-6.776
1621786388329.504,-0.009,0.185,-0.072,1.7777511531225343,-6.453,-6.782482050737391
1621786388334.483,-0.016,0.192,-0.063,1.7291704345451233,-6.453,-6.800738499119985
1621786388339.462,-0.023,0.197,-0.056,1.6805897159677126,-6.453,-6.8189949475025795
1621786388343.827,-0.023,0.20138425698871998,-0.049862040215792054,1.638,-6.453,-6.835
1621786388344.44,-0.023,0.202,-0.049,1.6361325187827274,-6.4586024436518175,-6.83576223723154
1621786388349.418,-0.031,0.201,-0.049,1.6209680655687941,-6.504095803293618,-6.8419518099719205
1621786388354.396,-0.033,0.192,-0.035,1.6058036123548607,-6.549589162935417,-6.848141382712302
1621786388359.373,-0.033,0.199,-0.03,1.590642134021401,-6.595073597935797,-6.854329741215755
1621786388359.912,-0.03267507112724419,0.19780859413322868,-0.02859197488472481,1.589,-6.6,-6.855
1621786388364.35,-0.03,0.188,-0.017,1.5834807274825036,-6.643326289262346,-6.882044435335732
1621786388369.327,-0.03,0.182,-0.012,1.5772913573499718,-6.6919128448027205,-6.912372348985138
1621786388374.303,-0.024,0.169,-0.003,1.5711028980886885,-6.740492250003795,-6.942695799365427
1621786388375.994,-0.02230095182023354,0.16662133254832698,-0.00028152291237366293,1.569,-6.757,-6.953
1621786388379.279,-0.019,0.162,0.005,1.5489774066201032,-6.760881931369571,-6.967097540236867
1621786388384.254,-0.012,0.152,0.01,1.5186563316125115,-6.7667605071363495,-6.988446052232008
1621786388389.229,0.002,0.138,0.005,1.4883337686000608,-6.772639371393866,-7.009795611904039
1621786388392.073,0.006573167141034449,0.138,0.009001521248405142,1.471,-6.776,-7.022
1621786388394.204,0.01,0.138,0.012,1.4553573435388096,-6.781302595410573,-6.997210366455572
1621786388399.179,0.03,0.119,0.01,1.4188410861542669,-6.793680987744316,-6.939341382295321
1621786388404.153,0.045,0.115,0.003,1.3823302048688626,-6.806057557671572,-6.881480917885401
1621786388408.149,0.05785639943050714,0.10696475035593303,0.004607049928813393,1.353,-6.816,-6.835
1621786388409.126,0.061,0.105,0.005,1.344062485757258,-6.81241283441958,-6.8117746228521945
1621786388414.1,0.073,0.089,0.0,1.2985620072011304,-6.794150737584127,-6.693535284019264
1621786388419.072,0.079,0.084,-0.005,1.25308162800237,-6.775896707837686,-6.575348176169424
1621786388424.044,0.082,0.066,-0.005,1.2076012488036096,-6.757642678091244,-6.457161068319585
1621786388424.219,0.08168321060382916,0.06582400589101621,-0.0052463917525773195,1.206,-6.757,-6.453
1621786388429.017,0.073,0.061,-0.012,1.1650929518831947,-6.7217661921329706,-6.326994348136556
1621786388433.989,0.061,0.042,-0.014,1.1227039000896397,-6.685255913945821,-6.19642369224692
1621786388438.96,0.04,0.019,-0.019,1.0803231741594372,-6.648752806940245,-6.065878682447317
1621786388440.288,0.03545798339963656,0.017129757870438585,-0.02033588723540101,1.069,-6.639,-6.031
1621786388443.931,0.023,0.012,-0.024,1.037938200881325,-6.625623020817505,-5.96887640176265
1621786388448.902,0.009,-0.002,-0.033,0.9955495973256344,-6.607368074760675,-5.884099194651268
1621786388453.873,0.0,-0.014,-0.037,0.9531630755204377,-6.58911402522413,-5.799326151040875
1621786388456.355,-0.009488333251461414,-0.018993859606032323,-0.04049570172422262,0.932,-6.58,-5.757
1621786388458.843,-0.019,-0.024,-0.044,0.94098322137451,-6.573959558041278,-5.737174959725219
1621786388463.813,-0.031,-0.04,-0.056,0.9589276269795435,-6.561893492203411,-5.697573512872731
1621786388468.782,-0.042,-0.044,-0.058,0.9768685066415392,-6.549829797258275,-5.657979847411775
1621786388472.419,-0.048587382695425736,-0.05790669680145433,-0.06385545128482288,0.99,-6.541,-5.629
1621786388473.751,-0.051,-0.063,-0.066,0.9867647255587654,-6.527146388931124,-5.619211220921392
1621786388478.72,-0.056,-0.075,-0.072,0.9746958947848563,-6.475467036642846,-5.582695271400334
1621786388483.688,-0.065,-0.084,-0.08,0.9626294359130302,-6.423797840960924,-5.546186498403527
1621786388488.476,-0.08331545834357336,-0.09749560088473827,-0.08867574342590316,0.951,-6.374,-5.511
1621786388488.655,-0.084,-0.098,-0.089,0.9503423209696306,-6.372907583983454,-5.5092499049530845
1621786388493.623,-0.101,-0.113,-0.101,0.9320843256231276,-6.342580744255364,-5.460665069878492
1621786388498.59,-0.119,-0.112,-0.11,0.9138299192481408,-6.312259865869793,-5.412089785117934
1621786388503.557,-0.14,-0.119,-0.117,0.8955764101160333,-6.281940477819852,-5.363516887935885
1621786388504.53,-0.14431109581633156,-0.12056767120593874,-0.11895958900742344,0.892,-6.276,-5.354
1621786388508.523,-0.162,-0.127,-0.127,0.865378995086481,-6.280975888768882,-5.332106089416919
1621786388513.49,-0.18,-0.145,-0.141,0.8322634741469797,-6.2871657057669195,-5.304870894625553
1621786388518.455,-0.199,-0.15,-0.152,0.7991609747934953,-6.293353088823646,-5.277646409175959
1621786388520.579,-0.20284955752212389,-0.15470501474926254,-0.15627728613569322,0.785,-6.296,-5.266
1621786388523.421,-0.208,-0.161,-0.162,0.7605596129267848,-6.296,-5.285127259448603
1621786388528.386,-0.223,-0.173,-0.18,0.7178582253058243,-6.296,-5.318545736717181
1621786388533.351,-0.237,-0.185,-0.192,0.675156837684864,-6.296,-5.351964213985759
1621786388536.625,-0.2383191028919929,-0.1962123745819398,-0.2032123745819398,0.647,-6.296,-5.374
1621786388538.315,-0.239,-0.202,-0.209,0.6366755753074395,-6.3042173992451,-5.382217399245099
1621786388543.279,-0.248,-0.22,-0.222,0.60634813709972,-6.328355564349202,-5.4063555643492025
1621786388548.243,-0.248,-0.236,-0.236,0.5760221904298064,-6.35249254231097,-5.4304925423109704
1621786388552.666,-0.24978237985144375,-0.2547149884401594,-0.2466942791086625,0.549,-6.374,-5.452
1621786388553.206,-0.25,-0.257,-0.248,0.5476869406392695,-6.375986423135464,-5.454659786910198
1621786388558.169,-0.25,-0.278,-0.264,0.535620091324201,-6.394241400304414,-5.479102891933029
1621786388563.13,-0.255,-0.297,-0.276,0.5235579908675799,-6.412489193302892,-5.503536377473363
1621786388568.093,-0.255,-0.321,-0.295,0.5114905479452054,-6.430745068493151,-5.5279806849315065
1621786388568.706,-0.2536406988188976,-0.32248287401574804,-0.296482874015748,0.51,-6.433,-5.531
1621786388573.054,-0.244,-0.333,-0.307,0.5419978987438142,-6.443575576703464,-5.578725679482299
1621786388578.016,-0.239,-0.358,-0.321,0.5785163608679101,-6.455645237913971,-5.633193894175866
1621786388582.977,-0.232,-0.377,-0.34,0.6150258393604873,-6.467711929958128,-5.687648709554625
1621786388584.74,-0.23022317913385829,-0.37806609251968504,-0.34319827755905513,0.628,-6.472,-5.707
1621786388587.938,-0.227,-0.38,-0.349,0.6768776100763033,-6.472,-5.724755539986902
1621786388592.898,-0.223,-0.403,-0.363,0.752684734765988,-6.472,-5.752293638343563
1621786388597.858,-0.227,-0.422,-0.377,0.8284918594556725,-6.472,-5.779831736700224
1621786388600.77,-0.2228903381404735,-0.422,-0.38404513461633116,0.873,-6.472,-5.796
1621786388602.818,-0.22,-0.422,-0.389,0.9418743659654841,-6.4771112702015206,-5.816061735540967
1621786388607.777,-0.223,-0.417,-0.396,1.1086375226576899,-6.489487014668474,-5.864636532573762
1621786388612.736,-0.218,-0.41,-0.396,1.2754006793498955,-6.501862759135428,-5.913211329606556
1621786388616.798,-0.22209560850728632,-0.41573385191020085,-0.39763824340291454,1.412,-6.512,-5.953
1621786388617.695,-0.223,-0.417,-0.398,1.3994051558643386,-6.52353127951976,-5.9551831063168486
1621786388622.653,-0.227,-0.428,-0.405,1.3297872748880153,-6.587270317213639,-5.967250205686078
1621786388627.611,-0.232,-0.445,-0.417,1.260169393911692,-6.651009354907517,-5.979317305055307
1621786388632.569,-0.237,-0.449,-0.428,1.190551512935369,-6.714748392601396,-5.991384404424536
1621786388632.822,-0.2366428114071812,-0.4496123233019751,-0.42815308082549375,1.187,-6.718,-5.992
1621786388637.526,-0.23,-0.461,-0.431,1.2013866843436654,-6.841608043034348,-6.0639334217183265
1621786388642.481,-0.218,-0.466,-0.436,1.216541723812136,-6.9718176678552926,-6.139708619060681
1621786388647.438,-0.194,-0.471,-0.435,1.2317027368870197,-7.10207861692725,-6.215513684435098
1621786388648.843,-0.18549507389162562,-0.4741184729064039,-0.435,1.236,-7.139,-6.237
1621786388652.394,-0.164,-0.482,-0.435,1.257726823766119,-7.182453647532238,-6.293534082248575
1621786388657.35,-0.127,-0.496,-0.433,1.288050269792397,-7.243100539584794,-6.372436926500625
1621786388662.305,-0.098,-0.501,-0.433,1.3183662469896047,-7.30373249397921,-6.451320336554583
1621786388664.86,-0.0799516160819866,-0.5061566811194325,-0.43403133622388645,1.334,-7.335,-6.492
1621786388667.26,-0.063,-0.511,-0.435,1.3662226287944625,-7.357031285733888,-6.462624952354815
1621786388672.215,-0.03,-0.522,-0.433,1.4327526871884004,-7.402519279147418,-6.40197429447011
1621786388677.169,-0.002,-0.534,-0.424,1.4992663556389028,-7.447996066413576,-6.3413385781152325
1621786388680.873,0.01145830869308102,-0.5429722057953874,-0.42549536763256457,1.549,-7.482,-6.296
1621786388682.123,0.016,-0.546,-0.426,1.5589931382565072,-7.500424848660435,-6.269221512328266
1621786388687.077,0.031,-0.56,-0.421,1.5985968039523641,-7.573444107287171,-6.163096064408899
1621786388692.03,0.04,-0.571,-0.419,1.6381946142937742,-7.646452570104146,-6.056986307009653
1621786388696.884,0.05078040124217479,-0.5876606201015429,-0.421940109429684,1.677,-7.718,-5.953
1621786388696.983,0.051,-0.588,-0.422,1.6780873146622735,-7.719272652388797,-5.952752883031302
1621786388701.935,0.065,-0.599,-0.419,1.732544328513027,-7.783012111782293,-5.940376288974313
1621786388706.887,0.079,-0.611,-0.421,1.7869986576362193,-7.8467484288242115,-5.928000305082677
1621786388711.839,0.099,-0.623,-0.421,1.841455671486973,-7.910487888217707,-5.915623711025688
1621786388712.889,0.10324084027812022,-0.623,-0.421212042013906,1.853,-7.924,-5.913
1621786388716.79,0.119,-0.623,-0.422,1.9080924346671955,-7.9335071015576135,-5.941765076507651
1621786388721.741,0.14,-0.628,-0.426,1.9780104196860364,-7.94557259454759,-5.9782709270927095
1621786388726.692,0.148,-0.621,-0.428,2.0479284047048774,-7.957638087537568,-6.014776777677768
1621786388728.892,0.14444497041420118,-0.6156674556213018,-0.4333325443786982,2.079,-7.963,-6.031
1621786388731.643,0.14,-0.609,-0.44,2.185277551394167,-7.952853761274667,-6.290674923309372
1621786388736.593,0.106,-0.578,-0.438,2.376507348564626,-7.934597194878134,-6.7579192497291025
1621786388741.541,0.073,-0.496,-0.436,2.5676616913145005,-7.916347832058972,-7.22497921340598
1621786388744.889,0.047293621429628535,-0.4425577919194909,-0.4292351635341128,2.697,-7.904,-7.541
1621786388746.49,0.035,-0.417,-0.426,2.64695115696929,-7.913809573234019,-7.746200256425912
1621786388751.439,-0.014,-0.337,-0.445,2.4922484889187375,-7.9441312961719275,-8.380481195433177
1621786388756.388,-0.075,-0.258,-0.466,2.337545820868185,-7.974453019109836,-9.014762134440442
1621786388760.884,-0.10952943208170918,-0.15986371934672128,-0.47236068485715693,2.197,-8.002,-9.591
1621786388761.336,-0.113,-0.15,-0.473,2.208898175433239,-8.009489350332087,-9.613722406290556
1621786388766.284,-0.11,-0.058,-0.459,2.339173875868387,-8.091491869608367,-9.862514955340101
1621786388771.231,-0.073,0.007,-0.44,2.469423864417131,-8.173478204443088,-10.111258401404687
1621786388776.178,0.01,0.065,-0.435,2.599673852965875,-8.255464539277806,-10.360001847469272
1621786388776.874,0.026461876326309038,0.06809539554853675,-0.43373370182105314,2.618,-8.267,-10.395
1621786388781.125,0.127,0.087,-0.426,2.639006184811325,-8.170477910297329,-10.217643983934762
1621786388786.071,0.271,0.103,-0.415,2.66344704732526,-8.05817369393583,-10.01128885359559
1621786388791.017,0.407,0.093,-0.391,2.687887909839195,-7.945869477574332,-9.804933723256417
1621786388792.861,0.4517408431237042,0.08442467173462335,-0.3883901174844506,2.697,-7.904,-9.728
1621786388795.963,0.527,0.07,-0.384,2.569480292706774,-7.669922729078188,-9.333989336673898
1621786388800.908,0.618,0.042,-0.396,2.366181459867396,-7.296744049619604,-8.705836169757708
1621786388805.853,0.681,0.007,-0.408,2.1628826270280177,-6.92356537016102,-8.077683002841518
1621786388808.842,0.7009466304616144,-0.015364403850901012,-0.4176710935571464,2.04,-6.698,-7.698
1621786388810.798,0.714,-0.03,-0.424,1.9235842322383498,-6.547920366692132,-7.5528169289533995
1621786388815.742,0.728,-0.082,-0.45,1.6293481741787623,-6.168600275019099,-7.18587269671505
1621786388820.686,0.733,-0.143,-0.471,1.3350975859434682,-5.789261451489687,-6.818910343773873
1621786388824.821,0.7254694694200178,-0.19989734215986563,-0.4977752198399368,1.089,-5.472,-6.512
1621786388825.628,0.724,-0.211,-0.503,1.0216159653976065,-5.40709109110639,-6.509019746595546
1621786388830.572,0.693,-0.271,-0.531,0.608728193920127,-5.009369362209418,-6.4907585932843235
1621786388835.514,0.642,-0.314,-0.578,0.19602391905729866,-4.611824389796574,-6.472505555640465
1621786388840.457,0.571,-0.344,-0.62,-0.2167822983692249,-4.214181219336991,-6.454248009292516
1621786388840.795,0.5647780851694496,-0.34461535421401046,-0.6224614168560418,-0.245,-4.187,-6.453
1621786388845.399,0.48,-0.353,-0.656,-0.420267724479501,-4.127616527561222,-6.4247496101990285
1621786388850.34,0.384,-0.351,-0.693,-0.6083705707909137,-4.063884313185973,-6.39443040141857
1621786388855.282,0.298,-0.332,-0.728,-0.796501299336574,-4.000142651869516,-6.364106698462197
1621786388856.766,0.27757446387983004,-0.32929662021938927,-0.7394142701848009,-0.853,-3.981,-6.355
1621786388860.223,0.23,-0.323,-0.766,-0.8423922237172038,-4.112839505229038,-6.416481805394166
1621786388865.163,0.176,-0.302,-0.792,-0.8272323711088007,-4.301254816219191,-6.5043470735734825
1621786388870.104,0.147,-0.304,-0.808,-0.8120702709314416,-4.489698061280656,-6.592225368478992
1621786388872.734,0.1411427582797825,-0.3141170538803757,-0.8106623826000988,-0.804,-4.59,-6.639
1621786388875.043,0.136,-0.323,-0.813,-0.7643729223053046,-4.6069210514243775,-6.7496376439286205
1621786388879.983,0.131,-0.339,-0.815,-0.6795966175818463,-4.6431211523464375,-6.986330611495941
1621786388884.922,0.127,-0.375,-0.82,-0.5948328822423048,-4.679315886049818,-7.222988485710354
1621786388888.7,0.11399663865546218,-0.3964173010380623,-0.8123509639149777,-0.53,-4.707,-7.404
1621786388889.861,0.11,-0.403,-0.81,-0.46786905708866183,-4.698487915315425,-7.471078137428869
1621786388894.799,0.072,-0.431,-0.787,-0.20364272165453096,-4.662288288563911,-7.756343572171572
1621786388899.738,0.028,-0.438,-0.759,0.06063586856758252,-4.626081502784066,-8.041665422505048
1621786388904.66,-0.03281297596676887,-0.4449785382256948,-0.7101502324201364,0.324,-4.59,-8.326
1621786388904.675,-0.033,-0.445,-0.71,0.3248556303549572,-4.590799663402692,-8.326400305997552
1621786388909.612,-0.086,-0.454,-0.658,0.6039291309669523,-4.851618910648715,-8.456964626682987
1621786388914.549,-0.126,-0.44,-0.588,0.8830026315789474,-5.112438157894736,-8.58752894736842
1621786388919.485,-0.152,-0.421,-0.517,1.1620209302325581,-5.373205813953488,-8.718067441860464
1621786388920.617,-0.15085372366729305,-0.4136638314706755,-0.49659628127781624,1.226,-5.433,-8.748
1621786388924.422,-0.147,-0.389,-0.428,1.4177484392214468,-5.8587101542416455,-8.810962174072714
1621786388929.357,-0.122,-0.365,-0.312,1.6664210429673154,-6.4108004498714655,-8.892615864854939
1621786388934.293,-0.077,-0.318,-0.185,1.9151551597502752,-6.9630273136246785,-8.974289753947852
1621786388936.572,-0.05206233303650935,-0.30414574057583854,-0.1360482833679628,2.03,-7.218,-9.012
1621786388939.228,-0.023,-0.288,-0.079,2.0038529614377785,-7.374715689726436,-9.061129785833474
1621786388944.163,0.051,-0.278,0.005,1.9552697977741376,-7.6659052248059645,-9.152416622016748
1621786388949.098,0.138,-0.283,0.098,1.9066890375518577,-7.957080354545873,-9.24369894217963
1621786388952.52,0.20666318654131616,-0.3058877288471054,0.15625967342899555,1.873,-8.159,-9.307
1621786388954.032,0.237,-0.316,0.182,1.8162922351355903,-8.102292235135591,-9.310698332491157
1621786388958.966,0.339,-0.356,0.25,1.631234278101888,-7.917234278101889,-9.322767329689007
1621786388963.899,0.422,-0.391,0.305,1.4462221048279662,-7.732222104827967,-9.33483334098948
1621786388968.464,0.48030134613481146,-0.41321003662278527,0.33924047312679406,1.275,-7.561,-9.346
1621786388968.832,0.485,-0.415,0.342,1.2795240006126511,-7.539718731811916,-9.337852182570073
1621786388973.765,0.541,-0.417,0.37,1.3401792311226834,-7.254391576045336,-9.228610874559656
1621786388978.697,0.595,-0.403,0.389,1.400825455659366,-6.969106785112575,-9.11938578649104
1621786388983.629,0.642,-0.401,0.41,1.461468678204932,-6.683836115791086,-9.01016610506969
1621786388984.404,0.6492294822294822,-0.3983282348282349,0.4114144639144639,1.471,-6.639,-8.993
1621786388988.561,0.688,-0.384,0.419,1.5299566722843574,-6.4010863490117975,-8.755086349011798
1621786388993.492,0.73,-0.347,0.415,1.599889597058373,-6.118879148153823,-8.472879148153822
1621786388998.423,0.761,-0.321,0.415,1.6698259843726062,-5.836657974567183,-8.190657974567182
1621786389000.339,0.7637205467241124,-0.31206106076363094,0.41577729906403205,1.697,-5.727,-8.081
1621786389003.353,0.768,-0.298,0.417,1.7079714837345428,-5.552591241323302,-7.808226214737745
1621786389008.283,0.763,-0.269,0.414,1.725917791636659,-5.267306829500008,-7.362043869998927
1621786389013.213,0.738,-0.229,0.408,1.743864099538775,-4.982022417676713,-6.91586152526011
1621786389016.272,0.702625557206538,-0.20045220406141653,0.41482664685487863,1.755,-4.805,-6.639
1621786389018.142,0.681,-0.183,0.419,1.7458436393729022,-4.748653165371707,-6.51128050817587
1621786389023.071,0.618,-0.148,0.438,1.7217107719185325,-4.600143211806354,-6.1746579467610685
1621786389028.0,0.536,-0.117,0.463,1.6975779044641626,-4.451633258241,-5.838035385346267
1621786389032.203,0.45838964577656677,-0.10164850136239782,0.4774986376021798,1.677,-4.325,-5.551
1621786389032.928,0.445,-0.099,0.48,1.6569244351797923,-4.316942460378284,-5.541167070292143
1621786389037.856,0.356,-0.065,0.51,1.5204849483461573,-4.262181033689954,-5.4743395665368935
1621786389042.784,0.276,-0.052,0.531,1.3840454615125226,-4.207419607001625,-5.4075120627816435
1621786389047.711,0.213,-0.03,0.559,1.2476330124766255,-4.152669032218509,-5.340697802029368
1621786389048.131,0.2082244190079778,-0.027697487735989297,0.5612172340320104,1.236,-4.148,-5.335
1621786389052.638,0.157,-0.003,0.585,1.0639210106709187,-4.18139690911321,-5.329339506929965
1621786389057.564,0.103,0.01,0.609,0.8758366245553784,-4.217900128786949,-5.323152520544585
1621786389062.491,0.038,0.035,0.641,0.6877149515515761,-4.254410585060714,-5.3169643076168285
1621786389064.055,0.01642349794442518,0.03785571350735549,0.6514709495269702,0.628,-4.266,-5.315
1621786389067.42,-0.03,0.044,0.674,0.4973915083490501,-4.286711378934941,-5.364876381924959
1621786389072.345,-0.089,0.049,0.693,0.30623101338608033,-4.317024855482466,-5.437876182590429
1621786389077.269,-0.155,0.056,0.709,0.11510842265053589,-4.347332321327261,-5.510861508502384
1621786389079.977,-0.1841475035946254,0.061499528980118005,0.7155994347761415,0.01,-4.364,-5.551
1621786389082.193,-0.208,0.066,0.721,-0.04195772140631954,-4.403560302625723,-5.598778816199377
1621786389087.115,-0.255,0.079,0.719,-0.15735572333993217,-4.491423660666329,-5.7048954774948974
1621786389092.039,-0.3,0.089,0.721,-0.27280524223869373,-4.579326243420345,-5.811059512299925
1621786389095.886,-0.34220625,0.09681597222222223,0.717873611111111,-0.363,-4.648,-5.894
1621786389096.961,-0.354,0.099,0.717,-0.37029835008825107,-4.689762781060548,-5.922450049881053
1621786389101.883,-0.421,0.106,0.714,-0.4037169365359527,-4.88099135906684,-6.05272065075589
1621786389106.803,-0.473,0.119,0.7,-0.437120604711841,-5.072134571406646,-6.1829330979970845
1621786389111.724,-0.504,0.122,0.691,-0.47053256081651446,-5.263325209116722,-6.313177852812524
1621786389111.793,-0.5042518856689162,0.12212594283445811,0.6908740571655418,-0.471,-5.266,-6.315
1621786389116.644,-0.522,0.131,0.682,-0.4261508590906997,-5.406649346661139,-6.6323000445283835
1621786389121.564,-0.522,0.134,0.674,-0.38066520797825787,-5.549294823959341,-6.954103290493959
1621786389126.483,-0.489,0.157,0.658,-0.33518858537933577,-5.6919119873477975,-7.2758426612618425
1621786389127.693,-0.4786672787731401,0.157,0.6540637252469106,-0.324,-5.727,-7.355
1621786389131.402,-0.447,0.157,0.642,-0.2232145950428453,-5.8277854049571545,-7.4648840873491205
1621786389136.321,-0.398,0.169,0.634,-0.08955053902146873,-5.961449460978531,-7.610615037316871
1621786389141.239,-0.349,0.185,0.632,0.04408698055837096,-6.095086980558371,-7.756317055192112
1621786389143.591,-0.33082264150943397,0.18978351539225422,0.6310432969215491,0.108,-6.159,-7.826
1621786389146.156,-0.311,0.195,0.63,0.13640986402396865,-6.215981147729892,-7.814862041945148
1621786389151.073,-0.271,0.211,0.627,0.19087156794960436,-6.32521399708074,-7.793510578474303
1621786389155.99,-0.234,0.236,0.63,0.24533327187524007,-6.434446846431589,-7.772159115003457
1621786389159.481,-0.20914575883988876,0.255883392928089,0.6314202423520063,0.284,-6.512,-7.757
1621786389160.906,-0.199,0.264,0.632,0.26991635033579736,-6.514601438473005,-7.741211959612103
1621786389165.821,-0.166,0.269,0.637,0.22134139144600345,-6.5235738831087,-7.686758502512717
1621786389170.736,-0.129,0.274,0.644,0.17276643255620955,-6.532546327744394,-7.6323050454133305
1621786389175.367,-0.09790646266951468,0.28248005563558687,0.6392888579802295,0.127,-6.541,-7.581
1621786389175.651,-0.096,0.283,0.639,0.12455060031668434,-6.5362621101016165,-7.575207259143108
1621786389180.565,-0.054,0.288,0.641,0.08215892634783009,-6.454263616658212,-7.474952497348153
1621786389185.478,-0.026,0.3,0.634,0.03977567679749111,-6.372281418622884,-7.374717658995526
1621786389190.392,-0.012,0.311,0.634,-0.002615997171363127,-6.29028292517948,-7.274462897200571
1621786389191.248,-0.008341201610097899,0.31274228494757245,0.6317350295681559,-0.01,-6.276,-7.257
1621786389195.305,0.009,0.321,0.621,-0.014854886824947719,-6.183246109607578,-7.0891231240004915
1621786389200.217,0.012,0.326,0.613,-0.020733223643744622,-6.070938937753722,-6.885856424529462
1621786389205.128,0.007,0.351,0.599,-0.026610099643252554,-5.958659675236807,-6.68264023865174
1621786389207.125,0.002120302246967588,0.35791290515012925,0.5953402266852257,-0.029,-5.913,-6.6
1621786389210.039,-0.005,0.368,0.59,-0.023675690641727684,-5.887847228204024,-6.491861440964745
1621786389214.95,-0.033,0.394,0.581,-0.014702962529994463,-5.845458822986526,-6.309622238971267
1621786389219.86,-0.063,0.422,0.578,-0.005731572632744725,-5.803076739678828,-6.127410216575401
1621786389222.997,-0.08536164288200487,0.4437227387996619,0.573527671423599,0.0,-5.776,-6.011
1621786389224.77,-0.098,0.456,0.571,0.016424555735056544,-5.800134041080083,-5.984743057158243
1621786389229.679,-0.131,0.478,0.567,0.06190080775444265,-5.866956288945303,-5.912042926378952
1621786389234.588,-0.161,0.501,0.569,0.10737705977382875,-5.933778536810524,-5.839342795599661
1621786389238.865,-0.18190988661229363,0.5175536602347325,0.5733562263775611,0.147,-5.992,-5.776
1621786389239.497,-0.185,0.52,0.574,0.1454461936198698,-5.99510761276026,-5.781458242925073
1621786389244.405,-0.211,0.559,0.583,0.1333812381699829,-6.019237523660034,-5.823840265915701
1621786389249.312,-0.232,0.578,0.592,0.12131868334795254,-6.0433626333040955,-5.8662138559315515
1621786389254.219,-0.248,0.597,0.599,0.10925612852592216,-6.067487742948156,-5.9085874459474015
1621786389254.73,-0.24779168947499378,0.5991872605125653,0.599,0.108,-6.07,-5.913
1621786389259.125,-0.246,0.618,0.599,0.11326544435720994,-6.099929894240983,-5.924085146015179
1621786389264.031,-0.248,0.634,0.607,0.11914307486260564,-6.133339583429548,-5.936459104973907
1621786389268.937,-0.246,0.641,0.606,0.12502070536800136,-6.166749272618113,-5.948833063932635
1621786389270.589,-0.24498954755860833,0.6426840874023194,0.6100418097655667,0.127,-6.178,-5.953
1621786389273.842,-0.243,0.646,0.618,0.15921331115833565,-6.20610970464135,-5.894523607132958
1621786389278.747,-0.236,0.661,0.62,0.20778713542147895,-6.2484957805907175,-5.806348193661647
1621786389283.651,-0.236,0.677,0.634,0.25634887123102035,-6.290871308016878,-5.718194724198466
1621786389286.443,-0.23372205347806602,0.6861117860877359,0.634,0.284,-6.315,-5.668
1621786389288.554,-0.232,0.693,0.634,0.27361025435609854,-6.315,-5.66546916452264
1621786389293.458,-0.232,0.703,0.639,0.24947206088523932,-6.315,-5.659589348164353
1621786389298.36,-0.239,0.724,0.639,0.22534348087322248,-6.315,-5.653711873546041
1621786389302.29,-0.23499138360394461,0.7368275724673772,0.6373965534415779,0.206,-6.315,-5.649
1621786389303.262,-0.234,0.74,0.637,0.19876148358167556,-6.323465383607871,-5.650165523830069
1621786389308.163,-0.237,0.757,0.63,0.16225979629258672,-6.3661537975561275,-5.656042914156279
1621786389313.065,-0.244,0.773,0.623,0.1257526542058955,-6.408848590843953,-5.661921182797356
1621786389317.966,-0.246,0.778,0.614,0.08925096691680663,-6.451537004792209,-5.667798573123565
1621786389318.134,-0.2460685600398605,0.7782399601395117,0.613725759840558,0.088,-6.453,-5.668
1621786389322.866,-0.248,0.785,0.606,-0.07303862991737578,-6.537851522999137,-5.706242939943273
1621786389327.766,-0.246,0.806,0.599,-0.23980193303736594,-6.625719385867555,-5.745845357010729
1621786389332.665,-0.236,0.801,0.585,-0.40652369281045764,-6.7135653594771245,-5.785437908496732
1621786389333.972,-0.2349329213595136,0.7972652247582976,0.5788642978172032,-0.451,-6.737,-5.796
1621786389337.564,-0.232,0.787,0.562,-0.5689726145685561,-6.69253339912416,-5.909435206315919
1621786389342.462,-0.211,0.782,0.536,-0.7298348855856411,-6.631900696971567,-6.064110466909271
1621786389347.36,-0.213,0.78,0.513,-0.8907051748596805,-6.57126497255289,-6.218793437365077
1621786389349.805,-0.22148559465656464,0.7720135579702921,0.5095059316120027,-0.971,-6.541,-6.296
1621786389352.258,-0.23,0.764,0.506,-0.8433000802023567,-6.559287124437041,-6.349156641372078
1621786389357.155,-0.25,0.77,0.504,-0.5883831821827379,-6.595792214201986,-6.455268893824419
1621786389362.051,-0.274,0.768,0.522,-0.3335171201184527,-6.632290024060707,-6.561359985193412
1621786389365.634,-0.2857091851999601,0.768,0.5322455370499651,-0.147,-6.659,-6.639
1621786389366.947,-0.29,0.768,0.536,-0.12094596929723057,-6.662236010182828,-6.670779279487773
1621786389371.843,-0.283,0.773,0.541,-0.02379321144796727,-6.674302753992132,-6.789280891768881
1621786389376.738,-0.272,0.78,0.545,0.0733401681709481,-6.686367090951169,-6.907758867546093
1621786389381.458,-0.2507867331670823,0.7684291271820449,0.541143042394015,0.167,-6.698,-7.022
1621786389381.633,-0.25,0.768,0.541,0.16395670628183362,-6.698221330452231,-7.026880336471678
1621786389386.527,-0.222,0.754,0.541,0.07887181663837013,-6.704409322426301,-7.163325559499923
1621786389391.42,-0.192,0.74,0.541,-0.006191850594227499,-6.710595770952308,-7.299736749498379
1621786389396.313,-0.166,0.724,0.538,-0.09125976230899832,-6.716782528167927,-7.436154746102794
1621786389397.276,-0.1604899710607724,0.7234096397565113,0.5385903602434887,-0.108,-6.718,-7.463
1621786389401.206,-0.138,0.721,0.541,-0.024993716711694314,-6.871337954457738,-7.402112157468159
1621786389406.098,-0.117,0.714,0.548,0.07832327286761871,-7.062195986105751,-7.326325742956388
1621786389410.99,-0.099,0.721,0.565,0.1816454187572366,-7.253063543033578,-7.2505355461211884
1621786389413.09,-0.09255944893680743,0.7231468503543975,0.5765929919137466,0.226,-7.335,-7.218
1621786389415.881,-0.084,0.726,0.592,0.3211592667521196,-7.480475391101571,-7.1503821907865275
1621786389420.772,-0.068,0.728,0.621,0.48791272991212764,-7.735400908066036,-7.0318913254984325
1621786389425.661,-0.056,0.74,0.656,0.654599601562862,-7.9902246227974,-6.913447778481306
1621786389428.899,-0.04672980529206191,0.7426486270594109,0.6791754867698452,0.765,-8.159,-6.835
1621786389430.551,-0.042,0.744,0.691,0.7629094195063177,-8.21847701504526,-6.850365766628564
1621786389435.441,-0.03,0.737,0.724,0.7567217090426025,-8.394517377737959,-6.895845438536872
1621786389440.33,0.002,0.744,0.756,0.7505349253915784,-8.570531372609596,-6.9413182983718995
1621786389444.704,0.03421497427700914,0.7422102792068328,0.7882149742770092,0.745,-8.728,-6.982
1621786389445.218,0.038,0.742,0.792,0.7268141845944609,-8.72865065529179,-6.989027077151335
1621786389450.106,0.091,0.744,0.81,0.5538459136993077,-8.734839144411474,-7.055862759643917
1621786389454.993,0.159,0.733,0.819,0.38091220017309596,-8.741026397131552,-7.122685089020772
1621786389459.88,0.227,0.738,0.822,0.20797848664688434,-8.74721364985163,-7.189507418397627
1621786389460.501,0.23500639424517933,0.7378729143770606,0.8225083424917574,0.186,-8.748,-7.198
1621786389464.767,0.29,0.737,0.826,0.0800969696969697,-8.618052659245516,-7.139645269016698
1621786389469.653,0.333,0.744,0.831,-0.04119393939393942,-8.46922376314162,-7.0728115027829315
1621786389474.538,0.361,0.763,0.841,-0.16246060606060608,-8.320424613481755,-7.005991094619667
1621786389476.292,0.3459233997901364,0.7680255334032878,0.8618200669564783,-0.206,-8.267,-6.982
1621786389479.424,0.319,0.777,0.899,-0.36552173711316294,-8.126922454724014,-7.157196136655377
1621786389484.308,0.241,0.782,0.97,-0.614273187027328,-7.90849145517252,-7.430389582270063
1621786389489.192,0.162,0.763,0.99,-0.8630122024776133,-7.6900713744413,-7.703569371626533
1621786389492.078,0.11354601349662585,0.7287276680829793,0.9793637590602349,-1.01,-7.561,-7.865
1621786389494.076,0.08,0.705,0.972,-1.094459903142455,-7.51009613033993,-8.03012101004162
1621786389498.959,-0.012,0.642,0.953,-1.3008727236156026,-7.3856914019588125,-8.433662716034101
1621786389503.842,-0.093,0.56,0.932,-1.50728554408875,-7.261286673577695,-8.837204422026582
1621786389507.857,-0.1143817072560884,0.502433865079762,0.9188420263039456,-1.677,-7.159,-9.169
1621786389508.724,-0.119,0.49,0.916,-1.689917562945883,-7.191871075070799,-9.205663891425123
1621786389513.606,-0.098,0.426,0.888,-1.7626370417369503,-7.376918940249771,-9.412063433355515
1621786389518.487,-0.024,0.374,0.855,-1.8353456104241785,-7.56193904269642,-9.618432009161392
1621786389523.368,0.065,0.335,0.801,-1.908050542410127,-7.746949890898962,-9.824790262925765
1621786389523.633,0.07086762719495723,0.33298979438691284,0.7985551553354345,-1.912,-7.757,-9.836
1621786389528.248,0.173,0.298,0.756,-1.547704235162998,-7.616548620785734,-9.692622550385437
1621786389533.128,0.264,0.262,0.724,-1.1624985139778954,-7.468035571654128,-9.541015479396924
1621786389538.007,0.321,0.232,0.7,-0.777350608340299,-7.319544812854091,-9.389431163121884
1621786389539.405,0.3321746397117694,0.2211118895116093,0.7,-0.667,-7.277,-9.346
1621786389542.886,0.36,0.194,0.7,-0.5089261094422595,-7.0343698244092785,-9.088357220278096
1621786389547.765,0.382,0.152,0.71,-0.28736988634604066,-6.694299588120529,-8.727245331516523
1621786389552.643,0.391,0.136,0.714,-0.06584692329131947,-6.354280403208325,-8.366187652906383
1621786389555.172,0.39463000600720866,0.1277028434120945,0.7274828794553464,0.049,-6.178,-8.179
1621786389557.52,0.398,0.12,0.74,0.09279149694106714,-6.08460792999303,-8.08694848602184
1621786389562.396,0.4,0.115,0.766,0.18373501122899405,-5.89065696584837,-7.895781507008441
1621786389567.272,0.396,0.117,0.792,0.27467852551692096,-5.69670600170371,-7.7046145279950435
1621786389570.935,0.3892387342279191,0.13803504906869618,0.8182938113358702,0.343,-5.551,-7.561
1621786389572.148,0.387,0.145,0.827,0.45022689804772237,-5.499657328788349,-7.528516330957546
1621786389577.024,0.367,0.19,0.871,0.8812928416485901,-5.29325317632476,-7.397927796715216
1621786389581.899,0.335,0.25,0.918,1.3122724511930586,-5.086890362565851,-7.267365416795785
1621786389586.692,0.30255528846153845,0.3148894230769231,0.9710913461538462,1.736,-4.884,-7.139
1621786389586.774,0.302,0.316,0.972,1.7404941646905658,-4.879604779839123,-7.139
1621786389591.648,0.29,0.377,1.016,2.007522450055021,-4.61845544861363,-7.139
1621786389596.521,0.29,0.443,1.059,2.274497233458874,-4.357358441437672,-7.139
1621786389601.395,0.304,0.492,1.094,2.541525518823329,-4.096209110212179,-7.139
1621786389602.444,0.307660503106835,0.49953632992583685,1.0998137402285029,2.599,-4.04,-7.139
1621786389606.267,0.321,0.527,1.121,2.6084689665865572,-3.899665059306923,-7.055721652841306
1621786389611.139,0.318,0.553,1.145,2.6205357159469727,-3.72082964570897,-6.9495961392356
1621786389616.011,0.295,0.565,1.155,2.632603070005427,-3.541985270175983,-6.84346530738817
1621786389618.19,0.28247745039085986,0.5806531870114251,1.1567889356584486,2.638,-3.462,-6.796
1621786389620.883,0.267,0.6,1.159,2.5692358578340158,-3.4753422962411613,-6.755802056196502
1621786389625.753,0.209,0.623,1.14,2.4448918868626723,-3.4994687383699294,-6.683113416449572
1621786389630.624,0.14,0.639,1.119,2.3205167473018236,-3.523601228135467,-6.610406556258528
1621786389633.934,0.08901218472647045,0.6451185378328236,1.1013242240385097,2.236,-3.54,-6.561
1621786389635.493,0.065,0.648,1.093,2.162208445154585,-3.61190962257419,-6.614387447062656
1621786389640.363,-0.01,0.649,1.065,1.9316690659758313,-3.8365694739618075,-6.781180367032251
1621786389645.232,-0.08,0.672,1.018,1.7011874718830957,-4.06117301397701,-6.947931480073841
1621786389649.672,-0.13928560682046137,0.6929779839518555,0.9669231695085255,1.491,-4.266,-7.1
1621786389650.1,-0.145,0.695,0.962,1.4613743598497781,-4.300413622396722,-7.122416462335888
1621786389654.968,-0.197,0.698,0.902,1.1244059405940594,-4.691841584158416,-7.377386138613861
1621786389659.835,-0.234,0.7,0.841,0.7875051212017755,-5.08319102082622,-7.632304664949253
1621786389664.702,-0.25,0.7,0.773,0.4506043018094914,-5.474540457494025,-7.8872231912846456
1621786389665.404,-0.249134430176565,0.6979803370786517,0.7618918539325843,0.402,-5.531,-7.924
1621786389669.569,-0.244,0.686,0.696,0.1344980982099887,-5.886698073370282,-7.960284911430922
1621786389674.435,-0.225,0.661,0.623,-0.17802126899849413,-6.30225600422275,-8.0026761523295
1621786389679.301,-0.194,0.644,0.55,-0.49054063620697685,-6.717813935075218,-8.045067393228075
1621786389681.13,-0.17933609396175276,0.6368560457762386,0.5184162023791598,-0.608,-6.874,-8.061
1621786389684.165,-0.155,0.625,0.466,-0.7008452628637083,-6.980164021985529,-8.079916498462877
1621786389689.03,-0.087,0.607,0.396,-0.8496650467347763,-7.150332174021054,-8.110237369189207
1621786389693.893,-0.017,0.581,0.328,-0.9984250846194453,-7.320432009440115,-8.140546067136603
1621786389696.854,0.02317708176479446,0.5639551774331175,0.2793005069517643,-1.089,-7.424,-8.159
1621786389698.757,0.049,0.553,0.248,-1.1542559602391862,-7.389495457016386,-8.149556651393958
1621786389703.62,0.113,0.529,0.173,-1.3210081696047216,-7.301324066164479,-8.125425533897648
1621786389708.483,0.173,0.492,0.094,-1.4877520074551525,-7.213157101809428,-8.101295627863633
1621786389712.573,0.21506126035651518,0.4625571177504394,0.025019533015315093,-1.628,-7.139,-8.081
1621786389713.345,0.223,0.457,0.012,-1.6448515537600994,-7.105296892479801,-8.0684718769422
1621786389718.207,0.262,0.428,-0.059,-1.7509864978247358,-6.893027004350529,-7.989566889372281
1621786389723.068,0.286,0.386,-0.136,-1.857100124300808,-6.680799751398384,-7.910677750155376
1621786389727.929,0.307,0.349,-0.211,-1.963208421379739,-6.468583157240523,-7.831792573026724
1621786389728.286,0.30920324508966696,0.34606233988044405,-0.21489239965841161,-1.971,-6.453,-7.826
1621786389732.789,0.337,0.309,-0.264,-1.9486389493316756,-6.25347062480572,-7.66287900217594
1621786389737.649,0.372,0.269,-0.319,-1.9245067143301213,-6.038136835561081,-7.486837441715884
1621786389742.508,0.391,0.23,-0.372,-1.9003781162573827,-5.8228354989120295,-7.310822412185265
1621786389743.994,0.3925289920610994,0.2153216762134459,-0.38514933172545474,-1.893,-5.757,-7.257
1621786389747.367,0.396,0.182,-0.415,-1.781289588257246,-5.592656798109218,-7.054632292573703
1621786389752.226,0.374,0.133,-0.443,-1.62036223410872,-5.355907902102252,-6.763106201020028
1621786389757.083,0.34,0.08,-0.468,-1.4595076502052495,-5.119266062321184,-6.471711935564125
1621786389759.695,0.3174169263242537,0.05687923409387878,-0.4792915368378732,-1.373,-4.992,-6.315
1621786389761.941,0.298,0.037,-0.489,-1.2986010576250098,-4.9316223967649115,-6.21971212380434
1621786389766.798,0.258,-0.021,-0.517,-1.1376958550431604,-4.801041636208104,-6.013629691266817
1621786389771.654,0.216,-0.084,-0.529,-0.976831091064624,-4.670493693133214,-5.807599051248153
1621786389775.392,0.17982016088486677,-0.12402875816993464,-0.5467050276520865,-0.853,-4.57,-5.649
1621786389776.51,0.169,-0.136,-0.552,-0.8054787147969503,-4.559526793216119,-5.626628660339194
1621786389781.366,0.126,-0.183,-0.562,-0.5990584565115917,-4.514033872724444,-5.529453306363778
1621786389786.221,0.086,-0.23,-0.578,-0.39267971059592344,-4.4685501011358335,-5.432297494943208
1621786389791.076,0.056,-0.271,-0.595,-0.18630096468025514,-4.423066329547223,-5.335141683522639
1621786389791.083,0.05593144552861885,-0.2710452167789961,-0.5950204204808369,-0.186,-4.423,-5.335
1621786389795.93,0.009,-0.302,-0.609,0.04726301783435524,-4.4288701951507985,-5.2228483768558
1621786389800.783,-0.038,-0.335,-0.611,0.28081977341342707,-4.434747782377292,-5.110555526160167
1621786389805.636,-0.087,-0.34,-0.613,0.5143765289924989,-4.440625369603785,-4.998262675464534
1621786389806.771,-0.10173422879565348,-0.34140325988530035,-0.6137016299426502,0.569,-4.442,-4.972
1621786389810.489,-0.15,-0.346,-0.616,0.7643469286092344,-4.5003195927644075,-4.958012780597155
1621786389815.341,-0.216,-0.36,-0.609,1.0192766586755502,-4.576427254895856,-4.939759316915222
1621786389820.193,-0.279,-0.353,-0.607,1.2742063887418662,-4.652534917027305,-4.921505853233289
1621786389822.454,-0.3139577230862147,-0.3478728672806885,-0.60373727917862,1.393,-4.688,-4.913
1621786389825.044,-0.354,-0.342,-0.6,1.4982259682015666,-4.770594951492595,-5.0086449538284255
1621786389829.895,-0.415,-0.333,-0.588,1.6953262687450363,-4.925304763536135,-5.187798916174845
1621786389834.745,-0.473,-0.312,-0.578,1.8923868913216124,-5.079983431178659,-5.366916813304888
1621786389838.132,-0.5086237349579579,-0.2973314032526056,-0.5689194401087558,2.03,-5.188,-5.492
1621786389839.594,-0.524,-0.291,-0.565,2.0775771172181714,-5.259365675827257,-5.588926715273883
1621786389844.444,-0.559,-0.272,-0.557,2.235420639371845,-5.496130959057767,-5.91049420452421
1621786389849.292,-0.579,-0.243,-0.545,2.393192652832305,-5.732788979248458,-6.231916012338755
1621786389853.803,-0.5873724196959017,-0.2216038163326956,-0.530115698318397,2.54,-5.953,-6.531
1621786389854.141,-0.588,-0.22,-0.529,2.543798778207206,-5.967374922079541,-6.554073260815359
1621786389858.989,-0.562,-0.202,-0.511,2.598262560777958,-6.173470826580227,-6.884878849270664
1621786389863.836,-0.529,-0.176,-0.489,2.652715372148111,-6.379525215060466,-7.215617800149607
1621786389868.683,-0.48,-0.155,-0.476,2.7071709263184145,-6.585589982545817,-7.546373410422641
1621786389869.469,-0.47010935375006296,-0.15159502342215284,-0.47389215735657075,2.716,-6.619,-7.6
1621786389873.53,-0.419,-0.134,-0.463,2.820502190281697,-6.733615305470248,-7.778146413706019
1621786389878.376,-0.337,-0.103,-0.445,2.9452024412677136,-6.870383322680718,-7.99072475719831
1621786389883.221,-0.246,-0.07,-0.417,3.0698775624736934,-7.007123778196954,-8.203260261586669
1621786389885.13,-0.2109336860670194,-0.060149911816578486,-0.4095139329805996,3.119,-7.061,-8.287
1621786389888.066,-0.157,-0.045,-0.398,3.0361047518051247,-7.057249083792087,-8.290563370397518
1621786389892.911,-0.061,-0.017,-0.38,2.8993131169783073,-7.051059417057842,-8.29644355379505
1621786389897.755,0.031,-0.014,-0.356,2.7625490541615334,-7.0448709979258615,-8.30232255197043
1621786389900.785,0.07603537949803446,-0.008370577562745691,-0.3547490172361657,2.677,-7.041,-8.306
1621786389902.599,0.103,-0.005,-0.354,2.5634027329308813,-6.9875629182460575,-8.20596485563199
1621786389907.442,0.157,-0.009,-0.351,2.260170948570359,-6.844920211521363,-7.938935233281856
1621786389912.284,0.208,-0.005,-0.335,1.9569850250362677,-6.702299078103795,-7.671945996537039
1621786389916.436,0.2508668649493371,-0.005,-0.3272839643091193,1.697,-6.58,-7.443
1621786389917.127,0.258,-0.005,-0.326,1.659727130863581,-6.562246808776256,-7.391462750850472
1621786389921.969,0.29,-0.01,-0.318,1.3985141225305078,-6.437830186323772,-7.0302831528354295
1621786389926.81,0.288,-0.03,-0.312,1.1373537966979808,-6.313438656721076,-6.669176398988795
1621786389931.65,0.257,-0.049,-0.305,0.8762593239911364,-6.189078493180612,-6.308160700352673
1621786389932.081,0.252725049170407,-0.050692168036713905,-0.3037531393413687,0.853,-6.178,-6.276
1621786389936.491,0.209,-0.068,-0.291,0.6925515400346567,-6.136548464648672,-6.129650701718782
1621786389941.331,0.147,-0.094,-0.269,0.5164517382955806,-6.0910534367828655,-5.969025399253789
1621786389946.17,0.087,-0.127,-0.255,0.3403963501256694,-6.045569883072888,-5.80844060758387
1621786389947.72,0.07194510872307149,-0.13725013874173855,-0.25147651480752736,0.284,-6.031,-5.757
1621786389951.009,0.04,-0.159,-0.244,0.14388800224869996,-6.043412324125115,-5.82284843137561
1621786389955.847,-0.014,-0.199,-0.255,-0.06220310133204243,-6.061669644111998,-5.91970506113653
1621786389960.685,-0.075,-0.232,-0.264,-0.2683046051501476,-6.079927885441229,-6.0165665786966915
1621786389963.354,-0.09983040581465778,-0.25407147183525136,-0.27338037552998184,-0.382,-6.09,-6.07
1621786389965.522,-0.12,-0.272,-0.281,-0.41611917219836003,-6.115797422881687,-6.162510113237017
1621786389970.359,-0.155,-0.302,-0.298,-0.49224181179226867,-6.173353565013667,-6.368907676688794
1621786389975.196,-0.171,-0.335,-0.33,-0.5683682936352987,-6.230912612260836,-6.575315657946115
1621786389978.985,-0.171,-0.3600726978998384,-0.3589903069466882,-0.628,-6.276,-6.737
1621786389980.032,-0.171,-0.367,-0.367,-0.611518,-6.291812,-6.753415
1621786389984.867,-0.161,-0.393,-0.401,-0.535396375,-6.364839249999999,-6.8292271875
1621786389989.703,-0.145,-0.417,-0.44,-0.459259375,-6.437881249999999,-6.9050546875
1621786389994.537,-0.122,-0.438,-0.473,-0.38314928125,-6.5108974375,-6.980855390625
1621786389994.61,-0.12165267676767677,-0.43824161616161617,-0.4735587373737373,-0.382,-6.512,-6.982
1621786389999.371,-0.099,-0.454,-0.51,-0.3283546476187499,-6.517791259632066,-6.889339845886932
1621786390004.205,-0.082,-0.482,-0.545,-0.2738867753481611,-6.523671314024914,-6.795258975601369
1621786390009.038,-0.061,-0.499,-0.578,-0.21942990668813203,-6.529550180527986,-6.701197111552228
1621786390010.23,-0.05705415235401091,-0.5054120024247323,-0.5851518488583551,-0.206,-6.531,-6.678
1621786390013.871,-0.045,-0.525,-0.607,-0.11460462425938372,-6.521907092719683,-6.607121953507277
1621786390018.703,-0.037,-0.539,-0.627,0.006677786983913608,-6.509840730376601,-6.513066206012475
1621786390023.535,-0.017,-0.534,-0.637,0.12796632638704333,-6.497773758344146,-6.419005706067191
1621786390025.847,-0.010299979785728724,-0.5330428542551041,-0.6336499898928644,0.186,-6.492,-6.374
1621786390028.366,-0.003,-0.532,-0.63,0.23198830208154136,-6.509427146051952,-6.361413727851367
1621786390033.196,0.017,-0.536,-0.618,0.320167461645528,-6.5428424065183055,-6.337280484181224
1621786390038.026,0.03,-0.541,-0.607,0.40834216411491486,-6.576255977980389,-6.313148460347497
1621786390041.458,0.032129032258064516,-0.5573225806451613,-0.6219032258064516,0.471,-6.6,-6.296
1621786390042.862,0.033,-0.564,-0.628,0.48121926400680404,-6.620525872150418,-6.285693391856386
1621786390047.848,0.047,-0.581,-0.653,0.517508224108865,-6.693413954406695,-6.24909426970217
1621786390052.835,0.051,-0.599,-0.667,0.553806068982276,-6.766319882143888,-6.2124861868383885
1621786390057.533,0.051,-0.6348044361749009,-0.6717111100230133,0.588,-6.835,-6.178
1621786390057.821,0.051,-0.637,-0.672,0.6009801966696465,-6.836752147759815,-6.176069061652449
1621786390062.808,0.047,-0.66,-0.688,0.8256806012212305,-6.867083607327384,-6.14264255519023
1621786390067.794,0.044,-0.677,-0.689,1.0503260049394687,-6.897407642540038,-6.109224230670161
1621786390072.781,0.035,-0.679,-0.679,1.275026409491053,-6.927739102107608,-6.075797724207943
1621786390073.646,0.03552044263820203,-0.679,-0.6783060764823974,1.314,-6.933,-6.07
1621786390077.767,0.038,-0.679,-0.675,1.5446968287398295,-6.940672843527932,-6.122686858891802
1621786390082.754,0.047,-0.661,-0.661,1.8238563917635116,-6.949957529659541,-6.186441703662177
1621786390087.74,0.07,-0.641,-0.625,2.1029749541659726,-6.959240852134124,-6.250187184654313
1621786390089.759,0.07364370685856954,-0.6393805747295247,-0.6156883046947668,2.216,-6.963,-6.276
1621786390092.727,0.079,-0.637,-0.602,2.156510688260336,-6.9070100595391395,-6.22369360825367
1621786390097.713,0.08,-0.646,-0.602,2.0565772569575955,-6.812955065371854,-6.135826442650022
1621786390102.699,0.065,-0.661,-0.602,1.9566389322344602,-6.718895465632433,-6.047954974472404
1621786390105.874,0.04462696431194008,-0.6622733147305038,-0.5943601116169775,1.893,-6.659,-5.992
1621786390107.686,0.033,-0.663,-0.59,1.875345438843689,-6.642469933184855,-5.963325394300259
1621786390112.672,0.0,-0.649,-0.576,1.826765662166871,-6.596984409799554,-5.884421935366574
1621786390117.658,-0.04,-0.635,-0.562,1.7781882641698104,-6.551501113585746,-5.805522339893641
1621786390121.988,-0.07038919077691291,-0.6306586870318696,-0.5455030107211044,1.736,-6.512,-5.737
1621786390122.645,-0.075,-0.63,-0.543,1.715204333661641,-6.517994045003409,-5.748172573679824
1621786390127.631,-0.105,-0.618,-0.534,1.5573782862338055,-6.563485082203197,-5.832965391317524
1621786390132.617,-0.129,-0.607,-0.518,1.3995599666641412,-6.6089738919615115,-5.91775405712554
1621786390137.604,-0.145,-0.602,-0.517,1.2417030078036215,-6.654473838927191,-6.002563482081976
1621786390138.1,-0.14619394799980415,-0.6037909219997062,-0.517,1.226,-6.659,-6.011
1621786390142.59,-0.157,-0.62,-0.517,1.1031109579078153,-6.708044152853117,-6.0957126276553835
1621786390147.576,-0.166,-0.628,-0.525,0.9666507318403588,-6.762504469832419,-6.18978044789236
1621786390152.563,-0.168,-0.635,-0.527,0.8301570956695657,-6.816978120549107,-6.283871299130277
1621786390154.213,-0.167338197130686,-0.637316310042599,-0.528323605738628,0.785,-6.835,-6.315
1621786390157.549,-0.166,-0.642,-0.531,0.785,-6.873720433366164,-6.3435744374573835
1621786390162.535,-0.166,-0.646,-0.538,0.785,-6.9315871505417075,-6.386278218046822
1621786390167.521,-0.159,-0.642,-0.539,0.785,-6.989456701265247,-6.428984089703766
1621786390170.325,-0.15675101581240514,-0.642,-0.5440602144220884,0.785,-7.022,-6.453
1621786390172.508,-0.155,-0.642,-0.548,0.7637285564932802,-7.071046258276641,-6.437012545644631
1621786390177.494,-0.15,-0.646,-0.562,0.7151482143668844,-7.183059531205019,-6.400499931817149
1621786390182.48,-0.133,-0.665,-0.571,0.6665654934165669,-7.295078289064986,-6.363985530083789
1621786390186.438,-0.1298253781759436,-0.6673809663680423,-0.5805238654721692,0.628,-7.384,-6.335
1621786390187.467,-0.129,-0.668,-0.583,0.6154209601430065,-7.407817166835831,-6.324975079910924
1621786390192.453,-0.115,-0.668,-0.604,0.5544745421217676,-7.5232131765917805,-6.276403569102119
1621786390197.439,-0.098,-0.689,-0.613,0.4935251397494357,-7.6386148369211195,-6.227829679901834
1621786390202.425,-0.08,-0.707,-0.63,0.4325757373771038,-7.754016497250458,-6.17925579070155
1621786390202.554,-0.07932778376260895,-0.7072585447066888,-0.6301809812946823,0.431,-7.757,-6.178
1621786390207.411,-0.054,-0.717,-0.637,0.43702821083890125,-7.830845582776541,-6.166244988864142
1621786390212.397,-0.028,-0.733,-0.648,0.44321671742193536,-7.906654788418709,-6.154177401027226
1621786390217.384,-0.002,-0.757,-0.658,0.4494064360710877,-7.982478841870825,-6.1421074496613794
1621786390218.668,0.005210106252754247,-0.7624075796895657,-0.6598025265631886,0.451,-8.002,-6.139
1621786390222.37,0.026,-0.778,-0.665,0.5141804614941745,-8.024515219005197,-6.114187309667742
1621786390227.356,0.049,-0.791,-0.677,0.5992682605336122,-8.05483741648107,-6.0807710104086174
1621786390232.342,0.063,-0.799,-0.686,0.684360226050331,-8.085161098737936,-6.047353074860234
1621786390234.782,0.06985123886005289,-0.8024256194300264,-0.6884468710214474,0.726,-8.1,-6.031
1621786390237.328,0.077,-0.806,-0.691,0.897906604645525,-8.078353672025333,-6.155031879270898
1621786390242.314,0.075,-0.812,-0.7,1.2345817663904,-8.035959832724737,-6.397945484022485
1621786390247.3,0.056,-0.785,-0.707,1.5712569281352748,-7.993565993424143,-6.640859088774072
1621786390250.895,0.034368915875036724,-0.7503902654000587,-0.7084420722749976,1.814,-7.963,-6.816
1621786390252.286,0.026,-0.737,-0.709,1.8021742299125745,-7.943491795330233,-6.987775784481583
1621786390257.271,-0.021,-0.674,-0.702,1.7597886937680876,-7.873571129865604,-7.60344890074092
1621786390262.258,-0.08,-0.618,-0.702,1.7173865513113835,-7.803623070046516,-8.219363232776253
1621786390267.008,-0.155277892056029,-0.5627326868449408,-0.7296336565775297,1.677,-7.737,-8.806
1621786390267.243,-0.159,-0.56,-0.731,1.6945754343972974,-7.74386403781188,-8.82615491357501
1621786390272.229,-0.209,-0.49,-0.745,2.067697156534517,-7.889585705412735,-9.254038281498538
1621786390277.216,-0.227,-0.401,-0.74,2.440891957401039,-8.035335913711352,-9.682005453636515
1621786390282.202,-0.188,-0.314,-0.712,2.8139954098559334,-8.181050446137766,-10.10986787050643
1621786390283.124,-0.17098565342995642,-0.29883503892670027,-0.7088560446555354,2.883,-8.208,-10.189
1621786390287.188,-0.096,-0.232,-0.695,2.97958699834866,-8.309378520459951,-10.226071250018938
1621786390292.174,0.023,-0.164,-0.674,3.0980897177572078,-8.433759964852213,-10.271554016998197
1621786390297.16,0.161,-0.101,-0.665,3.21658663475086,-8.55813531898132,-10.31703455694093
1621786390299.239,0.2206282622533418,-0.07764907212456544,-0.6591622680311414,3.266,-8.61,-10.336
1621786390302.146,0.304,-0.045,-0.651,3.2429114844495612,-8.434851964066594,-10.084912393388981
1621786390307.132,0.428,-0.01,-0.632,3.203309842299011,-8.134436381815151,-9.654244535001743
1621786390312.117,0.532,0.009,-0.616,3.163717895502265,-7.834094347911711,-9.223682113587131
1621786390315.355,0.5923837567924806,0.03172506976061095,-0.6010663827287414,3.138,-7.639,-8.944
1621786390317.104,0.625,0.044,-0.593,3.0815623494477857,-7.4932389140545705,-8.76513606132683
1621786390322.089,0.681,0.063,-0.579,2.920702440650234,-7.077787264987047,-8.255333888829973
1621786390327.075,0.717,0.072,-0.574,2.759818897995667,-6.66227457693881,-7.745456815186269
1621786390331.47,0.7222887430837781,0.06406688537433286,-0.5722370856387405,2.618,-6.296,-7.296
1621786390332.061,0.723,0.063,-0.572,2.561185889375369,-6.253893738542882,-7.267941385004621
1621786390337.047,0.7,0.038,-0.581,2.0819150999136453,-5.898694986895329,-7.031245352765616
1621786390342.033,0.661,-0.023,-0.595,1.602667777659945,-5.543513627342555,-6.794560910206493
1621786390347.019,0.597,-0.084,-0.628,1.1233969881982213,-5.188314875695002,-6.5578648779674875
1621786390347.585,0.5888276368622074,-0.08797267652531585,-0.6319726765253159,1.069,-5.148,-6.531
1621786390352.005,0.525,-0.119,-0.663,0.8940132258699834,-5.000166345993606,-6.571318269274471
1621786390356.99,0.452,-0.152,-0.7,0.6966504916145257,-4.833428863605375,-6.616792128107625
1621786390361.976,0.391,-0.164,-0.721,0.4992490947929765,-4.666658718014756,-6.662274895086885
1621786390363.7,0.37820708059935365,-0.17022358241112526,-0.7268778278327294,0.431,-4.609,-6.678
1621786390366.962,0.354,-0.182,-0.738,0.3854504462188821,-4.503729920150305,-6.787318929074683
1621786390371.948,0.323,-0.187,-0.745,0.31582552765951,-4.342818997257535,-6.954418733617176
1621786390376.934,0.316,-0.185,-0.761,0.24620060910013788,-4.181908074364763,-7.121518538159669
1621786390379.813,0.3148451669767897,-0.1901967486044462,-0.7731257467437078,0.206,-4.089,-7.218
1621786390381.92,0.314,-0.194,-0.782,0.1149858322600197,-4.056961966815668,-7.155100840972801
1621786390386.906,0.305,-0.197,-0.81,-0.10040030305326156,-3.981143571482688,-7.006249215849685
1621786390391.891,0.278,-0.227,-0.831,-0.31574425335252665,-3.905340025759527,-6.857426744450337
1621786390395.925,0.2537276466555675,-0.2569359024581334,-0.840708941337773,-0.49,-3.844,-6.737
1621786390396.877,0.248,-0.264,-0.843,-0.4934851000651446,-3.8497888102776976,-6.714435453815504
1621786390401.863,0.208,-0.295,-0.846,-0.5117400881724665,-3.8801106549305375,-6.596242140985047
1621786390406.849,0.157,-0.332,-0.843,-0.5299950762797885,-3.9104324995833775,-6.47804882815459
1621786390411.834,0.093,-0.361,-0.833,-0.5482455951641493,-3.9407469207811294,-6.359884451649068
1621786390412.04,0.09010718307790236,-0.3618678450766293,-0.8322561327914606,-0.549,-3.942,-6.355
1621786390416.82,0.023,-0.382,-0.815,-0.33098425924523156,-3.9654329843804446,-6.535344993712789
1621786390421.806,-0.051,-0.414,-0.796,-0.10358155953156484,-3.9898749072068114,-6.723454982047359
1621786390426.792,-0.124,-0.426,-0.771,0.12383227536473407,-4.014318026875937,-6.911574181526202
1621786390428.155,-0.14395979235026202,-0.431741858073363,-0.7611568147313776,0.186,-4.021,-6.963
1621786390431.777,-0.197,-0.447,-0.735,0.4220165447025135,-4.183963804675545,-7.170245004014969
1621786390436.763,-0.276,-0.442,-0.682,0.7468972319440026,-4.408286183961335,-7.455521188430829
1621786390441.749,-0.339,-0.443,-0.621,1.071793827553293,-4.632619547596322,-7.740811341908701
1621786390444.269,-0.35922137329807036,-0.4333948476834166,-0.5825793907336664,1.236,-4.746,-7.885
1621786390446.734,-0.379,-0.424,-0.545,1.3455346011061444,-5.019071596333056,-7.964397287673308
1621786390451.72,-0.391,-0.391,-0.442,1.5671099931813015,-5.57146276233048,-8.125008500643988
1621786390456.706,-0.36,-0.337,-0.319,1.7886853852564588,-6.123853928327904,-8.285619713614668
1621786390460.381,-0.32387515917327847,-0.30308688412185325,-0.2371661769027329,1.952,-6.531,-8.404
1621786390461.691,-0.311,-0.291,-0.208,1.922488028489165,-6.661812016972268,-8.42717055614487
1621786390466.677,-0.239,-0.267,-0.117,1.810144506743446,-7.159775450825883,-8.515374147598122
1621786390471.662,-0.162,-0.274,-0.033,1.6978229883315654,-7.65764135475072,-8.603560463706621
1621786390476.492,-0.06900381941043973,-0.30403001664871215,0.03577842522769563,1.589,-8.14,-8.689
1621786390476.648,-0.066,-0.305,0.038,1.5855824735239308,-8.136572792145811,-8.69441189036862
1621786390481.634,0.021,-0.349,0.108,1.4763553323333787,-8.027036225626109,-8.867380649364422
1621786390486.619,0.108,-0.391,0.176,1.3671549323515597,-7.91752647606927,-9.04030706180022
1621786390491.605,0.19,-0.435,0.222,1.2579277911610078,-7.8079899095495655,-9.213275820796024
1621786390492.606,0.20546109016112446,-0.44122459474019293,0.22922856163377248,1.236,-7.786,-9.248
1621786390496.59,0.267,-0.466,0.258,1.2602301410541945,-7.5872139448206894,-9.213880005454296
