time,gyro_x,gyro_y,gyro_z,acc_x,acc_y,acc_z
1621784923550.508,,,,2.138,-6.051,-9.454
1621784923569.154,,,,2.177,-6.07,-8.885
1621784923588.103,,,,2.079,-5.668,-7.963
1621784923588.612,0.611,1.494,1.449,2.057217364844305,-5.6558133558170205,-7.930088130134902
1621784923594.54,0.618,1.419,1.452,1.803546302870474,-5.513893016533117,-7.546810858099199
1621784923600.498,0.609,1.358,1.452,1.548590222132062,-5.371253752916117,-7.161592022517497
1621784923606.485,0.569,1.297,1.443,1.2923909118571864,-5.227918944619129,-6.774494763667715
1621784923607.359,0.5581065703502293,1.2881400105515197,1.4405308226127187,1.255,-5.207,-6.718
1621784923612.501,0.494,1.236,1.426,1.0333971193929257,-5.055058760390405,-6.638086268440628
1621784923618.546,0.384,1.199,1.414,0.7728858990040188,-4.8764401537655075,-6.5441415341604054
1621784923624.621,0.269,1.19,1.405,0.5110700182222111,-4.696927011307755,-6.449726317366016
1621784923626.92,0.21964634097547314,1.2013023646621053,1.397841835714,0.412,-4.629,-6.414
1621784923630.723,0.138,1.22,1.386,0.4947403345577548,-4.68148454057768,-6.621879945033165
1621784923636.343,0.028,1.267,1.368,0.6170156444068602,-4.759047237123754,-6.9290890568431065
1621784923641.968,-0.084,1.332,1.351,0.7393971882349832,-4.836677320895325,-7.236565074918739
1621784923645.397,-0.1381948840234121,1.3764519835248212,1.3394303056579233,0.814,-4.884,-7.424
1621784923647.599,-0.173,1.405,1.332,0.8566394729089107,-5.001288748426494,-7.5164056565873
1621784923653.236,-0.236,1.468,1.306,0.965786123684281,-5.301519337386507,-7.752941599485765
1621784923658.878,-0.265,1.541,1.288,1.0750273187454804,-5.602009990090259,-7.989682432975333
1621784923663.628,-0.2624775055101776,1.6023806992523446,1.2762283590474957,1.167,-5.855,-8.189
1621784923664.527,-0.262,1.614,1.274,1.1939883475707422,-5.89255755472504,-8.202469594233849
1621784923670.182,-0.225,1.691,1.272,1.363715229578217,-6.128753069941271,-8.287178457020822
1621784923675.842,-0.168,1.759,1.276,1.5336033235451147,-6.365172931126535,-8.371967778964228
1621784923681.51,-0.101,1.798,1.276,1.7037259076348104,-6.601919113721302,-8.4568741324079
1621784923681.919,-0.09645777376033059,1.8010281508264463,1.2765046918044076,1.716,-6.619,-8.463
1621784923687.182,-0.038,1.84,1.283,1.842455040038309,-6.588318164888664,-8.510886602463486
1621784923692.861,0.023,1.869,1.292,1.978911742797095,-6.555209622495942,-8.562560682646518
1621784923698.546,0.065,1.897,1.316,2.115503365346245,-6.522068344462475,-8.614285854904361
1621784923700.273,0.07501424220325169,1.9003380807344172,1.3211588520440993,2.157,-6.512,-8.63
1621784923704.237,0.098,1.908,1.333,1.9522722343020789,-6.469590567988969,-8.63
1621784923709.933,0.124,1.901,1.349,1.6580982180738226,-6.408652312261349,-8.63
1621784923715.636,0.14,1.883,1.354,1.36357115772168,-6.347640923313534,-8.63
1621784923718.687,0.14534425248032842,1.8637606910708175,1.360947528224427,1.206,-6.315,-8.63
1621784923721.345,0.15,1.847,1.367,1.0142251367708857,-6.334853661759654,-8.605974191928537
1621784923727.059,0.152,1.796,1.365,0.6019452916457436,-6.3775352961387,-8.554323228585776
1621784923732.78,0.161,1.747,1.365,0.18917222559928115,-6.4202679916483865,-8.502610473874778
1621784923737.162,0.1740076306590502,1.7026210248102993,1.35811360729815,-0.127,-6.453,-8.463
1621784923738.507,0.178,1.689,1.356,-0.21027187022699742,-6.4444406962658665,-8.439570719439615
1621784923744.239,0.201,1.635,1.33,-0.5651560541423079,-6.4079630536683,-8.339720901142886
1621784923749.978,0.25,1.576,1.299,-0.920478590614631,-6.371440353926371,-8.239747748459472
1621784923755.704,0.28289760700471794,1.5012327113529136,1.2621148042674375,-1.275,-6.335,-8.14
1621784923755.722,0.283,1.501,1.262,-1.2752625037731142,-6.334708754937858,-8.1391166843839
1621784923761.473,0.321,1.456,1.225,-1.3599685158208328,-6.240728362009003,-7.854084045303622
1621784923767.23,0.342,1.396,1.192,-1.4447644264209876,-6.14664822762051,-7.568748900875363
1621784923772.992,0.349,1.346,1.161,-1.5296322558630917,-6.052488300064307,-7.2831717521687205
1621784923774.307,0.34580897164621244,1.3364269149386374,1.1518827761320356,-1.549,-6.031,-7.218
1621784923778.761,0.335,1.304,1.121,-1.4743077486527494,-5.94437607910846,-6.9745939412965
1621784923784.535,0.304,1.265,1.084,-1.3774829435462774,-5.832084052738973,-6.659062627531
1621784923790.316,0.267,1.213,1.047,-1.2805394103489771,-5.719654332129964,-6.34314440433213
1621784923792.972,0.24450755274261604,1.190507552742616,1.0336881434599157,-1.236,-5.668,-6.198
1621784923796.102,0.218,1.164,1.018,-1.0506462130100378,-5.635241350540999,-6.124293038717247
1621784923801.895,0.175,1.127,1.002,-0.7076094251075479,-5.574614470082127,-5.987882557684787
1621784923807.693,0.122,1.091,0.991,-0.36426903923869114,-5.513933932994394,-5.851351349237388
1621784923811.7,0.0861071623838163,1.0682218530512682,0.9861682718593598,-0.127,-5.472,-5.757
1621784923813.498,0.07,1.058,0.984,-0.03317956350495899,-5.472,-5.755085297214387
1621784923819.305,0.009,1.028,0.986,0.2698101285567587,-5.472,-5.748901834111086
1621784923825.117,-0.056,1.005,0.997,0.5730673330646944,-5.472,-5.742712911570108
1621784923830.482,-0.11223977344241662,0.9976242920075519,1.008063561988672,0.853,-5.472,-5.737
1621784923830.936,-0.117,0.997,1.009,0.8702594963777037,-5.478870050932466,-5.752837275307474
1621784923836.76,-0.168,0.977,1.03,1.0916171770713183,-5.5669803009292265,-5.9559545884578995
1621784923842.59,-0.213,0.974,1.049,1.313206840243128,-5.65518289032024,-6.15928476821192
1621784923848.426,-0.237,0.974,1.068,1.5350192065940047,-5.743474125529736,-6.362819299905393
1621784923849.32,-0.2380712524551799,0.974,1.0709076852354884,1.569,-5.757,-6.394
1621784923854.268,-0.244,0.974,1.087,1.6176948355594594,-5.867217880486733,-6.614697561164648
1621784923860.116,-0.241,0.974,1.11,1.6752458986746583,-5.99748130829049,-6.875533831089983
1621784923865.97,-0.222,0.984,1.131,1.7328570284444673,-6.127880693414628,-7.136642338595086
1621784923868.22,-0.20894345597733238,0.984,1.137144256010667,1.755,-6.178,-7.237
1621784923871.829,-0.188,0.984,1.147,1.7848842578285948,-6.250902361454471,-7.35653703131438
1621784923877.694,-0.143,0.986,1.166,1.8334474402554592,-6.3693717810053565,-7.5507897610218375
1621784923883.565,-0.094,0.988,1.185,1.882059139369592,-6.4879595565512975,-7.745236557478369
1621784923887.181,-0.05340000830668273,1.0021484819537316,1.1893060597250489,1.912,-6.561,-7.865
1621784923889.443,-0.028,1.011,1.192,1.9272240905706877,-6.5772945344389395,-7.8720173542474265
1621784923895.325,0.04,1.005,1.21,1.9668073832567452,-6.619661027391985,-7.890262778219906
1621784923901.214,0.105,1.014,1.223,2.006439966113008,-6.662080276230329,-7.908530921880215
1621784923906.201,0.15322041830606753,1.0317654172706563,1.2339976392627874,2.04,-6.698,-7.924
1621784923907.109,0.162,1.035,1.236,2.036716513972771,-6.677014241478146,-7.9067260082915345
1621784923913.009,0.223,1.051,1.243,2.0153795936124475,-6.540643489609991,-7.7944752533524415
1621784923918.915,0.262,1.068,1.251,1.9940214837752073,-6.40413730934589,-7.682113023339134
1621784923924.827,0.284,1.087,1.258,1.9726421844610504,-6.267495700685843,-7.569639318251612
1621784923925.281,0.2856113196650303,1.0883811311414546,1.2586905655707272,1.971,-6.257,-7.561
1621784923930.745,0.305,1.105,1.267,1.9150546358882796,-6.119705509501339,-7.440546205841092
1621784923936.669,0.307,1.108,1.278,1.8544023721464098,-5.970859903073587,-7.309958168600944
1621784923942.599,0.302,1.124,1.288,1.793685116694299,-5.821854801683458,-7.179230200229563
1621784923944.424,0.29861750791887776,1.1209250071989798,1.2913824920811223,1.775,-5.776,-7.139
1621784923948.534,0.291,1.114,1.299,1.6889582713506504,-5.710933618135815,-7.052958271350651
1621784923954.476,0.269,1.115,1.312,1.5645570812831369,-5.616859086343466,-6.928557081283137
1621784923960.423,0.234,1.114,1.318,1.4400536674676736,-5.52270725102033,-6.804053667467674
1621784923963.626,0.21409256449165404,1.10646745683468,1.3196141163925685,1.373,-5.472,-6.737
1621784923966.376,0.197,1.1,1.321,1.2960643992194034,-5.452444940061333,-6.709023417897965
1621784923972.335,0.162,1.086,1.332,1.1293523836074715,-5.410071014015258,-6.6484008667663534
1621784923978.299,0.126,1.077,1.332,0.9624969333705046,-5.36766063055985,-6.587726157589275
1621784923982.892,0.09215398454430224,1.077,1.3220000408880892,0.834,-5.335,-6.541
1621784923984.27,0.082,1.077,1.319,0.8052662868404098,-5.34334204575601,-6.545206672646193
1621784923990.246,0.052,1.063,1.314,0.6806483154158087,-5.379521456814765,-6.563450991043343
1621784923996.229,0.023,1.051,1.311,0.5558877954496646,-5.415742252933969,-6.58171617882995
1621784924002.217,-0.005,1.033,1.304,0.43102036407736327,-5.451994087848507,-6.599997018658649
1621784924002.218,-0.005005457491259487,1.032996418521361,1.3039969301611667,0.431,-5.452,-6.6
1621784924007.943,-0.037,1.012,1.286,0.4158378285653964,-5.506769476406629,-6.678905177873958
1621784924013.67,-0.049,1.009,1.271,0.400671131109469,-5.561555301910693,-6.757833909532355
1621784924019.396,-0.059,0.984,1.258,0.38550637337696614,-5.616334120658713,-6.836752546711708
1621784924020.72,-0.060387074771932815,0.9789140591695796,1.2552258504561344,0.382,-5.629,-6.855
1621784924025.123,-0.065,0.962,1.246,0.39841968385496385,-5.6873017760067555,-6.908542447353144
1621784924030.85,-0.068,0.946,1.222,0.4197766532960363,-5.7631344935873745,-6.978184739008814
1621784924036.578,-0.068,0.932,1.208,0.44113635404021745,-5.838976909273235,-7.047835937087665
1621784924039.223,-0.06338074528865013,0.9209137886927603,1.2029188198175151,0.451,-5.874,-7.08
1621784924042.304,-0.058,0.908,1.197,0.473813749422709,-5.906638648809131,-7.102980273141123
1621784924048.031,-0.051,0.892,1.189,0.5162198456158871,-5.967307224384773,-7.145695902883157
1621784924053.759,-0.031,0.874,1.178,0.5586331727914495,-6.027986145015505,-7.1884188163884675
1621784924057.725,-0.024074857191576433,0.8670748571915764,1.168304800068207,0.588,-6.07,-7.218
1621784924059.486,-0.021,0.864,1.164,0.6151229813172894,-6.076566616529449,-7.221711565864471
1621784924065.212,0.0,0.846,1.154,0.703313093730209,-6.0979179069031035,-7.23377968651045
1621784924070.939,0.012,0.829,1.147,0.7915220075997467,-6.11927374920836,-7.245850379987334
1621784924076.229,0.023082431165288554,0.8197646406955928,1.147,0.873,-6.139,-7.257
1621784924076.667,0.024,0.819,1.147,0.8776395735472634,-6.136916926162454,-7.258846360901462
1621784924082.394,0.033,0.806,1.136,0.9383057476117591,-6.109679052092679,-7.282989022008761
1621784924088.121,0.035,0.794,1.136,0.9989719216762548,-6.082441178022906,-7.307131683116061
1621784924093.848,0.045,0.784,1.127,1.0596355095793528,-6.055204465086821,-7.331273315036682
1621784924094.732,0.04561733867530475,0.7819936493052596,1.1257653226493904,1.069,-6.051,-7.335
1621784924099.576,0.049,0.771,1.119,1.1278971199387837,-6.045764700449886,-7.3198176313046694
1621784924105.303,0.063,0.763,1.119,1.1975311423934984,-6.039575009565023,-7.3018675277385645
1621784924111.03,0.068,0.745,1.115,1.267165164848213,-6.033385318680159,-7.2839174241724605
1621784924113.237,0.07146773506094962,0.744614696104339,1.1123028727303725,1.294,-6.031,-7.277
1621784924116.758,0.077,0.744,1.108,1.3170093698030043,-6.02710010681305,-7.238586052108544
1621784924122.317,0.087,0.737,1.11,1.3533358391584753,-6.020943078108733,-7.17793931937102
1621784924127.873,0.103,0.731,1.112,1.3896447587241925,-6.0147890239450525,-7.117321885858764
1621784924131.294,0.11285675972741262,0.7334641899318531,1.1175444273466697,1.412,-6.011,-7.08
1621784924133.426,0.119,0.735,1.121,1.4049822938941174,-6.001722354639681,-7.055497500715054
1621784924138.976,0.131,0.73,1.134,1.386714400512115,-5.977571580338051,-6.991714686533825
1621784924144.522,0.138,0.719,1.14,1.3684601680718051,-5.95343886626442,-6.927979569877827
1621784924149.219,0.1405421511627907,0.7130683139534884,1.1518633720930231,1.353,-5.933,-6.874
1621784924150.065,0.141,0.712,1.154,1.348365940199517,-5.928365940199517,-6.8731015598346
1621784924155.606,0.141,0.7,1.166,1.3180125141586037,-5.898012514158603,-6.867216711928709
1621784924161.143,0.145,0.693,1.178,1.2876804863736233,-5.867680486373623,-6.861336012664274
1621784924166.677,0.143,0.684,1.19,1.2573658446715885,-5.837365844671589,-6.8554586841710226
1621784924167.109,0.1428438038055715,0.6829066266390006,1.1914057657498565,1.255,-5.835,-6.855
1621784924172.207,0.141,0.67,1.208,1.2355873651687697,-5.781900734138105,-6.8912559503465625
1621784924177.735,0.15,0.665,1.218,1.2145376433756683,-5.724323553939327,-6.9305694013425025
1621784924183.26,0.171,0.661,1.23,1.1935000068355504,-5.666779430461946,-6.969860281351252
1621784924184.967,0.1759470239674538,0.6631643229857611,1.2349470239674538,1.187,-5.649,-6.982
1621784924188.781,0.187,0.668,1.246,1.1448483516182493,-5.611127706783909,-6.994624097738697
1621784924194.299,0.195,0.653,1.264,1.083863102820123,-5.556333853802852,-7.01288871539905
1621784924199.814,0.211,0.639,1.267,1.0229129309282163,-5.501571516620784,-7.031142827793072
1621784924202.792,0.2169431279620853,0.6265734597156398,1.269701421800948,0.99,-5.472,-7.041
1621784924205.326,0.222,0.616,1.272,0.9817400933040614,-5.455195362239298,-7.041
1621784924210.834,0.222,0.609,1.272,0.963785400658617,-5.418666849615807,-7.041
1621784924216.339,0.209,0.602,1.279,0.9458402579582876,-5.382157766190999,-7.041
1621784924220.585,0.20282750665483584,0.603543123336291,1.2874871783496007,0.932,-5.354,-7.041
1621784924221.842,0.201,0.604,1.29,0.9074687274943217,-5.359633635255665,-7.0710935959226635
1621784924227.341,0.18,0.6,1.295,0.8001581075840674,-5.384277643897845,-7.202736274998616
1621784924232.773,0.162,0.609,1.292,0.6941576643953243,-5.408620768932469,-7.332771702398759
1621784924238.201,0.141,0.609,1.293,0.5882334496703783,-5.432946388011744,-7.462713616974129
1621784924238.213,0.1409845613719224,0.6090088220731872,1.2930132331097808,0.588,-5.433,-7.463
1621784924243.625,0.134,0.613,1.299,0.4062165260442089,-5.551097426957674,-7.611394672616973
1621784924249.045,0.14,0.611,1.286,0.22417064360923222,-5.6693653301722335,-7.760003556237361
1621784924254.46,0.155,0.609,1.279,0.042288766473746575,-5.78752668572624,-7.908478557980614
1621784924255.719,0.1608168651867894,0.6052772062804548,1.276207904710341,0.0,-5.815,-7.943
1621784924259.871,0.18,0.593,1.267,-0.20277842076571476,-5.875619574789282,-7.9337287709145805
1621784924265.278,0.206,0.583,1.239,-0.46684225828545867,-5.954560112383109,-7.92165551222376
1621784924270.681,0.223,0.559,1.21,-0.7307034008470666,-6.033440055352875,-7.909591520946031
1621784924273.185,0.2322777350639953,0.5474028311700059,1.194227850391208,-0.853,-6.07,-7.904
1621784924276.079,0.243,0.534,1.176,-0.9262651362260343,-6.053718858616437,-7.859974464626079
1621784924281.473,0.26,0.499,1.136,-1.062813698284561,-6.023374733714542,-7.777921473819935
1621784924286.863,0.26,0.468,1.112,-1.1992695509586278,-5.993051210898083,-7.695924192734612
1621784924290.605,0.2551367118444314,0.4457678255745433,1.0849045374189747,-1.294,-5.972,-7.639
1621784924292.249,0.253,0.436,1.073,-1.3487795043273014,-5.959038355625492,-7.626038355625492
1621784924297.63,0.244,0.391,1.04,-1.528069714510509,-5.916615628863662,-7.583615628863662
1621784924303.007,0.229,0.351,0.998,-1.7072379032258065,-5.874221774193549,-7.5412217741935486
1621784924307.982,0.21048134684418593,0.30377743445267413,0.9609626936883718,-1.873,-5.835,-7.502
1621784924308.38,0.209,0.3,0.958,-1.893709054031213,-5.835895402557891,-7.503813764155727
1621784924313.749,0.182,0.258,0.915,-2.173116119217984,-5.847976195842019,-7.528285114654347
1621784924319.114,0.148,0.215,0.862,-2.4523072004056568,-5.860047650571863,-7.552737548594287
1621784924324.475,0.112,0.173,0.798,-2.731295002535354,-5.872110316074145,-7.577172178714294
1621784924325.315,0.10729583371319172,0.16892305588476614,0.7862395842829794,-2.775,-5.874,-7.581
1621784924329.831,0.082,0.147,0.723,-2.83900059311981,-5.984237756312489,-7.680788679884766
1621784924335.182,0.051,0.141,0.646,-2.914830466587584,-6.114850844489634,-7.799021380556968
1621784924340.53,0.035,0.15,0.578,-2.990622281534203,-6.245398378805852,-7.91719474100435
1621784924342.603,0.034224034726981954,0.15543175691112635,0.5481253369888051,-3.02,-6.296,-7.963
1621784924345.873,0.033,0.164,0.501,-2.9140009060663976,-6.349852849154102,-7.99656321936717
1621784924351.212,0.047,0.183,0.44,-2.740939222764918,-6.437776852834997,-8.0513609258866
1621784924356.546,0.077,0.195,0.386,-2.5680358179372833,-6.525620443123097,-8.10610851560841
1621784924359.848,0.10301437992306282,0.19871633998900898,0.35441111009342374,-2.461,-6.58,-8.14
1621784924361.877,0.119,0.201,0.335,-2.3627336200533695,-6.546497416680861,-8.048575696928406
1621784924367.203,0.166,0.187,0.295,-2.1048006302163174,-6.4585586782490205,-7.808602026911941
1621784924372.525,0.202,0.161,0.264,-1.8470568188270027,-6.370684437631295,-7.568804363254415
1621784924377.048,0.22921682045631916,0.12953055134738098,0.24273685901850067,-1.628,-6.296,-7.365
1621784924377.843,0.234,0.124,0.239,-1.5912074687615632,-6.265092420231691,-7.305918794295962
1621784924383.156,0.243,0.091,0.22,-1.3452986650727237,-6.058516636780235,-6.9110400478182905
1621784924388.465,0.23,0.058,0.209,-1.0995706600631885,-5.85209273332764,-6.516451626675775
1621784924393.77,0.199,0.024,0.208,-0.854034753650414,-5.645830202373836,-6.122171676201861
1621784924394.203,0.19483553631465023,0.022040252383364805,0.2075100630958412,-0.834,-5.629,-6.09
1621784924399.071,0.148,0.0,0.202,-0.7586022573234593,-5.4810497124837685,-5.914166773682633
1621784924404.367,0.084,-0.045,0.211,-0.6765797982392305,-5.320099981450565,-5.722884208723942
1621784924409.66,0.003,-0.087,0.215,-0.5946027139249175,-5.159239287701725,-5.531707461153204
1621784924411.313,-0.021383102493074794,-0.09512770083102493,0.2187512465373961,-0.569,-5.109,-5.472
1621784924414.948,-0.075,-0.113,0.227,-0.6880728060888723,-5.129875017883201,-5.553582978053736
1621784924420.231,-0.147,-0.138,0.236,-0.8611278434289964,-5.16021382586054,-5.672151992903946
1621784924425.511,-0.22,-0.154,0.232,-1.0340869123580072,-5.190535809322155,-5.7906552547998515
1621784924428.378,-0.24771882810330464,-0.1632396093677682,0.23036948069980562,-1.128,-5.207,-5.855
1621784924430.786,-0.271,-0.171,0.229,-1.230553925365,-5.309695379055158,-6.017247382611939
1621784924436.058,-0.3,-0.187,0.215,-1.455095344634713,-5.534546510627313,-6.372487393511746
1621784924441.325,-0.309,-0.195,0.201,-1.679408011358747,-5.759168574133035,-6.727365502108253
1621784924445.401,-0.29273335498538483,-0.20042221500487173,0.18086034426761935,-1.853,-5.933,-7.002
1621784924446.587,-0.288,-0.202,0.175,-1.8893277632373666,-5.967930541574391,-7.060892893094423
1621784924451.845,-0.243,-0.213,0.134,-2.0503798498662604,-6.122788317179096,-7.321983102763956
1621784924457.099,-0.18,-0.227,0.094,-2.2113122896833386,-6.277531047772441,-7.582879346544336
1621784924462.349,-0.103,-0.239,0.051,-2.3721176047628636,-6.432151543041215,-7.8435695015674884
1621784924462.378,-0.10264446473407897,-0.2390484820817165,0.05081145857110248,-2.373,-6.433,-7.845
1621784924467.697,-0.037,-0.248,0.016,-2.3126328423195455,-6.52077877519862,-7.733197560010178
1621784924473.042,0.021,-0.265,-0.014,-2.2519719811134045,-6.608984619299386,-7.620851169102886
1621784924478.385,0.061,-0.29,-0.042,-2.191333286211089,-6.697158231784896,-7.508545831095027
1621784924479.648,0.06596744249851388,-0.2935481732132242,-0.04696744249851388,-2.177,-6.718,-7.482
1621784924483.724,0.082,-0.305,-0.063,-2.0471960773206828,-6.727221043687602,-7.324532946257877
1621784924489.061,0.094,-0.312,-0.07,-1.8772443673440486,-6.739294115981024,-7.118362019400977
1621784924494.394,0.096,-0.321,-0.063,-1.7074170502017985,-6.751358351625009,-6.912341995326772
1621784924496.888,0.08851511265799597,-0.32333902729437625,-0.06112877816449899,-1.628,-6.757,-6.816
1621784924499.725,0.08,-0.326,-0.059,-1.5826621410736579,-6.734248638066053,-6.783521606514584
1621784924505.053,0.066,-0.316,-0.045,-1.4975224719101123,-6.691524004085801,-6.72253064351379
1621784924510.378,0.045,-0.311,-0.031,-1.4124296192259675,-6.648822863466122,-6.66157321813642
1621784924514.097,0.029626542501949626,-0.30680723886416805,-0.019120510115142896,-1.353,-6.619,-6.619
1621784924515.7,0.023,-0.305,-0.014,-1.3457211381304983,-6.63365104248092,-6.619
1621784924521.019,0.003,-0.288,0.002,-1.321568752576001,-6.682265459558562,-6.619
1621784924526.335,-0.014,-0.279,0.021,-1.2974307784141783,-6.73085086908941,-6.619
1621784924531.275,-0.023297858652697363,-0.2659829978862237,0.03680635970958551,-1.275,-6.776,-6.619
1621784924531.648,-0.024,-0.265,0.038,-1.2766967384650427,-6.77941522998733,-6.623285352277095
1621784924536.959,-0.035,-0.251,0.056,-1.30085305297325,-6.828037555343593,-6.684295531227311
1621784924542.267,-0.031,-0.251,0.07,-1.3249960423102658,-6.876633059521945,-6.745272055578492
1621784924547.572,-0.038,-0.25,0.08,-1.3491245960451574,-6.925199507424227,-6.806212120780718
1621784924548.424,-0.037839266798692026,-0.2493570671947681,0.08144659881177176,-1.353,-6.933,-6.816
1621784924552.873,-0.037,-0.246,0.089,-1.3735322256293232,-6.966267403551308,-6.854205533765956
1621784924558.172,-0.031,-0.239,0.099,-1.397987691649433,-7.005891449761107,-6.899711274335021
1621784924563.468,-0.03,-0.236,0.105,-1.4224285103044998,-7.045491763531341,-6.945189759680525
1621784924565.542,-0.02568901088761764,-0.237175724303377,0.10695954050562834,-1.432,-7.061,-6.963
1621784924568.76,-0.019,-0.239,0.11,-1.496589668128634,-7.049889823849593,-7.00725239653128
1621784924574.05,-0.005,-0.243,0.11,-1.6027674186036545,-7.031626012543395,-7.0799980856322415
1621784924579.337,0.003,-0.243,0.106,-1.7088814663485579,-7.013373158849665,-7.152700130005572
1621784924582.631,0.018585150619109224,-0.24362340602476437,0.09976593975235631,-1.775,-7.002,-7.198
1621784924584.621,0.028,-0.244,0.096,-1.833340610103497,-6.950543581888716,-7.213985327168358
1621784924589.902,0.052,-0.265,0.087,-1.9881640351002763,-6.813989321041556,-7.256406945617476
1621784924595.181,0.07,-0.278,0.075,-2.1429230427874084,-6.677491876261506,-7.2988109137237505
1621784924599.686,0.08793460452631091,-0.2822701439348359,0.06048151062155783,-2.275,-6.561,-7.335
1621784924600.456,0.091,-0.283,0.058,-2.2803367174280877,-6.542818979609395,-7.322607961226304
1621784924605.729,0.093,-0.297,0.049,-2.316881556683587,-6.418318764518626,-7.237749605666925
1621784924610.998,0.094,-0.309,0.037,-2.353399323181049,-6.293910780349307,-7.152954113969429
1621784924616.264,0.087,-0.314,0.024,-2.3898950930626057,-6.169577733803665,-7.068209699159712
1621784924616.712,0.08614896577311937,-0.31519144791763287,0.02255324181430294,-2.393,-6.159,-7.061
1621784924621.528,0.077,-0.328,0.007,-2.342510837659239,-6.133612794077244,-6.87644357042671
1621784924626.79,0.065,-0.333,-0.007,-2.2873482221611696,-6.105875659730757,-6.674803953323597
1621784924632.048,0.049,-0.339,-0.019,-2.232226556964588,-6.078159116213833,-6.473314024610668
1621784924633.596,0.04263149335119105,-0.3377869511145126,-0.022335884435090405,-2.216,-6.07,-6.414
1621784924637.152,0.028,-0.335,-0.03,-2.126816084933101,-6.065975072716696,-6.320367481093659
1621784924642.35,0.007,-0.337,-0.038,-1.9964567044793484,-6.060091870273415,-6.183505613728912
1621784924647.543,-0.019,-0.335,-0.042,-1.8662259016870273,-6.054214470622455,-6.046778737638162
1621784924650.383,-0.035416878351679365,-0.33116939505127485,-0.04747229278389312,-1.795,-6.051,-5.972
1621784924652.733,-0.049,-0.328,-0.052,-1.7523438297251985,-6.051,-5.9982391573729865
1621784924657.919,-0.068,-0.323,-0.072,-1.658203323857424,-6.051,-6.056147955390335
1621784924663.101,-0.079,-0.321,-0.094,-1.5641337269480284,-6.051,-6.114013135068154
1621784924667.13,-0.08833503040588318,-0.31010913119313627,-0.10878046480931505,-1.491,-6.051,-6.159
1621784924668.28,-0.091,-0.307,-0.113,-1.4329049400213323,-6.098219444485031,-6.152873862158647
1621784924673.455,-0.087,-0.297,-0.119,-1.1715079995908886,-6.310681886588449,-6.125309492847855
1621784924678.626,-0.065,-0.281,-0.12,-0.9103206995806608,-6.52297393375316,-6.097767230169051
1621784924683.794,-0.037,-0.267,-0.124,-0.6492813810435266,-6.735145702137608,-6.0702405721716515
1621784924683.839,-0.03665896199659671,-0.2667289185101154,-0.12408744564189828,-0.647,-6.737,-6.07
1621784924688.959,0.002,-0.236,-0.134,-0.5355174711499033,-6.806407855427333,-6.103168355690938
1621784924694.119,0.049,-0.204,-0.138,-0.4231631128814949,-6.876358502723918,-6.136596098646828
1621784924699.277,0.106,-0.162,-0.148,-0.3108459668443559,-6.946285982074864,-6.1700127701950676
1621784924700.51,0.11772415426892827,-0.14955804036766795,-0.14895707381787168,-0.284,-6.963,-6.178
1621784924704.43,0.155,-0.11,-0.152,-0.284,-6.847306129936455,-6.178
1621784924709.58,0.19,-0.063,-0.152,-0.284,-6.6953030040651,-6.178
1621784924714.726,0.208,-0.024,-0.15,-0.284,-6.543422374194685,-6.178
1621784924717.146,0.20847054355566105,-0.0018844528839306908,-0.15235271777830525,-0.284,-6.472,-6.178
1621784924719.869,0.209,0.023,-0.155,-0.29056280800859113,-6.423763361136856,-6.1410842049516745
1621784924725.008,0.209,0.061,-0.152,-0.30294935051561556,-6.332722273710226,-6.071409903349663
1621784924730.143,0.206,0.108,-0.152,-0.31532588963914265,-6.241754711152302,-6.001791870779822
1621784924733.742,0.19758458610846813,0.1339475261655566,-0.15340256898192198,-0.324,-6.178,-5.953
1621784924735.275,0.194,0.145,-0.154,-0.3293970479267317,-6.1698113755594415,-5.9401587480363975
1621784924740.355,0.175,0.197,-0.154,-0.34728234387504076,-6.142675064465456,-5.897604078366283
1621784924745.461,0.138,0.229,-0.147,-0.365258751000326,-6.1154005157236435,-5.854832626930259
1621784924750.216,0.11377255764998565,0.2597502152904028,-0.14047722705961152,-0.382,-6.09,-5.815
1621784924750.564,0.112,0.262,-0.14,-0.39569704521181914,-6.087928533285867,-5.822672881808473
1621784924755.663,0.063,0.276,-0.131,-0.5964524741901033,-6.057567372730509,-5.935133098967604
1621784924760.757,0.012,0.286,-0.126,-0.7970060519757922,-6.027236739053044,-6.047480242079032
1621784924765.848,-0.045,0.274,-0.122,-0.9974346742613031,-5.9969250029666545,-6.159757386970452
1621784924766.675,-0.053778465524686916,0.2720492298834029,-0.12232512835276618,-1.03,-5.992,-6.178
1621784924770.936,-0.099,0.262,-0.124,-1.2233397519776363,-6.002121141378695,-6.4375164456075655
1621784924776.019,-0.145,0.243,-0.126,-1.453978246000119,-6.0141948343543685,-6.747098316778683
1621784924781.098,-0.178,0.211,-0.129,-1.6844284184856955,-6.02625866888717,-7.0564274073633495
1621784924783.094,-0.1846848787995383,0.20195575221238937,-0.12782031550596384,-1.775,-6.031,-7.178
1621784924786.174,-0.195,0.188,-0.126,-1.8191888125437825,-6.091924150060364,-7.344037112664511
1621784924791.246,-0.201,0.159,-0.138,-1.891955345565111,-6.192249072183388,-7.6174534899318855
1621784924796.313,-0.19,0.129,-0.134,-1.964648323968223,-6.292472582832785,-7.890593489633792
1621784924799.474,-0.1806363899334683,0.11152126120914088,-0.14211512872432744,-2.01,-6.355,-8.061
1621784924801.377,-0.175,0.101,-0.147,-1.9541123394084252,-6.381197340902301,-8.091854645951598
1621784924806.438,-0.147,0.072,-0.145,-1.8054657902599343,-6.450875410815656,-8.173919928293994
1621784924811.494,-0.105,0.045,-0.152,-1.6569698237227368,-6.520482895129967,-8.255902076486406
1621784924815.817,-0.07078026862498793,0.03473408058749638,-0.1562774664218765,-1.53,-6.58,-8.326
1621784924816.547,-0.065,0.033,-0.157,-1.490447291569946,-6.581746948616956,-8.299616596528537
1621784924821.596,-0.024,0.014,-0.164,-1.2169768768813742,-6.59382548335405,-8.117199751396523
1621784924826.641,0.01,0.016,-0.159,-0.9437048208108068,-6.605895257064981,-7.934915220223743
1621784924831.682,0.047,0.019,-0.154,-0.6706707950818445,-6.617954517544517,-7.752789465802046
1621784924832.119,0.04986302830554479,0.01995434276851493,-0.15347944939899186,-0.647,-6.619,-7.737
1621784924836.719,0.08,0.03,-0.148,-0.43954804739577874,-6.602629641835313,-7.515717917222164
1621784924841.775,0.101,0.031,-0.133,-0.21154027293017963,-6.584637191605375,-7.272509624458858
1621784924846.813,0.11,0.042,-0.119,0.015663765597615176,-6.566708165435834,-7.030158650029211
1621784924848.417,0.10776953295504146,0.048691401134875606,-0.11167132256656481,0.088,-6.561,-6.953
1621784924851.847,0.103,0.063,-0.096,0.19776440891880523,-6.52997044594026,-6.870254522507363
1621784924856.877,0.089,0.086,-0.07,0.3587350201334215,-6.48446529238536,-6.74890744636096
1621784924861.904,0.07,0.112,-0.044,0.5196118757136847,-6.438986642827093,-6.627631047538914
1621784924864.666,0.05845051045211473,0.12354948954788528,-0.02915065629557608,0.608,-6.414,-6.561
1621784924866.926,0.049,0.133,-0.017,0.6449510303066819,-6.39754633367476,-6.556816864493583
1621784924871.945,0.037,0.157,0.007,0.7270120955594385,-6.361005934807495,-6.547526932578177
1621784924876.96,0.023,0.183,0.03,0.8090053021630415,-6.324495752244381,-6.538244682773995
1621784924880.874,0.00894026796589525,0.19393534713763702,0.048746309378806335,0.873,-6.296,-6.531
1621784924881.971,0.005,0.197,0.054,0.863026109936575,-6.286704605859257,-6.533035487768045
1621784924886.979,0.002,0.236,0.079,0.8174898520084567,-6.244266052552099,-6.542328601630927
1621784924891.982,-0.002,0.267,0.101,0.7720002114164904,-6.201870945333736,-6.551612201751737
1621784924896.983,-0.005,0.302,0.119,0.7265283298097251,-6.159492389006342,-6.560892177589852
1621784924897.041,-0.004965109460516029,0.3023489053948397,0.11922097341673181,0.726,-6.159,-6.561
1621784924901.979,-0.002,0.332,0.138,0.6298548504299382,-6.107865477776432,-6.5729415950102945
1621784924906.97,0.0,0.377,0.15,0.5326781821484801,-6.0561823452827905,-6.585011308586654
1621784924911.959,-0.007,0.415,0.161,0.43553954220661256,-6.0045194380525615,-6.597076298897904
1621784924913.168,-0.005787166299289738,0.4215493019838354,0.1646385011021308,0.412,-5.992,-6.6
1621784924916.943,-0.002,0.442,0.176,0.33150754264554116,-5.969002155041583,-6.6091522036059
1621784924921.924,-0.003,0.473,0.185,0.2253051812056092,-5.9386586232016025,-6.621227690766709
1621784924926.901,-0.009,0.497,0.194,0.11919131305773084,-5.9083403751593515,-6.633293116008013
1621784924929.255,-0.016100147275405007,0.5078868924889544,0.19873343151693668,0.069,-5.894,-6.639
1621784924931.874,-0.024,0.52,0.204,0.021078134463961236,-5.887664566929134,-6.66125523924894
1621784924936.843,-0.049,0.536,0.201,-0.06983850696547547,-5.875645078740158,-6.70347754391278
1621784924941.868,-0.073,0.546,0.204,-0.16177808903694732,-5.863490354330709,-6.746174909145972
1621784924945.378,-0.08708474161156013,0.5551550820475142,0.204,-0.226,-5.855,-6.776
1621784924946.852,-0.093,0.559,0.204,-0.23672648041299726,-5.872969146674765,-6.812855086547221
1621784924951.832,-0.094,0.569,0.204,-0.2729634375948983,-5.933673792894018,-6.93736155481324
1621784924956.808,-0.096,0.578,0.208,-0.3091719708472518,-5.99433082295779,-7.061770361372608
1621784924961.457,-0.09880455594285434,0.5761302960380971,0.2061302960380971,-0.343,-6.051,-7.178
1621784924961.781,-0.099,0.576,0.206,-0.34637263346928837,-6.053564817069459,-7.184947221038534
1621784924966.75,-0.098,0.579,0.201,-0.3981007487672734,-6.092902964631399,-7.291500943568515
1621784924971.715,-0.086,0.572,0.201,-0.4497881993060206,-6.132210187496195,-7.397970901564498
1621784924976.678,-0.061,0.555,0.201,-0.5014527759176964,-6.171500015218847,-7.504393742010105
1621784924977.499,-0.05752240496356116,0.5538408016545204,0.1998408016545204,-0.51,-6.178,-7.522
1621784924981.636,-0.04,0.548,0.194,-0.5454070769465416,-6.203327690078548,-7.562575993289102
1621784924986.591,-0.016,0.538,0.187,-0.587816167162358,-6.233664119575993,-7.611176191565622
1621784924991.541,0.005,0.524,0.18,-0.6301813772592084,-6.2639691603752,-7.659726103866392
1621784924993.506,0.014930661797364655,0.5168499235058974,0.17801386764052707,-0.647,-6.276,-7.679
1621784924996.488,0.03,0.506,0.175,-0.647,-6.276,-7.675265117345769
1621784925001.432,0.044,0.487,0.169,-0.647,-6.276,-7.669072930204113
1621784925006.371,0.054,0.466,0.166,-0.647,-6.276,-7.6628865530158246
1621784925009.474,0.05840075184250878,0.45091170796854135,0.16348528466142356,-0.647,-6.276,-7.659
1621784925011.307,0.061,0.442,0.162,-0.6380254272358035,-6.271512713617901,-7.654512713617901
1621784925016.24,0.065,0.407,0.159,-0.6138692773392597,-6.25943463866963,-7.64243463866963
1621784925021.169,0.063,0.379,0.152,-0.5897334508391447,-6.247366725419573,-7.630366725419573
1621784925025.403,0.059561146086353045,0.3566474495612948,0.14856114608635304,-0.569,-6.237,-7.62
1621784925026.094,0.059,0.353,0.148,-0.5647612068043222,-6.237865059835853,-7.619134940164147
1621784925031.015,0.059,0.319,0.145,-0.5345714132876859,-6.2440262421861865,-7.612973757813814
1621784925035.933,0.068,0.295,0.141,-0.5043980956456617,-6.25018406211313,-7.60681593788687
1621784925040.93,0.063,0.271,0.138,-0.4737424842195357,-6.256440309342952,-7.600559690657048
1621784925041.377,0.06408562676021543,0.26828593309946147,0.138,-0.471,-6.257,-7.6
1621784925045.871,0.075,0.241,0.138,-0.4405712252238463,-6.278976337338333,-7.56140053570062
1621784925050.809,0.08,0.218,0.134,-0.4071372618045458,-6.303123088696717,-7.518988933955766
1621784925055.742,0.087,0.209,0.133,-0.37373801178541366,-6.32724476926609,-7.476621366801868
1621784925057.328,0.0892513120110902,0.20353252797306665,0.13235676799683138,-0.363,-6.335,-7.463
1621784925060.673,0.094,0.192,0.131,-0.3505971463639153,-6.330795642835225,-7.419695121202823
1621784925065.6,0.106,0.18,0.129,-0.3323295949677815,-6.3246032525314515,-7.355913501073949
1621784925070.523,0.119,0.166,0.122,-0.3140774317275238,-6.318416078551703,-7.292185609082541
1621784925073.241,0.12839120726442713,0.1599233364759589,0.122,-0.304,-6.315,-7.257
1621784925075.443,0.136,0.155,0.122,-0.3067738483301556,-6.317773848330156,-7.18765379174611
1621784925080.36,0.147,0.14,0.117,-0.3129673411648933,-6.323967341164893,-7.032816470877667
1621784925085.273,0.157,0.134,0.113,-0.319155606125838,-6.330155606125838,-6.878109846854049
1621784925089.119,0.16091631861575179,0.12225104415274463,0.11065020883054892,-0.324,-6.335,-6.757
1621784925090.183,0.162,0.119,0.11,-0.324,-6.33762003544733,-6.720722586113894
1621784925095.089,0.155,0.115,0.105,-0.324,-6.349698404870154,-6.553483624874778
1621784925099.991,0.148,0.115,0.103,-0.324,-6.3617665562148416,-6.3863861447175765
1621784925104.891,0.127,0.112,0.101,-0.324,-6.373830500115589,-6.219346921476458
1621784925104.96,0.12663446006580917,0.112,0.10097188154352378,-0.324,-6.374,-6.217
1621784925109.788,0.101,0.112,0.099,-0.317891583011583,-6.362088586872587,-6.178211552123551
1621784925114.68,0.075,0.106,0.094,-0.3117025482625483,-6.350019969111969,-6.138911181467181
1621784925119.569,0.051,0.108,0.093,-0.3055169111969112,-6.337957976833977,-6.099632386100386
1621784925120.768,0.0460921900764503,0.10628226652675761,0.09324539049617749,-0.304,-6.335,-6.09
1621784925124.455,0.031,0.101,0.094,-0.2857636932222807,-6.34411815338886,-6.133486577700715
1621784925129.337,0.007,0.093,0.098,-0.261617673468124,-6.356191163265938,-6.191065547883704
1621784925134.216,-0.009,0.094,0.091,-0.2374849366814255,-6.368257531659287,-6.248612843298139
1621784925136.538,-0.015639772613942355,0.09921696419666899,0.08910292211030219,-0.226,-6.374,-6.276
1621784925139.112,-0.023,0.105,0.087,-0.213182847821738,-6.386817152178262,-6.325321699521413
1621784925144.023,-0.035,0.099,0.077,-0.18872899065909546,-6.411271009340904,-6.419422618223227
1621784925148.932,-0.038,0.101,0.075,-0.16428485911699983,-6.4357151408830005,-6.513486111752305
1621784925152.403,-0.038,0.09887695983276094,0.075,-0.147,-6.453,-6.58
1621784925153.837,-0.038,0.098,0.075,-0.1363124315654735,-6.456532331940225,-6.599563684592015
1621784925158.74,-0.042,0.099,0.073,-0.09976578813441697,-6.468611307311506,-6.666462625109881
1621784925163.639,-0.045,0.106,0.063,-0.06325008096479187,-6.480680057986213,-6.733304936539025
1621784925168.234,-0.037490374064837906,0.10318389027431421,0.06487740648379052,-0.029,-6.492,-6.796
1621784925168.534,-0.037,0.103,0.065,-0.02937987790742601,-6.490879360173094,-6.799532864539062
1621784925173.427,-0.04,0.11,0.056,-0.035574762383123404,-6.4726044509697855,-6.857145290163048
1621784925178.317,-0.033,0.105,0.058,-0.041765628622208485,-6.454341395564485,-6.914720346186539
1621784925183.204,-0.037,0.094,0.049,-0.04795309481492929,-6.436088370295958,-6.972263781778842
1621784925184.031,-0.03581455,0.09383065,0.04815325,-0.049,-6.433,-6.982
1621784925188.087,-0.03,0.093,0.044,-0.054145095853076905,-6.4229670630865,-7.012356065533154
1621784925192.967,-0.026,0.087,0.042,-0.060335749016692995,-6.410895289417448,-7.0488809191984885
1621784925197.844,-0.024,0.079,0.035,-0.06652237604137633,-6.398831366719317,-7.08538201864412
1621784925199.797,-0.021194950911640954,0.07459206571829292,0.032996393508314965,-0.069,-6.394,-7.1
1621784925202.718,-0.017,0.068,0.03,-0.069,-6.397713567371263,-7.1
1621784925207.588,-0.021,0.066,0.017,-0.069,-6.403905019089301,-7.1
1621784925212.456,-0.009,0.049,0.017,-0.069,-6.410094298041407,-7.1
1621784925215.528,-0.009631581589118105,0.04457892887617327,0.013842092054409477,-0.069,-6.414,-7.1
1621784925217.32,-0.01,0.042,0.012,-0.069,-6.41616852482468,-7.088814977220071
1621784925222.181,-0.005,0.031,0.002,-0.069,-6.422050722271462,-7.058475221968248
1621784925227.039,-0.002,0.016,0.0,-0.069,-6.4279296698854,-7.028152229012144
1621784925231.229,-0.006315964188713409,0.01082084297354391,0.0,-0.069,-6.433,-7.002
1621784925231.893,-0.007,0.01,0.0,-0.06610419527549337,-6.4338393636882625,-7.0003632408078875
1621784925236.832,-0.005,0.0,-0.01,-0.04456664763697521,-6.440082131119717,-6.988189844316551
1621784925241.711,-0.005,-0.007,-0.012,-0.023290999984570522,-6.446248985511719,-6.976164478252149
1621784925246.59,-0.003,-0.017,-0.016,-0.0020142876980759478,-6.452416148493311,-6.964138510438043
1621784925247.052,-0.002905229412943298,-0.01737908234822681,-0.016094770587056703,0.0,-6.453,-6.963
1621784925251.464,-0.002,-0.021,-0.017,0.002803294708920843,-6.474865698729583,-6.9380506770906045
1621784925256.335,-0.002,-0.035,-0.023,0.005898056369925698,-6.49900483968542,-6.910507298307661
1621784925261.203,0.0,-0.04,-0.026,0.008990956613461151,-6.523129461584997,-6.8829804861401955
1621784925262.791,0.002937826174227218,-0.04130570052187876,-0.025347149739060618,0.01,-6.531,-6.874
1621784925266.068,0.009,-0.044,-0.024,0.018137427718709197,-6.531,-6.857725144562582
1621784925270.93,0.007,-0.045,-0.03,0.030209895541876516,-6.531,-6.8335802089162465
1621784925275.79,0.017,-0.051,-0.028,0.04227811975377729,-6.531,-6.809443760492446
1621784925278.497,0.020902262443438915,-0.051,-0.028,0.049,-6.531,-6.796
1621784925280.646,0.024,-0.051,-0.028,0.049,-6.5229120684016255,-6.785307480259777
1621784925285.499,0.024,-0.052,-0.028,0.049,-6.504646685044153,-6.76116002429566
1621784925290.35,0.024,-0.061,-0.028,0.049,-6.4863886526810886,-6.737022286595337
1621784925294.173,0.024,-0.051535032488792626,-0.030366241877801844,0.049,-6.472,-6.718
1621784925295.197,0.024,-0.049,-0.031,0.05155264759586123,-6.470756402453299,-6.715381899901681
1621784925300.042,0.026,-0.052,-0.031,0.06363116250760803,-6.464871997752704,-6.702993679479376
1621784925304.883,0.024,-0.058,-0.035,0.07569993913572733,-6.458992337344133,-6.69061544704028
1621784925309.722,0.019,-0.056,-0.028,0.08776323797930614,-6.453115345599826,-6.678242832841737
1621784925309.817,0.018803624615073955,-0.05578398707658135,-0.028058912615477813,0.088,-6.453,-6.678
1621784925314.558,0.009,-0.045,-0.031,0.07008347015683883,-6.453,-6.672230270050507
1621784925319.39,0.007,-0.047,-0.026,0.05182466263232787,-6.453,-6.666350315084987
1621784925324.22,0.003,-0.052,-0.031,0.03357231317727635,-6.453,-6.66047243983675
1621784925325.43,0.001746395507664289,-0.05124783730459857,-0.03150144179693429,0.029,-6.453,-6.659
1621784925329.046,-0.002,-0.049,-0.033,0.015538830387363672,-6.443948523881159,-6.68174473486273
1621784925333.87,-0.003,-0.044,-0.037,-0.0024203021185909453,-6.431872555471982,-6.712089475993481
1621784925338.69,-0.002,-0.044,-0.037,-0.020363075090886296,-6.4198075874388865,-6.7424065751535665
1621784925341.01,-0.0010369394476817837,-0.0497783633139093,-0.03940765138079554,-0.029,-6.414,-6.757
1621784925343.508,0.0,-0.056,-0.042,-0.03542542034946701,-6.414,-6.766477495015463
1621784925348.323,-0.003,-0.065,-0.038,-0.04781030503791388,-6.414,-6.7847451999309225
1621784925353.134,0.0,-0.061,-0.044,-0.06018514215740145,-6.414,-6.802998084682167
1621784925356.561,0.0,-0.06741349375571125,-0.04471261041730125,-0.069,-6.414,-6.816
1621784925357.943,0.0,-0.07,-0.045,-0.07247300613496933,-6.412218971212836,-6.822946012269939
1621784925362.749,0.002,-0.073,-0.049,-0.08454969325153375,-6.406025798332546,-6.847099386503068
1621784925367.552,0.01,-0.08,-0.058,-0.09661901840490797,-6.399836400817996,-6.871238036809816
1621784925372.081,0.011887086109556992,-0.08,-0.058943543054778495,-0.108,-6.394,-6.894
1621784925372.352,0.012,-0.08,-0.059,-0.1083324663040908,-6.394,-6.894682430834713
1621784925377.149,0.017,-0.087,-0.061,-0.11421741940569087,-6.394,-6.9067620714116815
1621784925381.943,0.012,-0.089,-0.068,-0.12009907779616931,-6.394,-6.918834949160558
1621784925386.734,0.021,-0.087,-0.068,-0.12597654291794752,-6.394,-6.930899219673681
1621784925387.568,0.021,-0.08804538037935956,-0.06921961044258618,-0.127,-6.394,-6.933
1621784925391.522,0.021,-0.093,-0.075,-0.13211601459462022,-6.384023771540491,-6.938116014594621
1621784925396.307,0.028,-0.099,-0.075,-0.1383073557517651,-6.371950656284058,-6.944307355751765
1621784925401.089,0.021,-0.112,-0.08,-0.1444952219993366,-6.359884317101294,-6.950495221999337
1621784925403.025,0.022215234494737918,-0.10956953101052416,-0.07959492183508736,-0.147,-6.355,-6.953
1621784925405.868,0.024,-0.106,-0.079,-0.147,-6.347627997151223,-6.953
1621784925410.644,0.021,-0.115,-0.082,-0.147,-6.335243412202264,-6.953
1621784925415.417,0.016,-0.113,-0.084,-0.147,-6.322867057054681,-6.953
1621784925418.451,0.012183744497901525,-0.11681625550209847,-0.08845229808578156,-0.147,-6.315,-6.953
1621784925420.187,0.01,-0.119,-0.091,-0.14474475912593954,-6.312857521169643,-6.9486022802955825
1621784925424.954,0.005,-0.122,-0.089,-0.13855212330722147,-6.30697451714186,-6.936526640449082
1621784925429.718,0.005,-0.136,-0.091,-0.132363610415147,-6.3010954298943895,-6.924459040309537
1621784925433.847,0.003265880543450397,-0.1342658805434504,-0.0936011791848244,-0.127,-6.296,-6.914
1621784925434.48,0.003,-0.134,-0.094,-0.127,-6.296782923069589,-6.912351740906129
1621784925439.238,-0.005,-0.134,-0.098,-0.127,-6.302667376483862,-6.899963417928711
1621784925443.993,-0.007,-0.14,-0.094,-0.127,-6.308547904714987,-6.887583358494764
1621784925448.746,-0.01,-0.14,-0.103,-0.127,-6.314426319385955,-6.875207748661147
1621784925449.21,-0.010390705325930496,-0.14029302899444787,-0.1026092946740695,-0.127,-6.315,-6.874
1621784925453.495,-0.014,-0.143,-0.099,-0.127,-6.326178193860655,-6.868690357916189
1621784925458.241,-0.019,-0.147,-0.101,-0.127,-6.338558145459178,-6.862809880906891
1621784925462.984,-0.012,-0.152,-0.106,-0.127,-6.350930454719144,-6.8569330340084065
1621784925464.544,-0.012658084449021627,-0.15035478887744594,-0.10567095777548918,-0.127,-6.355,-6.855
1621784925467.725,-0.014,-0.147,-0.105,-0.11494307684944402,-6.34273519886409,-6.863107241428822
1621784925472.462,-0.017,-0.161,-0.108,-0.09699001292257622,-6.324472599352276,-6.875179129241716
1621784925477.196,-0.019,-0.154,-0.11,-0.07904712751870582,-6.3062203538552355,-6.887244172875353
1621784925479.847,-0.02572252605510267,-0.15680105252295945,-0.11112042100918378,-0.069,-6.296,-6.894
1621784925481.928,-0.031,-0.159,-0.112,-0.06096029030917288,-6.296,-6.885960290309173
1621784925486.656,-0.038,-0.162,-0.11,-0.042694567893340155,-6.296,-6.8676945678933405
1621784925491.382,-0.047,-0.171,-0.119,-0.02443639095821211,-6.296,-6.849436390958212
1621784925495.119,-0.054122382503489996,-0.17258275166744222,-0.12137412750116333,-0.01,-6.296,-6.835
1621784925496.104,-0.056,-0.173,-0.122,-0.007479256103030692,-6.306147610046774,-6.8324792561030305
1621784925500.824,-0.056,-0.176,-0.122,0.004598449413724609,-6.354768116870635,-6.820401550586276
1621784925505.541,-0.059,-0.176,-0.122,0.016668658294355092,-6.403358444928558,-6.808331341705645
1621784925510.255,-0.059,-0.182,-0.124,0.028730745819183695,-6.4519160793233805,-6.7962692541808165
1621784925510.36,-0.05904467941740527,-0.18195532058259473,-0.12404467941740528,0.029,-6.453,-6.796
1621784925514.965,-0.061,-0.18,-0.126,0.020219935794542537,-6.453,-6.813862889245586
1621784925519.673,-0.056,-0.18,-0.131,0.011243434991974319,-6.453,-6.832125425361156
1621784925524.377,-0.052,-0.169,-0.133,0.0022748475120385227,-6.453,-6.8503718619582665
1621784925525.57,-0.052507476635514014,-0.17077616822429906,-0.13426869158878504,0.0,-6.453,-6.855
1621784925529.079,-0.054,-0.176,-0.138,-0.02034362182941148,-6.453,-6.855
1621784925533.778,-0.044,-0.182,-0.138,-0.04758592958358129,-6.453,-6.855
1621784925538.474,-0.044,-0.192,-0.141,-0.0748112524729384,-6.453,-6.855
1621784925540.749,-0.042060568217296285,-0.1934545738370278,-0.14051514205432408,-0.088,-6.453,-6.855
1621784925543.166,-0.04,-0.195,-0.14,-0.08177679636375358,-6.449808613519874,-6.851808613519874
1621784925547.856,-0.044,-0.202,-0.143,-0.06970126688372393,-6.443616034299346,-6.845616034299346
1621784925552.543,-0.045,-0.201,-0.14,-0.05763328068082911,-6.437427323426066,-6.839427323426066
1621784925555.896,-0.042852944241792604,-0.201,-0.14071568525273578,-0.049,-6.433,-6.835
1621784925557.228,-0.042,-0.201,-0.141,-0.0446826381150784,-6.429563732377307,-6.84019845614715
1621784925561.909,-0.049,-0.201,-0.138,-0.029510941007380137,-6.417488299985465,-6.858466417970706
1621784925566.586,-0.045,-0.192,-0.134,-0.01435190478497489,-6.405422944624776,-6.8767191350548265
1621784925571.014,-0.04405284871272651,-0.19389430257454698,-0.13778860514909397,0.0,-6.394,-6.894
1621784925571.261,-0.044,-0.194,-0.138,0.0004749097852646569,-6.394,-6.89512995776494
1621784925575.933,-0.045,-0.19,-0.136,0.009455491366894834,-6.394,-6.916497548424681
1621784925580.602,-0.042,-0.192,-0.133,0.018429972328753822,-6.394,-6.93785062381669
1621784925585.268,-0.037,-0.176,-0.131,0.027398821949285564,-6.394,-6.959190300500024
1621784925586.101,-0.03664270380648201,-0.176,-0.13064270380648202,0.029,-6.394,-6.963
1621784925589.931,-0.035,-0.176,-0.129,0.04909686207735345,-6.39908781318414,-6.972921235709073
1621784925594.591,-0.028,-0.188,-0.124,0.07355079867023433,-6.405278683207654,-6.984993432254925
1621784925599.248,-0.026,-0.18,-0.126,0.09798808075893943,-6.4114653369009975,-6.9970574069569444
1621784925601.156,-0.02231116588870824,-0.17631116588870824,-0.12313090680232863,0.108,-6.414,-7.002
1621784925603.903,-0.017,-0.171,-0.119,0.1222629440634446,-6.417474306887249,-7.002
1621784925608.554,-0.023,-0.159,-0.12,0.14641056976630806,-6.423356420840511,-7.002
1621784925613.203,-0.017,-0.154,-0.117,0.17054805473396822,-6.429236064614685,-7.002
1621784925616.179,-0.016359297803006413,-0.14567087143908336,-0.11251508462104488,0.186,-6.433,-7.002
1621784925617.848,-0.016,-0.141,-0.11,0.18822660130612512,-6.430884728759181,-7.004226601306125
1621784925622.49,-0.01,-0.14,-0.103,0.19441978404963925,-6.425001205152842,-7.010419784049639
1621784925627.129,-0.002,-0.131,-0.096,0.20060873247235475,-6.419121704151262,-7.0166087324723545
1621784925631.17,-0.0002571338317363379,-0.12315710224281352,-0.09338570074760451,0.206,-6.414,-7.022
1621784925631.766,0.0,-0.122,-0.093,0.2067970494157582,-6.413202950584242,-7.025108492721457
1621784925636.399,0.005,-0.119,-0.086,0.21299066518702264,-6.407009334812977,-7.049263594229388
1621784925641.029,0.017,-0.106,-0.079,0.2191806906456035,-6.400819309354397,-7.073404693517854
1621784925645.656,0.021,-0.091,-0.073,0.22536647300737647,-6.3946335269926236,-7.097529244728768
1621784925646.13,0.022639358108108108,-0.09151229940878378,-0.07248770059121622,0.226,-6.394,-7.1
1621784925650.281,0.037,-0.096,-0.068,0.21487856885894627,-6.404843395362527,-7.0891566046374725
1621784925654.902,0.037,-0.084,-0.058,0.20249802138862544,-6.4169144291460904,-7.077085570853909
1621784925659.521,0.047,-0.077,-0.056,0.19012336069594793,-6.428979723321451,-7.065020276678549
1621784925661.06,0.05000142834470719,-0.07333158757869121,-0.051998095540390414,0.186,-6.433,-7.061
1621784925664.136,0.056,-0.066,-0.044,0.186,-6.429077393242224,-7.044690214007145
1621784925668.749,0.063,-0.063,-0.04,0.186,-6.423194572805033,-7.020230065873562
1621784925673.359,0.072,-0.051,-0.031,0.186,-6.417315799823026,-6.995786746632583
1621784925675.959,0.07482179004822213,-0.041970271845689154,-0.02817820995177786,0.186,-6.414,-6.982
1621784925677.966,0.077,-0.035,-0.026,0.186,-6.408599885048033,-6.972819804581657
1621784925682.569,0.082,-0.026,-0.014,0.186,-6.396215288611544,-6.951765990639625
1621784925687.17,0.082,-0.026,-0.014,0.186,-6.383836603990475,-6.930722226783808
1621784925690.826,0.08597636749867232,-0.007708709506107275,-0.010023632501327668,0.186,-6.374,-6.914
1621784925691.767,0.087,-0.003,-0.009,0.186,-6.374,-6.9065144399282525
1621784925696.362,0.086,0.0,0.002,0.186,-6.374,-6.869968207474206
1621784925700.954,0.08,0.01,0.009,0.186,-6.374,-6.8334452763744675
1621784925705.542,0.082,0.014,0.01,0.186,-6.374,-6.796955355526666
1621784925705.662,0.08181665247018739,0.014,0.01034050255536627,0.186,-6.374,-6.796
1621784925710.128,0.075,0.014,0.023,0.1682041718196059,-6.380032484128947,-6.778204171819606
1621784925714.711,0.065,0.033,0.028,0.14994136367383956,-6.386223266551241,-6.75994136367384
1621784925719.29,0.056,0.047,0.035,0.13169412152691895,-6.392408772363757,-6.741694121526919
1621784925720.468,0.05548536078075836,0.04802927843848328,0.03808783531544985,0.127,-6.394,-6.737
1621784925723.868,0.054,0.051,0.047,0.10444590976698066,-6.398602875557759,-6.7459756073376305
1621784925728.442,0.049,0.054,0.052,0.07410332176499752,-6.404795240456123,-6.758050718889439
1621784925733.013,0.04,0.07,0.056,0.04378016856717898,-6.410983639067922,-6.770118096182449
1621784925735.241,0.04195093795093795,0.07097546897546897,0.058438672438672436,0.029,-6.414,-6.776
1621784925737.581,0.044,0.072,0.061,0.016617714768379737,-6.40765011013763,-6.7823498898623695
1621784925742.146,0.04,0.086,0.066,-0.007537107272396027,-6.395263021911592,-6.794736978088408
1621784925746.708,0.04,0.089,0.066,-0.031676427234634555,-6.382883883469418,-6.807116116530581
1621784925749.982,0.041436529191215855,0.09259132297803964,0.07102785216925549,-0.049,-6.374,-6.816
1621784925751.266,0.042,0.094,0.073,-0.05240419176581869,-6.370595808234181,-6.8210626441645505
1621784925755.822,0.04,0.093,0.075,-0.06448130631751879,-6.358518693682481,-6.839023481190156
1621784925760.375,0.042,0.099,0.077,-0.07655065465226266,-6.346449345347737,-6.856972768457211
1621784925764.694,0.03156059224290542,0.11228651896357492,0.07984711120648035,-0.088,-6.335,-6.874
1621784925764.926,0.031,0.113,0.08,-0.09018016729582758,-6.334684033725242,-6.874315966274757
1621784925769.472,0.037,0.113,0.082,-0.1329114462940482,-6.328491094739993,-6.880508905260006
1621784925774.018,0.031,0.115,0.082,-0.17564502020521178,-6.3222978231586655,-6.886702176841335
1621784925778.559,0.028,0.112,0.086,-0.21833040094457287,-6.31611153609499,-6.8928884639050105
1621784925779.375,0.02764039382364018,0.11217980308817992,0.08564039382364018,-0.226,-6.315,-6.894
1621784925783.097,0.026,0.113,0.084,-0.2359082591740826,-6.325162317101624,-6.908989417724895
1621784925787.632,0.031,0.112,0.086,-0.24798145185481452,-6.3375450788254515,-6.92725399126754
1621784925792.164,0.031,0.113,0.087,-0.260046195380462,-6.349919174749192,-6.945505782755058
1621784925794.025,0.033465204032127646,0.113,0.08658913266131205,-0.265,-6.355,-6.953
1621784925796.693,0.037,0.113,0.086,-0.2721180861723447,-6.355,-6.953
1621784925801.219,0.035,0.112,0.086,-0.28419193386773545,-6.355,-6.953
1621784925805.743,0.037,0.112,0.084,-0.29626057114228455,-6.355,-6.953
1621784925808.644,0.037,0.112,0.08143264556551799,-0.304,-6.355,-6.953
1621784925810.263,0.037,0.112,0.08,-0.3062193587254836,-6.355,-6.956218070151952
1621784925814.781,0.042,0.11,0.084,-0.3124132137358592,-6.355,-6.965199159916996
1621784925819.295,0.042,0.112,0.082,-0.31860137894102686,-6.355,-6.974171999464489
1621784925823.233,0.042,0.11025404557016832,0.07763511392542079,-0.324,-6.355,-6.982
1621784925823.806,0.042,0.11,0.077,-0.3255350159315781,-6.355747828274359,-6.982
1621784925828.315,0.04,0.103,0.08,-0.33761435519034044,-6.36163263457991,-6.982
1621784925832.821,0.042,0.103,0.077,-0.3496858460506456,-6.367513617306725,-6.982
1621784925837.323,0.044,0.096,0.075,-0.36174621834646986,-6.3733891832969976,-6.982
1621784925837.791,0.044312011718749995,0.096,0.07468798828124999,-0.363,-6.374,-6.982
1621784925841.823,0.047,0.096,0.072,-0.3738253218595583,-6.385102894214931,-6.987551447107466
1621784925846.319,0.052,0.093,0.07,-0.3858967192174527,-6.397483814582002,-6.993741907291001
1621784925850.813,0.056,0.082,0.068,-0.39796221721738545,-6.409858684325523,-6.999929342162762
1621784925852.317,0.058344625088358436,0.08367473220597031,0.06733010711761188,-0.402,-6.414,-7.002
1621784925855.303,0.063,0.087,0.066,-0.402,-6.414,-6.993966299514955
1621784925859.791,0.065,0.07,0.056,-0.402,-6.414,-6.981891774454325
1621784925864.276,0.066,0.073,0.056,-0.402,-6.414,-6.969825788197252
1621784925866.813,0.07222783982566058,0.06847066194497411,0.05486766548624353,-0.402,-6.414,-6.963
1621784925868.757,0.077,0.065,0.054,-0.39675844318047565,-6.408624044287667,-6.9510384985400595
1621784925873.236,0.077,0.065,0.047,-0.38468239126398757,-6.396238350014346,-6.92348032878192
1621784925877.712,0.072,0.058,0.047,-0.3726148964539486,-6.38386143226046,-6.895941686779524
1621784925881.278,0.072,0.05481104682894881,0.044608285121711604,-0.363,-6.374,-6.874
1621784925882.185,0.072,0.054,0.044,-0.3580355227768662,-6.370292352453609,-6.872806011807094
1621784925886.655,0.066,0.056,0.044,-0.33356860124837184,-6.352019588274101,-6.866921562325558
1621784925891.122,0.066,0.049,0.042,-0.30911771571629143,-6.333758800345079,-6.861040969602652
1621784925895.586,0.061,0.049,0.044,-0.28468420251365933,-6.315510986687417,-6.855164555034931
1621784925895.711,0.06094394569739435,0.048691701335668934,0.04394394569739435,-0.284,-6.315,-6.855
1621784925900.046,0.059,0.038,0.042,-0.266543469785575,-6.321019493177388,-6.884495516569201
1621784925904.504,0.054,0.044,0.038,-0.24859143995253835,-6.327209848292228,-6.914828256631918
1621784925908.959,0.056,0.038,0.042,-0.2306512077294686,-6.3333961352657,-6.945141062801933
1621784925910.114,0.05548110775980258,0.03981612284069098,0.04070276939950644,-0.226,-6.335,-6.953
1621784925913.411,0.054,0.045,0.037,-0.21682219012828138,-6.348537269560785,-6.964242817092855
1621784925917.86,0.059,0.045,0.037,-0.2044364964743862,-6.366806167700281,-6.979415291818877
1621784925922.306,0.068,0.04,0.035,-0.19206031773001445,-6.385061031348229,-6.9945761107807325
1621784925924.483,0.0699598879059289,0.03657019616462443,0.03255014011758888,-0.186,-6.394,-7.002
1621784925926.749,0.072,0.033,0.03,-0.18916052913836254,-6.394,-6.998839470861637
1621784925931.19,0.08,0.033,0.033,-0.19535424008716823,-6.394,-6.992645759912832
1621784925935.627,0.087,0.03,0.028,-0.20154250302194526,-6.394,-6.986457496978055
1621784925938.823,0.0920455346327497,0.0249544653672503,0.025116837352714458,-0.206,-6.394,-6.982
1621784925940.061,0.094,0.023,0.024,-0.206,-6.394,-6.9659070807029515
1621784925944.492,0.093,0.019,0.023,-0.206,-6.394,-6.9083108684524825
1621784925948.92,0.087,0.016,0.019,-0.206,-6.394,-6.85075273844054
1621784925953.132,0.09080755862068965,0.014096220689655173,0.01424055172413793,-0.206,-6.394,-6.796
1621784925953.345,0.091,0.014,0.014,-0.20658155203666334,-6.394581552036663,-6.7930773282259995
1621784925957.768,0.082,0.01,0.014,-0.21866409589931254,-6.406664095899313,-6.732354800095763
1621784925962.187,0.077,0.0,0.012,-0.23073530216491672,-6.418735302164917,-6.671689250658367
1621784925966.603,0.061,0.003,0.007,-0.24279850542084203,-6.430798505420842,-6.611063921474742
1621784925967.409,0.06008691082097809,0.0020869108209780923,0.006634764328391237,-0.245,-6.433,-6.6
1621784925971.016,0.056,-0.002,0.005,-0.25993805264240183,-6.428189440674481,-6.590125694016039
1621784925975.427,0.045,-0.009,0.003,-0.27820443484817325,-6.422307046404826,-6.578051305778326
1621784925979.834,0.035,-0.014,-0.003,-0.2964546404825553,-6.416429861539516,-6.56598761052848
1621784925981.656,0.029209277836280002,-0.01896347614033143,-0.005895361081860001,-0.304,-6.414,-6.561
1621784925984.239,0.021,-0.026,-0.01,-0.3076341777586947,-6.414,-6.56445246887076
1621784925988.64,0.017,-0.03,-0.01,-0.3138260197509661,-6.414,-6.570334718763418
1621784925993.039,0.007,-0.037,-0.01,-0.3200154572778016,-6.414,-6.5762146844139115
1621784925995.871,0.001200644372847461,-0.04151060993222975,-0.01579935562715254,-0.324,-6.414,-6.58
1621784925997.434,-0.002,-0.044,-0.019,-0.3174984938981359,-6.4117960996264864,-6.58
1621784926001.827,-0.012,-0.049,-0.028,-0.2992258292166549,-6.405601976005646,-6.58
1621784926006.216,-0.019,-0.052,-0.031,-0.2809683976797425,-6.399413016162624,-6.58
1621784926010.055,-0.028625688686070454,-0.06337581390171963,-0.0371254382547721,-0.265,-6.394,-6.58
1621784926010.603,-0.03,-0.065,-0.038,-0.2627149930132662,-6.394774578639571,-6.58
1621784926014.986,-0.044,-0.073,-0.04,-0.244442061862784,-6.400968792588887,-6.58
1621784926019.367,-0.059,-0.07,-0.047,-0.22617829109665843,-6.407159901323166,-6.58
1621784926023.744,-0.07,-0.072,-0.049,-0.20793080545827797,-6.41334548967516,-6.58
1621784926024.207,-0.07105829846582985,-0.07231748953974895,-0.049211659693165974,-0.206,-6.414,-6.58
1621784926028.12,-0.08,-0.075,-0.051,-0.206,-6.4248065140723325,-6.6018901182490835
1621784926032.491,-0.094,-0.073,-0.056,-0.206,-6.436877204204412,-6.626341003388424
1621784926036.86,-0.096,-0.077,-0.058,-0.206,-6.448943174745868,-6.650782328331374
1621784926038.329,-0.09700939439691328,-0.08103757758765308,-0.05900939439691327,-0.206,-6.453,-6.659
1621784926041.226,-0.099,-0.089,-0.061,-0.206,-6.469038469536287,-6.683057704304429
1621784926045.588,-0.098,-0.093,-0.063,-0.206,-6.493186733208567,-6.719280099812851
1621784926049.948,-0.091,-0.099,-0.068,-0.206,-6.517325535454356,-6.755488303181535
1621784926052.418,-0.08873237700325003,-0.100133811498375,-0.07196834024431245,-0.206,-6.531,-6.776
1621784926054.305,-0.087,-0.101,-0.075,-0.20076591422121895,-6.5257659142212185,-6.789152318110783
1621784926058.659,-0.084,-0.106,-0.073,-0.1886887133182844,-6.513688713318285,-6.819500156277131
1621784926063.01,-0.077,-0.108,-0.077,-0.17661963882618512,-6.501619638826185,-6.849827574231637
1621784926066.478,-0.07301095197978096,-0.11198904802021904,-0.08258466722830667,-0.167,-6.492,-6.874
1621784926067.357,-0.072,-0.113,-0.084,-0.15960741694655692,-6.492,-6.869113377303656
1621784926071.702,-0.077,-0.113,-0.086,-0.12306136122374398,-6.492,-6.8449558150462035
1621784926076.044,-0.073,-0.131,-0.089,-0.08653994744444252,-6.492,-6.820814541531072
1621784926080.384,-0.072,-0.129,-0.091,-0.05003496162748204,-6.492,-6.796684127177488
1621784926080.507,-0.07202837837837837,-0.1287162162162162,-0.0908581081081081,-0.049,-6.492,-6.796
1621784926084.72,-0.073,-0.119,-0.086,-0.03425256823929537,-6.50373775180954,-6.778242888288132
1621784926089.053,-0.077,-0.126,-0.087,-0.019084660329641578,-6.515810168309061,-6.759979488968344
1621784926093.383,-0.077,-0.124,-0.087,-0.003927007935815817,-6.527874422255167,-6.741728438126799
1621784926094.505,-0.07777780285504711,-0.12114805619816059,-0.08674073238165096,0.0,-6.531,-6.737
1621784926097.71,-0.08,-0.113,-0.086,-0.0022949042915829036,-6.537884712874749,-6.741589808583166
1621784926102.034,-0.075,-0.119,-0.087,-0.005390962328467791,-6.547172886985403,-6.747781924656936
1621784926106.355,-0.075,-0.112,-0.086,-0.008484922646621798,-6.556454767939865,-6.753969845293243
1621784926108.471,-0.07254989540340363,-0.11101995816136145,-0.08305987448408435,-0.01,-6.561,-6.757
1621784926110.673,-0.07,-0.11,-0.08,-0.008419706366726235,-6.557839412733452,-6.769326290339535
1621784926114.988,-0.063,-0.112,-0.084,-0.005323241879533271,-6.551646483759066,-6.79347871333964
1621784926119.301,-0.058,-0.113,-0.084,-0.002228178983145871,-6.545456357966292,-6.817620203931462
1621784926122.406,-0.052956033994334274,-0.10579433427762039,-0.084,0.0,-6.541,-6.835
1621784926123.61,-0.051,-0.103,-0.084,0.005974613318351797,-6.541,-6.8333548166224825
1621784926127.917,-0.051,-0.108,-0.084,0.027344879650274764,-6.541,-6.827470250531084
1621784926132.22,-0.044,-0.101,-0.084,0.048695763619445574,-6.541,-6.821591021612036
1621784926136.312,-0.04209674672117186,-0.10956463975472662,-0.07733861352410151,0.069,-6.541,-6.816
1621784926136.52,-0.042,-0.11,-0.077,0.06925790622460848,-6.540606353657177,-6.8151991333025315
1621784926140.818,-0.033,-0.112,-0.079,0.07458706007934106,-6.532472381984164,-6.798650708174677
1621784926145.699,-0.037,-0.101,-0.075,0.08063877515254832,-6.523235553714532,-6.779858540315771
1621784926150.72,-0.038,-0.103,-0.077,0.08686424394984625,-6.513733522392339,-6.760526821418898
1621784926151.636,-0.03781686841077704,-0.10171807887543928,-0.07663373682155408,0.088,-6.512,-6.757
1621784926155.722,-0.037,-0.096,-0.075,0.09787001360955692,-6.516808468168758,-6.732198427340087
1621784926160.719,-0.042,-0.089,-0.075,0.10994096476636928,-6.522689187963103,-6.701866293663995
1621784926165.715,-0.045,-0.082,-0.073,0.12200955693331317,-6.528568758505973,-6.671540087706034
1621784926167.781,-0.04872028723560158,-0.08406682624200087,-0.07010644326119876,0.127,-6.531,-6.659
1621784926170.713,-0.054,-0.087,-0.066,0.127,-6.527549033546084,-6.65536740373272
1621784926175.708,-0.061,-0.086,-0.063,0.127,-6.521669545358298,-6.649178468798209
1621784926180.705,-0.068,-0.075,-0.063,0.127,-6.515787758250401,-6.6429871139477905
1621784926183.923,-0.07508413543753359,-0.06727185224996335,-0.060423950749987784,0.127,-6.512,-6.639
1621784926185.702,-0.079,-0.063,-0.059,0.127,-6.514093519848771,-6.649798155009452
1621784926190.698,-0.082,-0.063,-0.063,0.127,-6.519973534971644,-6.6801266540642725
1621784926195.693,-0.086,-0.052,-0.056,0.127,-6.525852400756143,-6.710449224952741
1621784926200.067,-0.08687548257831207,-0.039743243903630945,-0.05775096515662415,0.127,-6.531,-6.737
1621784926200.689,-0.087,-0.038,-0.058,0.1330510664044774,-6.531385418242323,-6.737770836484647
1621784926205.685,-0.086,-0.037,-0.058,0.1816495840266223,-6.534480865224626,-6.743961730449251
1621784926210.68,-0.084,-0.028,-0.056,0.2302362274996218,-6.537575555891696,-6.750151111783391
1621784926215.676,-0.084,-0.024,-0.059,0.27883474512176676,-6.5406710028739985,-6.756342005747995
1621784926216.207,-0.08357475927464686,-0.022724277823940563,-0.058149518549293705,0.284,-6.541,-6.757
1621784926220.671,-0.08,-0.012,-0.051,0.3166376522199531,-6.538234097269496,-6.757
1621784926225.666,-0.082,-0.002,-0.052,0.3531595492020271,-6.535139021254065,-6.757
1621784926230.662,-0.082,0.0,-0.044,0.38968858633991377,-6.532043340140685,-6.757
1621784926232.346,-0.082,0.0016855662544601397,-0.044,0.402,-6.531,-6.757
1621784926235.657,-0.082,0.005,-0.044,0.40405183291223506,-6.522997851642283,-6.75289633417553
1621784926240.652,-0.082,0.012,-0.035,0.40714728353783075,-6.51092559420246,-6.7467054329243386
1621784926245.647,-0.084,0.014,-0.037,0.41024258287062954,-6.498853926804545,-6.740514834258741
1621784926248.483,-0.08286429409464216,0.02308564724286273,-0.03586429409464216,0.412,-6.492,-6.737
1621784926250.641,-0.082,0.03,-0.035,0.412,-6.492,-6.73967501853449
1621784926255.635,-0.077,0.052,-0.038,0.412,-6.492,-6.745864781444328
1621784926260.63,-0.077,0.054,-0.042,0.412,-6.492,-6.752055754769794
1621784926264.619,-0.07140882870551428,0.04840882870551427,-0.038006306218224484,0.412,-6.492,-6.757
1621784926265.624,-0.07,0.047,-0.037,0.412,-6.490754349338901,-6.748405010438413
1621784926270.618,-0.063,0.047,-0.03,0.412,-6.484565429185198,-6.7057014613778705
1621784926275.612,-0.066,0.045,-0.024,0.412,-6.478376206468791,-6.662995824634655
1621784926280.606,-0.072,0.044,-0.023,0.412,-6.472187286315089,-6.620292275574113
1621784926280.757,-0.07215130035197496,0.044,-0.02293947985921001,0.412,-6.472,-6.619
1621784926285.6,-0.077,0.044,-0.021,0.4029947794507074,-6.472,-6.595586426571839
1621784926290.594,-0.084,0.044,-0.021,0.3937090111220398,-6.472,-6.571443428917304
1621784926295.587,-0.091,0.047,-0.019,0.38442505863660437,-6.472,-6.547305152455172
1621784926296.891,-0.09152229174814236,0.04569427062964412,-0.018477708251857645,0.382,-6.472,-6.541
1621784926300.581,-0.093,0.042,-0.017,0.3641607045578355,-6.485493826039586,-6.545574178318504
1621784926305.574,-0.098,0.037,-0.017,0.34002206282912656,-6.503752542218994,-6.551763573633558
1621784926310.567,-0.101,0.03,-0.017,0.31588342110041767,-6.522011258398402,-6.5579529689486105
1621784926313.025,-0.101,0.026554077840797965,-0.017,0.304,-6.531,-6.561
1621784926315.56,-0.101,0.023,-0.017,0.2793259576528991,-6.538700815764382,-6.556285214838134
1621784926320.553,-0.101,0.002,-0.017,0.230731115584278,-6.553867358830384,-6.546999576226295
1621784926325.545,-0.103,-0.01,-0.021,0.1821457781544655,-6.569030935480454,-6.537715753787477
1621784926329.156,-0.104446411108938,-0.02012487776256601,-0.023169616663407003,0.147,-6.58,-6.531
1621784926330.538,-0.105,-0.024,-0.024,0.14194461766664648,-6.586769071259914,-6.51926123085306
1621784926335.53,-0.112,-0.031,-0.024,0.12368505176484833,-6.611218320518254,-6.476861899860749
1621784926340.524,-0.117,-0.049,-0.028,0.10541834170854271,-6.6356771356783915,-6.434445979899498
1621784926345.286,-0.11890776604068858,-0.058538830203442874,-0.03276941510172144,0.088,-6.659,-6.394
1621784926345.516,-0.119,-0.059,-0.033,0.088,-6.660113492892502,-6.394556746446251
1621784926350.508,-0.119,-0.072,-0.03,0.088,-6.684257277805531,-6.406628638902766
1621784926355.5,-0.119,-0.086,-0.035,0.088,-6.708401062718561,-6.41870053135928
1621784926360.492,-0.12,-0.089,-0.038,0.088,-6.732544847631591,-6.430772423815795
1621784926361.413,-0.11981543804725334,-0.09158386733845325,-0.038,0.088,-6.737,-6.433
1621784926365.483,-0.119,-0.103,-0.038,0.08320483861200266,-6.707219524011385,-6.465304245140192
1621784926370.475,-0.12,-0.119,-0.042,0.07732292739054078,-6.670689759583358,-6.5049297523163565
1621784926375.466,-0.119,-0.122,-0.051,0.07144245442984316,-6.6341689275116575,-6.5445455701568465
1621784926377.539,-0.12107634371790482,-0.12366107497432385,-0.051,0.069,-6.619,-6.561
1621784926380.458,-0.124,-0.126,-0.051,0.08673994670542637,-6.603070251937984,-6.561
1621784926385.45,-0.12,-0.145,-0.049,0.11707857921511629,-6.5758273982558135,-6.561
1621784926390.441,-0.122,-0.154,-0.047,0.14741127664728682,-6.548589874031007,-6.561
1621784926393.664,-0.12458318250745977,-0.1585205693880546,-0.043771021865675296,0.167,-6.531,-6.561
1621784926395.432,-0.126,-0.161,-0.042,0.17982698946220932,-6.532096323885659,-6.567358678536822
1621784926400.423,-0.134,-0.161,-0.045,0.21604228742732556,-6.535191648498062,-6.585311561288759
1621784926405.413,-0.141,-0.166,-0.037,0.2522487281976744,-6.538286216085272,-6.603260053294574
1621784926409.789,-0.15327491072738836,-0.17213745536369415,-0.03524644132465881,0.284,-6.541,-6.619
1621784926410.404,-0.155,-0.173,-0.035,0.2885006662225183,-6.542487508327782,-6.622775982678214
1621784926415.394,-0.161,-0.161,-0.031,0.32501877536187995,-6.554557052873842,-6.653414057295136
1621784926420.385,-0.162,-0.166,-0.024,0.3615440312518927,-6.566628959481558,-6.6840581279147235
1621784926425.375,-0.166,-0.162,-0.021,0.3980621403912543,-6.578698504027618,-6.714696202531646
1621784926425.913,-0.16621566612847988,-0.1626469983854396,-0.020029502421840602,0.402,-6.58,-6.718
1621784926430.365,-0.168,-0.168,-0.012,0.402,-6.6018164952825185,-6.745063500477048
1621784926435.356,-0.166,-0.164,-0.01,0.402,-6.626274658872347,-6.775404007208735
1621784926440.346,-0.159,-0.168,-0.003,0.402,-6.650728036831185,-6.805738577334888
1621784926442.034,-0.15426322485931002,-0.17138341081477856,-0.0043533643259114265,0.402,-6.659,-6.816
1621784926445.335,-0.145,-0.178,-0.007,0.3899181710789362,-6.654904464772521,-6.819890758466105
1621784926450.325,-0.134,-0.18,0.0,0.3716546919488702,-6.648713454897922,-6.825772217846974
1621784926455.314,-0.122,-0.19,0.003,0.3533947870600352,-6.64252365663052,-6.8316525262010055
1621784926458.154,-0.11687758696609424,-0.19284578501883654,0.004138314007534616,0.343,-6.639,-6.835
1621784926460.304,-0.113,-0.195,0.005,0.31686112583483517,-6.619395844376126,-6.824597794975087
1621784926465.293,-0.11,-0.204,0.007,0.256203858793597,-6.573902894095198,-6.800458678499493
1621784926470.282,-0.106,-0.209,0.009,0.19554659175235875,-6.528409943814269,-6.776319562023898
1621784926474.275,-0.11160239784683142,-0.21380205529728408,0.009800342549547345,0.147,-6.492,-6.757
1621784926475.271,-0.113,-0.215,0.01,0.13006489729140155,-6.479885838938375,-6.7533533902926735
1621784926480.26,-0.112,-0.227,0.016,0.04524410713203658,-6.419211113130946,-6.7350890595649275
1621784926485.25,-0.115,-0.244,0.005,-0.03959328606919957,-6.358524510695025,-6.716821153729625
1621784926490.238,-0.126,-0.248,-0.003,-0.12439747318669339,-6.297861661516088,-6.698560398109435
1621784926490.391,-0.126,-0.24858297039393198,-0.003337509175434304,-0.127,-6.296,-6.698
1621784926495.227,-0.126,-0.267,-0.014,-0.2536147018282616,-6.222491464578379,-6.698
1621784926500.215,-0.129,-0.286,-0.037,-0.38421168148563295,-6.1466709432133175,-6.698
1621784926505.203,-0.134,-0.297,-0.058,-0.5148022690437601,-6.070854132901134,-6.698
1621784926506.509,-0.13504742792814842,-0.3024989966227791,-0.06480828153296461,-0.549,-6.051,-6.698
1621784926510.191,-0.138,-0.318,-0.084,-0.6901809134287662,-5.968073346966599,-6.679952601681436
1621784926515.179,-0.14,-0.339,-0.106,-0.8814458986593956,-5.855728379913656,-6.6555028705597215
1621784926520.167,-0.134,-0.363,-0.145,-1.072710883890025,-5.743383412860713,-6.631053139438007
1621784926522.626,-0.13350702364054623,-0.37236655082962167,-0.1671839361754197,-1.167,-5.688,-6.619
1621784926525.155,-0.133,-0.382,-0.19,-1.2655570015301407,-5.644842077355432,-6.568309058130199
1621784926530.143,-0.127,-0.41,-0.232,-1.4599404457103033,-5.559721938582271,-6.468331586043904
1621784926535.131,-0.122,-0.426,-0.29,-1.654323889890466,-5.474601799809111,-6.3683541139576105
1621784926538.741,-0.12489552531087829,-0.4332388132771957,-0.3189552531087829,-1.795,-5.413,-6.296
1621784926540.118,-0.126,-0.436,-0.33,-1.8293532477764813,-5.40462532765648,-6.259937635418718
1621784926545.106,-0.14,-0.45,-0.377,-1.9537984969469235,-5.374287928604979,-6.129301080319399
1621784926550.093,-0.166,-0.447,-0.421,-2.0782193821118504,-5.34395646903741,-5.998690101365172
1621784926554.854,-0.19750403877221326,-0.4603653497821511,-0.45250403877221324,-2.197,-5.315,-5.874
1621784926555.08,-0.199,-0.461,-0.454,-2.1919066141374346,-5.320233699522691,-5.874
1621784926560.067,-0.236,-0.436,-0.485,-2.0795551026592927,-5.4356802939616635,-5.874
1621784926565.053,-0.278,-0.415,-0.501,-1.9672200924312448,-5.551109932570649,-5.874
1621784926570.04,-0.333,-0.403,-0.503,-1.8548630805364044,-5.666562178952951,-5.874
1621784926570.966,-0.34562662162823715,-0.40040040142948063,-0.5018858863269202,-1.834,-5.688,-5.874
1621784926575.027,-0.401,-0.389,-0.497,-1.6361382246870928,-5.903001394066127,-5.990196533018153
1621784926580.013,-0.466,-0.37,-0.485,-1.3932181107373398,-6.166964269479044,-6.132854077643422
1621784926584.999,-0.529,-0.358,-0.463,-1.1502861017668273,-6.430940070309422,-6.27551860775222
1621784926587.078,-0.551509913349978,-0.35049669555000734,-0.45341244431389827,-1.049,-6.541,-6.335
1621784926589.986,-0.583,-0.34,-0.44,-0.9285782900619893,-6.7287639855105414,-6.508501144303491
1621784926594.972,-0.618,-0.358,-0.41,-0.7221266312008365,-7.050667621515937,-6.805952484881553
1621784926599.958,-0.632,-0.365,-0.379,-0.5156648630624896,-7.37258702011246,-7.103418390700071
1621784926603.186,-0.6274681486559271,-0.3740637026881457,-0.35957777995397344,-0.382,-7.581,-7.296
1621784926604.944,-0.625,-0.379,-0.349,-0.3349624594586402,-7.651610878724501,-7.381671622563729
1621784926609.929,-0.592,-0.394,-0.314,-0.20159035797641783,-7.851823754963475,-7.624588327119517
1621784926614.915,-0.545,-0.415,-0.284,-0.06818559607165592,-8.05208565972538,-7.867564517595707
1621784926619.295,-0.4905245371730826,-0.43872318542462535,-0.2550049955921246,0.049,-8.228,-8.081
1621784926619.9,-0.483,-0.442,-0.251,0.04715943610732151,-8.233897316962254,-8.084681127785357
1621784926624.886,-0.405,-0.447,-0.22,0.03199001061088373,-8.282501394573291,-8.115019978778232
1621784926629.871,-0.305,-0.45,-0.202,0.016823556161891767,-8.331095952705775,-8.145352887676216
1621784926634.857,-0.192,-0.459,-0.18,0.001654873427315448,-8.379697650447174,-8.175690253145369
1621784926635.401,-0.17923365492923257,-0.4586726578186983,-0.17945442969783043,0.0,-8.385,-8.179
1621784926639.842,-0.075,-0.456,-0.175,0.07307172848675934,-8.306413424080278,-8.019345166815722
1621784926644.826,0.016,-0.447,-0.147,0.1550730624062088,-8.21822331024238,-7.840179988176623
1621784926649.811,0.087,-0.428,-0.119,0.2370944809082779,-8.130011596004305,-7.660970926619272
1621784926651.507,0.10299123322558526,-0.422556175923205,-0.10811235184641002,0.265,-8.1,-7.6
1621784926654.796,0.134,-0.412,-0.087,0.3850835026227222,-7.994007928807495,-7.399656605318214
1621784926659.78,0.169,-0.389,-0.045,0.5670673721233437,-7.833379309299294,-7.096040659773809
1621784926664.764,0.185,-0.363,0.002,0.7490423274006246,-7.6727585579576125,-6.792439586428549
1621784926667.611,0.18671373989713447,-0.348147587558168,0.03056233161890766,0.853,-7.581,-6.619
1621784926669.748,0.188,-0.337,0.052,0.8738376321096605,-7.511983638872462,-6.5019376336259835
1621784926674.733,0.168,-0.311,0.099,0.9224452834766259,-7.3509901438990735,-6.228867897921121
1621784926679.717,0.133,-0.291,0.148,0.9710457929612276,-7.190020303567908,-5.955838284128645
1621784926683.712,0.09612834329381796,-0.2773735181738023,0.19048256098755756,1.01,-7.061,-5.737
1621784926684.701,0.087,-0.274,0.201,1.0015852412287352,-7.038703960335992,-5.724347151044667
1621784926689.685,0.044,-0.264,0.253,0.9591790945204234,-6.926343148254844,-5.66058316402341
1621784926694.668,0.0,-0.227,0.307,0.9167833338387361,-6.814009855353731,-5.596834793947297
1621784926699.652,-0.04,-0.199,0.358,0.8743771871304242,-6.701649043272584,-5.533070806926039
1621784926699.814,-0.041071974522293,-0.19776560509554142,0.3593968152866242,0.873,-6.698,-5.531
1621784926704.635,-0.073,-0.161,0.401,0.7349488793181886,-6.618643065117831,-5.633714825149373
1621784926709.618,-0.106,-0.129,0.44,0.5922627308847168,-6.536621743350217,-5.739878271814625
1621784926714.601,-0.136,-0.096,0.468,0.4495695914591611,-6.454596402899518,-5.8460469200206235
1621784926715.913,-0.14258255756981872,-0.09047065164135228,0.47905869671729545,0.412,-6.433,-5.874
1621784926719.584,-0.161,-0.075,0.51,0.27563456026206834,-6.401759088220574,-5.9433228991309885
1621784926724.567,-0.182,-0.051,0.539,0.09053090070825182,-6.359352396985001,-6.037422418369049
1621784926729.55,-0.211,-0.028,0.56,-0.09458182810864907,-6.316943628008554,-6.131526548068611
1621784926732.011,-0.21988975992160706,-0.019110240078392945,0.5659265066144047,-0.186,-6.296,-6.178
1621784926734.533,-0.229,-0.01,0.572,-0.2828187815642204,-6.298976629206667,-6.224059420355794
1621784926739.515,-0.246,0.017,0.597,-0.474075708630966,-6.304856696543671,-6.315045725465217
1621784926744.498,-0.258,0.037,0.607,-0.6653794986123118,-6.310738204649893,-6.4060543245825565
1621784926748.109,-0.26452308144663333,0.04714701558365186,0.6222205233754778,-0.804,-6.315,-6.472
1621784926749.48,-0.267,0.051,0.628,-0.8708672834824814,-6.316703625056879,-6.502920794782345
1621784926754.462,-0.276,0.072,0.639,-1.1138327013499167,-6.322893826785985,-6.61527295616563
1621784926759.444,-0.276,0.075,0.634,-1.3568100257849234,-6.329084331867132,-6.727630623388443
1621784926764.205,-0.2779113005978634,0.0683104479074782,0.6368669508967951,-1.589,-6.335,-6.835
1621784926764.426,-0.278,0.068,0.637,-1.594519213556442,-6.337155513752143,-6.840519213556442
1621784926769.407,-0.272,0.061,0.635,-1.7189424124277501,-6.385748653609842,-6.96494241242775
1621784926774.389,-0.26,0.059,0.63,-1.8433900056131196,-6.434351320600149,-7.08939000561312
1621784926779.37,-0.246,0.049,0.632,-1.967819303062943,-6.482946842241,-7.213819303062943
1621784926780.298,-0.24115796178343948,0.05030362567368937,0.6293927486526213,-1.991,-6.492,-7.237
1621784926784.353,-0.22,0.056,0.618,-2.0131762456757905,-6.492,-7.298740683983735
1621784926789.334,-0.197,0.056,0.602,-2.0404168841415307,-6.492,-7.374581097894034
1621784926794.315,-0.18,0.037,0.585,-2.067657522607271,-6.492,-7.4504215118043335
1621784926796.389,-0.16667581609646112,0.031170669542201743,0.5766723850602882,-2.079,-6.492,-7.482
1621784926799.296,-0.148,0.023,0.565,-2.052448081794876,-6.484955613537416,-7.467911227074832
1621784926804.277,-0.119,0.014,0.543,-2.00695057720605,-6.47288484701385,-7.4437696940277
1621784926809.257,-0.086,0.016,0.52,-1.9614642223267245,-6.4608170385764785,-7.419634077152955
1621784926812.483,-0.0639804921086168,0.011466571904715225,0.5051044505440643,-1.932,-6.453,-7.404
1621784926814.238,-0.052,0.009,0.497,-1.923384149764097,-6.450818772092177,-7.370845335801083
1621784926819.218,-0.03,0.007,0.478,-1.8989376185202602,-6.444629776840572,-7.276772607976698
1621784926824.198,-0.012,0.023,0.456,-1.8744910872764233,-6.438440781588968,-7.182699880152312
1621784926828.576,-0.0014527987452210567,0.03794186844427017,0.43754239780413684,-1.853,-6.433,-7.1
1621784926829.179,0.0,0.04,0.435,-1.855211078911833,-6.43596059718703,-7.090068882853632
1621784926834.16,0.01,0.045,0.415,-1.8734744116888438,-6.460414890227434,-7.008038659363668
1621784926839.14,0.017,0.059,0.391,-1.8917341637712604,-6.484864388778467,-6.926024518654509
1621784926844.12,0.016,0.075,0.374,-1.9099948110273255,-6.509315085951842,-6.844006357250148
1621784926844.667,0.016329508679023243,0.07763606943218593,0.37202294792586055,-1.912,-6.512,-6.835
1621784926849.099,0.019,0.099,0.356,-1.9282519687428874,-6.546983051361808,-6.813514346407708
1621784926854.079,0.017,0.103,0.33,-1.9465128290721494,-6.586290326985813,-6.789372870040209
1621784926859.058,0.019,0.124,0.309,-1.9647701084894926,-6.625589894545179,-6.765236127759653
1621784926860.757,0.020364643592509068,0.13423482694381803,0.30251794293558193,-1.971,-6.639,-6.757
1621784926864.038,0.023,0.154,0.29,-1.9589673880053418,-6.671018984460362,-6.744967388005342
1621784926869.017,0.033,0.176,0.288,-1.9407076150297438,-6.719608549836106,-6.726707615029744
1621784926873.997,0.045,0.182,0.278,-1.9224442606531504,-6.7682076453806,-6.708444260653151
1621784926876.845,0.0472879278219084,0.1837159458664313,0.2699922526233206,-1.912,-6.796,-6.698
1621784926878.976,0.049,0.185,0.264,-1.8990184985659437,-6.79335071399305,-6.673361640135363
1621784926883.955,0.052,0.183,0.25,-1.8686891664263927,-6.787161054372733,-6.615797805666419
1621784926888.933,0.056,0.166,0.243,-1.8383657829643232,-6.780972608768229,-6.558245261544531
1621784926892.933,0.05439325291752476,0.17403373541237618,0.23817975875257427,-1.814,-6.776,-6.512
1621784926893.912,0.054,0.176,0.237,-1.796717615636761,-6.773626714823358,-6.4940482275100155
1621784926898.89,0.059,0.173,0.244,-1.7088446643195339,-6.76155965460726,-6.402771746388248
1621784926903.869,0.059,0.173,0.244,-1.620950163894622,-6.749489635182712,-6.311472881510258
1621784926908.847,0.068,0.173,0.241,-1.5330729027558578,-6.737421983124924,-6.2201919236372465
1621784926909.021,0.06817484060814125,0.17317484060814123,0.24086012751348698,-1.53,-6.737,-6.217
1621784926913.825,0.073,0.178,0.237,-1.4595244946275725,-6.748646375887817,-6.126217993079584
1621784926918.803,0.068,0.176,0.232,-1.386495295331755,-6.76071476051721,-6.03214648212226
1621784926923.782,0.065,0.197,0.234,-1.313451769562314,-6.772785512657075,-5.938056516724337
1621784926925.108,0.065,0.19886449239823442,0.23826169691025012,-1.294,-6.776,-5.913
1621784926928.76,0.065,0.204,0.25,-1.256307316332726,-6.785082574377656,-5.913
1621784926933.737,0.068,0.213,0.258,-1.204940042501518,-6.797460230722526,-5.913
1621784926938.715,0.073,0.232,0.26,-1.1535626897389193,-6.809840315725562,-5.913
1621784926941.192,0.074990679421143,0.24444174638214375,0.2624883492764288,-1.128,-6.816,-5.913
1621784926943.692,0.077,0.257,0.265,-1.1447889239737672,-6.803719213019189,-5.919218119990284
1621784926948.669,0.091,0.258,0.272,-1.1782126548457614,-6.779270372844304,-5.931597279572505
1621784926953.646,0.096,0.265,0.279,-1.2116363857177557,-6.754821532669419,-5.943976439154724
1621784926957.274,0.10110252133817325,0.26645786323947807,0.28191572647895613,-1.236,-6.737,-5.953
1621784926958.623,0.103,0.267,0.283,-1.2589900394776798,-6.716443212875797,-5.953
1621784926963.6,0.106,0.278,0.278,-1.3438027330701487,-6.640607045247495,-5.953
1621784926968.577,0.106,0.272,0.279,-1.4286112663225023,-6.564774597631339,-5.953
1621784926973.353,0.09832296674188169,0.26912111252820564,0.279,-1.51,-6.492,-5.953
1621784926973.554,0.098,0.269,0.279,-1.5150238554399817,-6.4912626679826895,-5.951775279022094
1621784926978.531,0.098,0.255,0.279,-1.6394665249411586,-6.472998694100676,-5.92143850884519
1621784926983.507,0.093,0.248,0.276,-1.7638847771619466,-6.454738303849366,-5.891107691139625
1621784926988.483,0.089,0.25,0.271,-1.8882969250626376,-6.436478809505732,-5.860778361551895
1621784926989.431,0.08766642135217348,0.24866642135217348,0.2696664213521735,-1.912,-6.433,-5.855
1621784926993.459,0.082,0.243,0.264,-1.958852229241329,-6.442771320536962,-5.84021774585434
1621784926998.436,0.077,0.248,0.255,-2.0167423768450465,-6.454844666828646,-5.821952939925895
1621784927003.411,0.07,0.239,0.244,-2.0746069671384317,-6.466912682986091,-5.803696197533864
1621784927005.508,0.0678927485035816,0.23689274850358158,0.24062839760573054,-2.099,-6.472,-5.796
1621784927008.387,0.065,0.234,0.236,-2.1129692298346066,-6.49492386434397,-5.799402761113559
1621784927013.363,0.063,0.23,0.234,-2.1371144844554473,-6.534546846285862,-5.805284297495558
1621784927018.338,0.063,0.222,0.222,-2.1612538158953876,-6.57416010813602,-5.811164391051441
1621784927021.583,0.05713070356196644,0.22526072024335198,0.21286998331861445,-2.177,-6.6,-5.815
1621784927023.314,0.054,0.227,0.208,-2.209732850395614,-6.627456831746321,-5.831904794447735
1621784927028.29,0.044,0.22,0.195,-2.3038317159475756,-6.706388445942867,-5.8805019059334525
1621784927033.265,0.03,0.209,0.182,-2.397907497684025,-6.785300697070482,-5.9290870958433946
1621784927037.659,0.01763509667288252,0.20193434095593288,0.16433585238983217,-2.481,-6.855,-5.972
1621784927038.24,0.016,0.201,0.162,-2.486676049277696,-6.868810514803057,-5.976989138855555
1621784927043.215,0.012,0.201,0.152,-2.5352754325469764,-6.987058695751242,-6.019707068098617
1621784927048.189,0.0,0.194,0.133,-2.583862891342984,-7.105277863012867,-6.062414515957528
1621784927053.164,-0.012,0.18,0.12,-2.632462274612265,-7.223526043961052,-6.1051324452005895
1621784927053.731,-0.012797664032978358,0.17897443195759924,0.11829071992933209,-2.638,-7.237,-6.11
1621784927058.139,-0.019,0.171,0.105,-2.5949381105017695,-7.3365634769927235,-6.139347911951023
1621784927063.113,-0.031,0.166,0.089,-2.5463453142327617,-7.4489149740987735,-6.172465295395506
1621784927068.088,-0.04,0.166,0.084,-2.4977453628450332,-7.56128301456849,-6.2055875552584805
1621784927069.802,-0.04310145283204084,0.1618647295572789,0.0822769706488662,-2.481,-7.6,-6.217
1621784927073.062,-0.049,0.154,0.079,-2.4114224862138633,-7.68154565755693,-6.221056997888404
1621784927078.036,-0.059,0.159,0.075,-2.3052663648654805,-7.8059618697494955,-6.227246859191517
1621784927083.01,-0.063,0.161,0.073,-2.19910503288924,-7.9303841888586755,-6.2334370243213275
1621784927085.873,-0.06818053305845972,0.16157561478427332,0.0724243852157267,-2.138,-8.002,-6.237
1621784927087.984,-0.072,0.162,0.072,-2.123813955608222,-8.044558133175334,-6.239627045257737
1621784927092.958,-0.068,0.159,0.072,-2.090385032587393,-8.14484490223782,-6.24581758655789
1621784927097.931,-0.07,0.166,0.065,-2.0569643133858984,-8.245107059842304,-6.252006608632241
1621784927101.943,-0.06112722096790026,0.16196691862177284,0.06338676744870914,-2.03,-8.326,-6.257
1621784927102.905,-0.059,0.161,0.063,-2.035267859855966,-8.343000820444257,-6.255802759123644
1621784927107.879,-0.04,0.157,0.059,-2.0625069737761703,-8.430908869914006,-6.249612051414506
1621784927112.852,-0.023,0.157,0.058,-2.0897420766355705,-8.518803974596615,-6.243422255310097
1621784927117.824,0.003,0.164,0.058,-2.1169704943936307,-8.606677504633991,-6.237233978546902
1621784927118.012,0.0035291057229802692,0.16407558653185433,0.057924413468145676,-2.118,-8.61,-6.237
1621784927122.798,0.017,0.166,0.056,-2.1239565805265634,-8.615956580526564,-6.181603801102958
1621784927127.771,0.028,0.171,0.061,-2.1301456026009147,-8.622145602600915,-6.124045895811495
1621784927132.743,0.037,0.173,0.077,-2.1363334092946236,-8.628333409294624,-6.066499293560002
1621784927134.082,0.03269170348551792,0.17757756504663721,0.08400098183603338,-2.138,-8.63,-6.051
1621784927137.716,0.021,0.19,0.103,-2.2044387866642374,-8.501416089755269,-6.188397218679784
1621784927142.688,-0.016,0.202,0.148,-2.295337402076881,-8.325493259245764,-6.376378028784842
1621784927147.66,-0.094,0.194,0.199,-2.3862360174895243,-8.14957042873626,-6.564358838889901
1621784927150.163,-0.14901341397980586,0.1955003658358129,0.21300341446758694,-2.432,-8.061,-6.659
1621784927152.665,-0.204,0.197,0.227,-2.338389515168179,-8.061,-6.953763449729631
1621784927157.6,-0.318,0.213,0.239,-2.1537444780496746,-8.061,-7.535179176977362
1621784927162.534,-0.417,0.218,0.258,-1.9691451134940274,-8.061,-8.11645108911496
1621784927166.146,-0.45799554675903015,0.1938419099455715,0.276301583374567,-1.834,-8.061,-8.542
1621784927167.468,-0.473,0.185,0.283,-1.8502537903151706,-8.106527198382798,-8.70055738307452
1621784927172.401,-0.45,0.138,0.297,-1.9109015896352108,-8.276402921988423,-9.292182853992465
1621784927177.334,-0.328,0.11,0.309,-1.9715523905785781,-8.44628705320224,-9.883837606052253
1621784927182.088,-0.14104721369890133,0.09650856181332278,0.3022542809066614,-2.03,-8.61,-10.454
1621784927182.267,-0.134,0.096,0.302,-2.0260307913845397,-8.595663623272772,-10.460836483960906
1621784927187.199,0.075,0.103,0.274,-1.9167910322007413,-8.201100753699562,-10.648988817059346
1621784927192.131,0.271,0.124,0.25,-1.8075458653757774,-7.8065183522779495,-10.837150464168632
1621784927197.063,0.429,0.168,0.223,-1.6983061061919789,-7.41195548270474,-11.025302797267072
1621784927198.025,0.4485030195030195,0.1685850905850906,0.22143975843975844,-1.677,-7.335,-11.062
1621784927201.995,0.529,0.171,0.215,-1.4300623946553892,-6.831655940669915,-10.761488645766295
1621784927206.926,0.59,0.162,0.215,-1.1233720235359015,-6.20651512365542,-10.388261009469522
1621784927211.856,0.628,0.176,0.213,-0.8167423922037328,-5.5814981152891425,-10.015107290613221
1621784927213.958,0.6488877116546193,0.1755737201703139,0.21726279829686107,-0.686,-5.315,-9.856
1621784927216.787,0.677,0.175,0.223,-0.47006901941554163,-5.081666687098703,-9.479718957353233
1621784927221.716,0.721,0.183,0.23,-0.0938668648574098,-4.675145608900195,-8.824149577823068
1621784927226.646,0.756,0.199,0.244,0.2824098257658184,-4.268543987618187,-8.16845031184394
1621784927229.89,0.7625813066521373,0.21150448263906088,0.26176952796077074,0.53,-4.001,-7.737
1621784927231.575,0.766,0.218,0.271,0.7230126178612495,-3.918038436182446,-7.5627172249904175
1621784927236.503,0.735,0.257,0.297,1.287480843234956,-3.6754161287849754,-7.053024699118437
1621784927241.432,0.679,0.321,0.358,1.8520609275584516,-3.4327457416634726,-6.54323116903028
1621784927245.814,0.6123246656760772,0.3565601783060921,0.4184523031203566,2.354,-3.217,-6.09
1621784927246.361,0.604,0.361,0.426,2.3293932646301068,-3.1893346061832903,-6.089312661023187
1621784927251.288,0.482,0.382,0.459,2.107800883327199,-2.940197920500552,-6.083122929701877
1621784927256.215,0.335,0.375,0.459,1.8862085020242914,-2.6910612348178136,-6.076933198380567
1621784927261.142,0.18,0.351,0.431,1.6646161207213839,-2.4419245491350754,-6.070743467059256
1621784927261.734,0.1619830533670284,0.34715638471829935,0.42847762747138396,1.638,-2.412,-6.07
1621784927266.069,0.03,0.319,0.41,1.4884633543993127,-2.708621870781691,-6.126110289606086
1621784927270.995,-0.106,0.312,0.384,1.3185472143821326,-3.0456686403239663,-6.189867529758253
1621784927275.92,-0.225,0.326,0.368,1.1486731807583752,-3.3826318873481407,-6.253608970425819
1621784927277.65,-0.26047038707439163,0.333023839024632,0.3637856965852208,1.089,-3.501,-6.276
1621784927280.846,-0.326,0.346,0.356,0.8997819002025409,-3.9619931412262934,-6.372617734609955
1621784927285.771,-0.4,0.358,0.339,0.6082001473025226,-4.672375437304364,-6.521503958755293
1621784927290.696,-0.461,0.4,0.311,0.31661839440250417,-5.382757733382435,-6.670390182900632
1621784927293.561,-0.4732185036442065,0.423273340274679,0.29354499479399077,0.147,-5.796,-6.757
1621784927295.62,-0.482,0.44,0.281,0.02895325281235131,-6.004135054251907,-6.900416442855169
1621784927300.545,-0.471,0.476,0.232,-0.25338478184134194,-6.501941589036051,-7.243432388465139
1621784927305.468,-0.435,0.525,0.187,-0.5356248407741064,-6.999575377154345,-7.586329302168542
1621784927309.469,-0.37079707413835855,0.5631966774113563,0.141489065212001,-0.765,-7.404,-7.865
1621784927310.391,-0.356,0.572,0.131,-0.7934102666441522,-7.429569239979736,-7.920718910704143
1621784927315.314,-0.244,0.625,0.079,-0.9450821270128793,-7.566073914311591,-8.218181477672198
1621784927320.237,-0.112,0.656,0.012,-1.0967615092949357,-7.702585358365442,-8.515658796800885
1621784927325.158,0.03,0.663,-0.056,-1.2483731943570298,-7.8390358749213265,-8.81300334648389
1621784927325.373,0.03616145032488468,0.663,-0.05905887604781509,-1.255,-7.845,-8.826
1621784927330.08,0.171,0.663,-0.126,-1.3683839019746338,-7.528531615637379,-8.767975862174861
1621784927335.001,0.291,0.677,-0.188,-1.4869194791634677,-7.197684273562018,-8.707315357921567
1621784927339.924,0.37,0.672,-0.251,-1.6055079845223106,-6.866689202469059,-8.646627767711822
1621784927341.273,0.38425664946407306,0.669532502977372,-0.2638858177848353,-1.638,-6.776,-8.63
1621784927344.844,0.422,0.663,-0.298,-1.6225000614307215,-6.465551955032712,-8.458152854992782
1621784927349.764,0.459,0.641,-0.328,-1.601145391160119,-6.037839573670793,-8.221394554166539
1621784927354.684,0.489,0.623,-0.358,-1.5797896612095708,-5.610105967994594,-7.984624504714808
1621784927357.17,0.48697895990472406,0.6073369392616117,-0.3691157205240175,-1.569,-5.394,-7.865
1621784927359.604,0.485,0.592,-0.38,-1.569,-5.24818871170922,-7.759776937966633
1621784927364.523,0.473,0.555,-0.391,-1.569,-4.953524134328817,-7.547135588533505
1621784927369.442,0.461,0.527,-0.403,-1.569,-4.658859556948413,-7.334494239100378
1621784927373.062,0.45952787292132047,0.496085331347729,-0.41477701662943656,-1.569,-4.442,-7.178
1621784927374.36,0.459,0.485,-0.419,-1.5498021049396942,-4.410793208880695,-7.125144518706307
1621784927379.278,0.442,0.438,-0.422,-1.4770689098870708,-4.292563079050472,-6.924896105093339
1621784927384.197,0.408,0.396,-0.426,-1.4043212721825307,-4.174309472228624,-6.724607928094031
1621784927388.952,0.3799561072492552,0.36892313803376364,-0.4240659384309831,-1.334,-4.06,-6.531
1621784927389.114,0.379,0.368,-0.424,-1.3292951230383794,-4.060204116137164,-6.526101212708074
1621784927394.031,0.346,0.332,-0.426,-1.18658996941332,-4.066395229092698,-6.377514501775257
1621784927398.948,0.314,0.298,-0.424,-1.0438848157882603,-4.072586342048232,-6.22892779084244
1621784927403.864,0.272,0.262,-0.415,-0.9012080047954996,-4.078776225388482,-6.080370590676442
1621784927404.836,0.25816060786650774,0.25508030393325387,-0.4122321215733015,-0.873,-4.08,-6.051
1621784927408.78,0.202,0.227,-0.401,-0.6780562618172874,-4.155494135551012,-5.9268320138963615
1621784927413.695,0.119,0.204,-0.389,-0.4351217315112293,-4.249573240281002,-5.772096644274669
1621784927418.61,0.023,0.183,-0.374,-0.1921872012051712,-4.343652345010991,-5.617361274652976
1621784927420.718,-0.013884605831801698,0.17699552928319506,-0.36799552928319507,-0.088,-4.384,-5.551
1621784927423.525,-0.063,0.169,-0.36,0.03858155984745973,-4.481057648542256,-5.5907777248124
1621784927428.439,-0.122,0.148,-0.349,0.2601901217861976,-4.650978179972936,-5.6604172868741545
1621784927433.353,-0.171,0.131,-0.342,0.4817986837249355,-4.820898711403617,-5.7300568489359085
1621784927436.595,-0.21453337969401948,0.12044645340751044,-0.33144645340751044,0.628,-4.933,-5.776
1621784927438.268,-0.237,0.115,-0.326,0.7147481696813092,-5.034294035314384,-5.806989018087855
1621784927443.181,-0.312,0.106,-0.314,0.9694736064968623,-5.331731635289775,-5.897984496124031
1621784927448.094,-0.368,0.098,-0.293,1.2242117017349576,-5.629184016242156,-5.988984496124031
1621784927452.468,-0.40717233154442456,0.110463923673226,-0.274304114490161,1.451,-5.894,-6.07
1621784927453.007,-0.412,0.112,-0.272,1.4633285547283579,-5.921306220390082,-6.092653294776349
1621784927457.919,-0.419,0.122,-0.255,1.575664692672122,-6.170116839968006,-6.299067079923707
1621784927462.831,-0.407,0.136,-0.234,1.6880064142004554,-6.41893982649357,-6.505491124715437
1621784927467.742,-0.363,0.154,-0.211,1.8003202178059436,-6.6677009782809336,-6.711863871285301
1621784927468.34,-0.3570321137403062,0.15497434877709287,-0.20990385762577052,1.814,-6.698,-6.737
1621784927472.653,-0.314,0.162,-0.202,1.7661592835931128,-6.80183610038313,-6.85687361326953
1621784927477.565,-0.243,0.164,-0.202,1.7116756781708236,-6.92009028942469,-6.993392192765152
1621784927482.475,-0.159,0.169,-0.195,1.6572110292194302,-7.038303334307828,-7.129863273376314
1621784927484.207,-0.12690045248868778,0.17146919596240864,-0.19323628859827954,1.638,-7.08,-7.178
1621784927487.385,-0.068,0.176,-0.19,1.539621638678098,-7.076193098034387,-7.134921898810165
1621784927492.295,0.01,0.173,-0.182,1.3876290732217895,-7.0703115119983995,-7.068367109455569
1621784927497.204,0.091,0.162,-0.18,1.2356591808148751,-7.0644308033309215,-7.0018222482183265
1621784927500.068,0.13475714925150445,0.15499885611975928,-0.18116685731337345,1.147,-7.061,-6.963
1621784927502.113,0.166,0.15,-0.182,1.0901318163623488,-7.0065819195122705,-6.871959325060812
1621784927507.021,0.241,0.126,-0.176,0.9536441019798627,-6.875974628198417,-6.653455183668442
1621784927511.929,0.293,0.108,-0.183,0.8171563875973766,-6.745367336884565,-6.434951042276072
1621784927515.926,0.3190558014621774,0.08275844233351569,-0.183,0.706,-6.639,-6.257
1621784927516.838,0.325,0.077,-0.183,0.6958771135544674,-6.61363526748591,-6.2028195509562964
1621784927521.746,0.342,0.042,-0.176,0.6413896947857957,-6.477107132957591,-5.9111880255012474
1621784927526.653,0.351,0.007,-0.162,0.5869158274046014,-6.340612953894484,-5.619629030767809
1621784927531.559,0.353,-0.021,-0.157,0.5324528011333888,-6.204145939203548,-5.328128060611661
1621784927531.78,0.3522795661475695,-0.022395840589084035,-0.157,0.53,-6.198,-5.315
1621784927536.466,0.337,-0.052,-0.157,0.4862496226705683,-6.09069333127984,-5.010816633297397
1621784927541.371,0.302,-0.077,-0.157,0.4404546434621901,-5.978371862005236,-4.692417757585091
1621784927546.277,0.237,-0.117,-0.145,0.39465054674264594,-5.866028030186355,-4.373955490528261
1621784927547.632,0.21821453459432552,-0.12611647585863614,-0.14251368840219014,0.382,-5.835,-4.286
1621784927551.182,0.169,-0.15,-0.136,0.29417344407291557,-5.870175431838144,-4.145298272647426
1621784927556.088,0.091,-0.171,-0.12,0.1727927947362744,-5.918789620475523,-3.9508415180979086
1621784927560.992,0.002,-0.199,-0.11,0.05146046812641569,-5.967384455367736,-3.7564621785290537
1621784927563.476,-0.04307366482504604,-0.2111546961325967,-0.1135451197053407,-0.01,-5.992,-3.658
1621784927565.897,-0.087,-0.223,-0.117,-0.12844060168916838,-6.084918562357438,-3.8004343751926513
1621784927570.8,-0.168,-0.251,-0.122,-0.36831984772825355,-6.273107699895197,-4.088908513655138
1621784927575.704,-0.222,-0.29,-0.136,-0.6082468713396215,-6.461334319709019,-4.377440108501325
1621784927579.317,-0.23968509112638184,-0.314317000298775,-0.14263190917239318,-0.785,-6.6,-4.59
1621784927580.607,-0.246,-0.323,-0.145,-0.785,-6.640718193727364,-4.7600391770054715
1621784927585.51,-0.244,-0.365,-0.157,-0.785,-6.795476612468213,-5.406310333667258
1621784927590.412,-0.216,-0.398,-0.166,-0.785,-6.950204207443939,-6.052452770285891
1621784927595.158,-0.1830820798884351,-0.4067135670883554,-0.18245896005578244,-0.785,-7.1,-6.678
1621784927595.314,-0.182,-0.407,-0.183,-0.7738869565217391,-7.100768455134134,-6.693457770582794
1621784927600.216,-0.138,-0.4,-0.19,-0.4246869565217391,-7.124915263644773,-7.179180111008326
1621784927605.117,-0.084,-0.38,-0.176,-0.07557391304347827,-7.14905605920444,-7.664781498612395
1621784927610.018,-0.033,-0.356,-0.166,0.2735565217391306,-7.173198057354302,-8.150407076780759
1621784927610.993,-0.02603800936534821,-0.3536130317824051,-0.166,0.343,-7.178,-8.247
1621784927614.919,0.002,-0.344,-0.166,0.40871467123118677,-7.253385886997286,-8.256919195657538
1621784927619.819,0.04,-0.33,-0.18,0.4907343942758451,-7.347476437207007,-8.269299531211448
1621784927624.719,0.087,-0.307,-0.19,0.5727500308413521,-7.441562299531212,-8.281679249938318
1621784927626.825,0.10290561148210903,-0.29582308382338285,-0.19214940695704177,0.608,-7.482,-8.287
1621784927629.618,0.124,-0.281,-0.195,0.5231193928549392,-7.641349663725551,-8.12429746405874
1621784927634.517,0.168,-0.248,-0.204,0.3742296075769729,-7.920866246066515,-7.838899580428211
1621784927639.416,0.204,-0.213,-0.22,0.22534724193249828,-8.200368899241068,-7.553515919047325
1621784927642.652,0.2350467955746038,-0.19780688727200238,-0.24311995415130072,0.127,-8.385,-7.365
1621784927644.315,0.251,-0.19,-0.255,-0.024465338436371498,-8.450904765579184,-7.28868921880305
1621784927649.212,0.302,-0.197,-0.29,-0.47052197598691314,-8.644990478101176,-7.063958393777586
1621784927654.11,0.358,-0.222,-0.339,-0.9166898052409025,-8.839124571746042,-6.839171548504583
1621784927658.472,0.4025358460464652,-0.2700987137301825,-0.37730082759996014,-1.314,-9.012,-6.639
1621784927659.007,0.408,-0.276,-0.382,-1.3315903949135017,-9.019983333076128,-6.63270805105017
1621784927663.904,0.45,-0.349,-0.44,-1.4925521381502802,-9.093035201160513,-6.575133273661631
1621784927668.8,0.471,-0.428,-0.49,-1.6534817821262675,-9.166072501118844,-6.517569977931759
1621784927673.696,0.475,-0.496,-0.543,-1.8144114261022546,-9.239109801077177,-6.460006682201886
1621784927674.292,0.47073975266779694,-0.5019643462650842,-0.5495729530268276,-1.834,-9.248,-6.453
1621784927678.592,0.44,-0.545,-0.597,-1.5621021334403657,-9.14386311710766,-7.2635275402142705
1621784927683.488,0.396,-0.51,-0.642,-1.2525217203371515,-9.025293818889129,-8.18638675167495
1621784927688.383,0.353,-0.428,-0.686,-0.943003056593288,-8.906748170675229,-9.109061888295408
1621784927690.107,0.3202482294264339,-0.3977134164588529,-0.7064258354114713,-0.834,-8.865,-9.434
1621784927693.278,0.26,-0.342,-0.744,-0.6647125606102721,-9.034287439389727,-9.666068207788998
1621784927698.172,0.169,-0.284,-0.806,-0.40345026097161735,-9.295549739028383,-10.024220436085116
1621784927703.066,0.175,-0.241,-0.846,-0.1422009944717254,-9.556799005528275,-10.382354797862812
1621784927705.917,0.24492116555234006,-0.2398346472407943,-0.8512440874164254,0.01,-9.709,-10.591
1621784927707.959,0.295,-0.239,-0.855,0.06064314731005082,-9.719076952781082,-10.539064935666733
1621784927712.853,0.513,-0.29,-0.899,0.1820195857339244,-9.743228386957261,-10.414592159527965
1621784927717.745,0.799,-0.368,-0.967,0.30334758499250863,-9.767370182728103,-10.290169058247479
1621784927721.723,1.0265899226739834,-0.4346513344973809,-1.0238974806684957,0.402,-9.787,-10.189
1621784927722.639,1.079,-0.45,-1.037,0.4451803997899095,-9.539161893286373,-10.105479253560725
1621784927727.531,1.302,-0.513,-1.093,0.6757904347020114,-8.215553155992215,-9.659426823616647
1621784927732.422,1.436,-0.583,-1.133,0.9063544350727593,-6.892208638428029,-9.213463434980072
1621784927737.314,1.477,-0.648,-1.171,1.1369529613495226,-5.568665956066364,-8.767433265362868
1621784927737.527,1.4742547169811322,-0.6491765498652291,-1.1729173405211142,1.147,-5.511,-8.748
1621784927742.205,1.414,-0.675,-1.215,0.6041879172848664,-4.2971501761869435,-8.135004358308604
1621784927747.095,1.286,-0.721,-1.253,0.03678625741839747,-3.02831253090999,-7.494239799703264
1621784927751.985,1.098,-0.768,-1.306,-0.530643731454006,-1.759411535608308,-6.85344324925816
1621784927753.324,1.0383109491237705,-0.7742974686704279,-1.3125712716560987,-0.686,-1.412,-6.678
1621784927756.875,0.88,-0.791,-1.33,-0.7986264663606436,-1.4340307259547764,-6.316516251680809
1621784927761.766,0.648,-0.801,-1.344,-0.953755969768628,-1.4643754192361786,-5.818615570083924
1621784927766.655,0.445,-0.756,-1.353,-1.1088157833727454,-1.4947064805798984,-5.320938563546159
1621784927769.12,0.3612828030567904,-0.7116197992108286,-1.3343401428500075,-1.187,-1.51,-5.07
1621784927771.543,0.279,-0.668,-1.316,-0.967325728065294,-1.729674271934706,-5.2143529957336305
1621784927776.432,0.094,-0.581,-1.236,-0.5240591726952329,-2.1729408273047675,-5.50563360230013
1621784927781.32,-0.099,-0.476,-1.147,-0.08085902429975889,-2.616140975700241,-5.796870571322575
1621784927784.914,-0.2534083712102293,-0.418648319264772,-1.0771485939763248,0.245,-2.942,-6.011
1621784927786.208,-0.309,-0.398,-1.052,0.3076981304220081,-3.110014597862898,-6.15975438786398
1621784927791.095,-0.483,-0.346,-0.953,0.5444959562064113,-3.7445708630367887,-6.7215688372740345
1621784927795.982,-0.621,-0.311,-0.846,0.7812937819908145,-4.37912712821068,-7.283383286684089
1621784927800.702,-0.7137381202218558,-0.3158301104282217,-0.7368395043221906,1.01,-4.992,-7.826
1621784927800.868,-0.717,-0.316,-0.733,1.0150587725810443,-5.018808339519921,-7.839924771096263
1621784927805.754,-0.791,-0.358,-0.634,1.1639429132640435,-5.807801426008414,-8.249743071022024
1621784927810.64,-0.817,-0.428,-0.529,1.3128270539470428,-6.596794512496907,-8.659561370947785
1621784927815.527,-0.792,-0.499,-0.403,1.4617483914872558,-7.385984719128929,-9.069482058896313
1621784927816.487,-0.7758860512769254,-0.5117732520365835,-0.37725698435703936,1.491,-7.541,-9.15
1621784927820.412,-0.71,-0.564,-0.272,1.3713805745046175,-7.945865747830526,-9.379042600584715
1621784927825.296,-0.59,-0.621,-0.145,1.2225426701935125,-8.449624808575804,-9.664031602394543
1621784927830.181,-0.435,-0.679,-0.047,1.073667563846737,-8.953509783903353,-9.949091837208224
1621784927832.27,-0.3610004498875281,-0.7038090977255687,-0.017913471632091976,1.01,-9.169,-10.071
1621784927835.065,-0.262,-0.737,0.021,0.7910249775604321,-9.016107245659105,-10.23434544554149
1621784927839.948,-0.089,-0.799,0.08,0.40844990559905914,-8.748985654152094,-10.519729115726268
1621784927844.832,0.077,-0.855,0.138,0.025798322448853273,-8.481810640997864,-10.80516985979139
1621784927848.046,0.17309239538023102,-0.8767195140242988,0.1597195140242988,-0.226,-8.306,-10.993
1621784927849.715,0.223,-0.888,0.171,-0.3068498769483183,-8.13371780147662,-10.938077112387203
1621784927854.598,0.326,-0.934,0.187,-0.5433567570077545,-7.629747643444208,-10.777413407215937
1621784927859.48,0.4,-0.953,0.168,-0.7798281610351819,-7.125853080935502,-10.616773801600447
1621784927863.819,0.4604372655898385,-0.9450009501425213,0.1502243336500475,-0.99,-6.678,-10.474
1621784927864.362,0.468,-0.944,0.148,-0.9643473346854727,-6.651004443481088,-10.424347458545572
1621784927869.243,0.541,-0.908,0.143,-0.7337501741782657,-6.408335753766121,-9.978010404248401
1621784927874.124,0.604,-0.871,0.133,-0.5031414791992445,-6.165654925761353,-9.531651024168202
1621784927879.006,0.663,-0.834,0.12,-0.27248664633296693,-5.922925544597377,-9.08520234095589
1621784927879.588,0.666338202921753,-0.8252968280968581,0.11833089853912347,-0.245,-5.894,-9.032
1621784927883.886,0.691,-0.761,0.106,-0.06863925618555103,-5.757708853311863,-8.395792927259778
1621784927888.766,0.693,-0.677,0.099,0.13160356733657452,-5.602961694484873,-7.673433189855387
1621784927893.646,0.648,-0.599,0.099,0.331836373207816,-5.448222277273713,-6.95110959031369
1621784927895.356,0.6245178142514011,-0.5706110888710969,0.10145336269015212,0.402,-5.394,-6.698
1621784927898.525,0.581,-0.518,0.106,0.5242385031210793,-5.33288074843946,-6.358828363872926
1621784927903.404,0.518,-0.436,0.113,0.7124462446368551,-5.238776877681572,-5.836613791607937
1621784927908.282,0.44,-0.349,0.129,0.9006068989018138,-5.144696550549093,-5.314529870974737
1621784927911.118,0.38825705705705704,-0.30365225225225223,0.14004624624624623,1.01,-5.09,-5.011
1621784927913.16,0.351,-0.271,0.148,1.0900779562812746,-5.079763497498025,-4.919519357387411
1621784927918.038,0.257,-0.19,0.18,1.281378487660537,-5.055309222451161,-4.700978620892655
1621784927922.915,0.15,-0.115,0.216,1.4726311484298749,-5.030861066786472,-4.482492571534803
1621784927926.877,0.07526151381657989,-0.057321385662795356,0.257431117340809,1.628,-5.011,-4.305
1621784927927.792,0.058,-0.044,0.267,1.606337945674574,-5.017852875094907,-4.3141178083889855
1621784927932.67,-0.01,0.03,0.311,1.49086093248834,-5.054384477121651,-4.362723414475417
1621784927937.546,-0.052,0.098,0.344,1.3754301563444224,-5.090901451880317,-4.41130955885771
1621784927942.422,-0.079,0.157,0.367,1.2599936005702155,-5.127420255047491,-4.4598981359530185
1621784927942.633,-0.07951912677748849,0.15864390146204688,0.3676489084718606,1.255,-5.129,-4.462
1621784927947.298,-0.091,0.195,0.382,0.9558080119062383,-5.056423725660424,-4.528947910207119
1621784927952.173,-0.094,0.23,0.391,0.6431501922361403,-4.980580987225599,-4.598908966885774
1621784927957.048,-0.091,0.255,0.401,0.33049237256604247,-4.904738248790773,-4.66887002356443
1621784927958.381,-0.09182047685834502,0.2593758765778401,0.4048288920056101,0.245,-4.884,-4.688
1621784927961.922,-0.094,0.271,0.415,0.022335587017538405,-4.822148774171539,-4.601858110937088
1621784927966.796,-0.091,0.278,0.419,-0.28413501946128683,-4.737018050149643,-4.483294229844774
1621784927971.671,-0.105,0.291,0.421,-0.5906823855970972,-4.651866004000807,-4.364700652844759
1621784927974.125,-0.12313349368610943,0.2940222489476849,0.4225111244738424,-0.745,-4.609,-4.305
1621784927976.543,-0.141,0.297,0.424,-0.844545408012905,-4.593945293232617,-4.231262660731181
1621784927981.417,-0.183,0.286,0.424,-1.0452041848272866,-4.563598749825503,-4.082626529757565
1621784927986.29,-0.218,0.283,0.422,-1.2458227575188845,-4.5332582866715265,-3.9340201796156413
1621784927989.865,-0.25248692122669875,0.27419482862297057,0.41686365003006615,-1.393,-4.511,-3.825
1621784927991.162,-0.265,0.271,0.415,-1.4212733535024435,-4.512648592040959,-3.8330781010006985
1621784927996.034,-0.33,0.248,0.414,-1.5274647273291444,-4.518840508882166,-3.863418493522613
1621784928000.905,-0.386,0.23,0.408,-1.6336401365293616,-4.525031494841362,-3.893754324722675
1621784928005.601,-0.4313019142112648,0.21650581278813388,0.38775871918220084,-1.736,-4.531,-3.923
1621784928005.777,-0.433,0.216,0.387,-1.7364363187785121,-4.535273686497222,-3.929253902492009
1621784928010.647,-0.471,0.195,0.372,-1.74850740154548,-4.653508394624957,-4.102272755485212
1621784928015.519,-0.504,0.185,0.365,-1.7605839307327065,-4.771796449740869,-4.275369673835459
1621784928020.389,-0.518,0.169,0.346,-1.7726550134996741,-4.890031157868603,-4.448388526828663
1621784928021.335,-0.5178057059767349,0.17016576413959086,0.3434741776975531,-1.775,-4.913,-4.482
1621784928025.258,-0.517,0.175,0.333,-1.6797400912505043,-5.032947686147925,-4.623643005679878
1621784928030.128,-0.492,0.169,0.323,-1.561490704242838,-5.181842856699463,-4.799469319345728
1621784928034.997,-0.447,0.168,0.309,-1.4432591017722463,-5.3307156336323285,-4.975269188987864
1621784928037.067,-0.42701574803149606,0.1731023622047244,0.30389763779527557,-1.393,-5.394,-5.05
1621784928039.865,-0.4,0.18,0.297,-1.3318006581602557,-5.482952531743814,-5.025627006302194
1621784928044.733,-0.36,0.202,0.286,-1.2253305703020707,-5.637705566421409,-4.983224674800534
1621784928049.601,-0.321,0.239,0.288,-1.1188551426531308,-5.792466362422775,-4.94082021669616
1621784928052.795,-0.31050238226591104,0.2652440443352224,0.29128050554190277,-1.049,-5.894,-4.913
1621784928054.469,-0.305,0.279,0.293,-1.067846687785335,-5.926369452467468,-4.88691277679431
1621784928059.337,-0.293,0.314,0.307,-1.122649678561446,-6.020494363178981,-4.811055529674835
1621784928064.204,-0.288,0.332,0.314,-1.1774444237398676,-6.114605111959999,-4.735209695953291
1621784928068.517,-0.2897727158697506,0.34440901108825445,0.311340926195374,-1.226,-6.198,-4.668
1621784928069.07,-0.29,0.346,0.311,-1.2184022797509046,-6.2014471138167195,-4.668
1621784928073.936,-0.288,0.387,0.312,-1.151545695960741,-6.231780193499294,-4.668
1621784928078.802,-0.29,0.421,0.312,-1.0846891121705775,-6.262113273181868,-4.668
1621784928083.667,-0.302,0.459,0.312,-1.0178459459879179,-6.292440265246222,-4.668
1621784928084.238,-0.3034085411752898,0.4639298941135143,0.3122347568625483,-1.01,-6.296,-4.668
1621784928088.532,-0.314,0.501,0.314,-0.9269410777810573,-6.2637600236123845,-4.7617145076351886
1621784928093.396,-0.333,0.534,0.309,-0.8328551721995247,-6.227239836577447,-4.867870644524879
1621784928098.262,-0.353,0.562,0.298,-0.7387314868034734,-6.190704985009243,-4.974069407981608
1621784928099.954,-0.36865816557056075,0.5679153069933229,0.2952163261207892,-0.706,-6.178,-5.011
1621784928103.125,-0.398,0.579,0.29,-0.8722851460534493,-6.132594468614046,-5.2941287134866375
1621784928107.989,-0.443,0.579,0.279,-1.1273589807333748,-6.062944453076445,-5.728435254816656
1621784928112.852,-0.51,0.55,0.251,-1.3823816034804226,-5.993308421379739,-6.162654599129894
1621784928115.667,-0.545309503489131,0.5216366283447964,0.23710773633214519,-1.53,-5.953,-6.414
1621784928117.715,-0.571,0.501,0.227,-1.5773269768743006,-5.982334903021261,-6.678666013925152
1621784928122.577,-0.634,0.466,0.197,-1.689672836628124,-6.051970766505035,-7.3069362489120975
1621784928127.439,-0.686,0.436,0.18,-1.802024337933607,-6.121610126818352,-7.935238033072237
1621784928131.376,-0.7110717688951301,0.40203179698079144,0.15573699784342243,-1.893,-6.178,-8.444
1621784928132.307,-0.717,0.394,0.15,-1.9252934866596974,-6.282275032953048,-8.530077451024955
1621784928137.301,-0.709,0.302,0.11,-2.0985417329515323,-6.841690211051013,-8.991866157598897
1621784928142.294,-0.665,0.204,0.068,-2.271747632683363,-7.400968652940017,-9.453541990515582
1621784928147.289,-0.586,0.096,0.047,-2.445029756223202,-7.960493220005151,-9.915420996015332
1621784928147.49,-0.5808087135103418,0.09241841474744511,0.047080485061855165,-2.452,-7.983,-9.934
1621784928152.282,-0.457,0.007,0.049,-1.9450321838732618,-8.734393424019125,-9.884402094145772
1621784928157.277,-0.293,-0.058,0.087,-1.4165748006476115,-9.517637231611918,-9.832701811193996
1621784928162.271,-0.122,-0.115,0.143,-0.8882465614550077,-10.300689630649579,-9.781014162719968
1621784928163.625,-0.0723950146627566,-0.11933704789833822,0.1619745845552297,-0.745,-10.513,-9.767
1621784928167.266,0.061,-0.131,0.213,-0.35349424296067666,-10.61251241432527,-9.441835852510856
1621784928172.26,0.25,-0.131,0.26,0.18346768946787095,-10.748996686487223,-8.995863434856943
1621784928177.254,0.417,-0.124,0.307,0.7204296218964187,-10.885480958649177,-8.549891017203032
1621784928179.761,0.48626304985337243,-0.1134599706744868,0.33360102639296185,0.99,-10.954,-8.326
1621784928182.249,0.555,-0.103,0.36,1.0883803356080437,-10.817840381909244,-8.062778631844937
1621784928187.243,0.658,-0.072,0.426,1.285845723191454,-10.544545809438787,-7.5344503926523325
1621784928192.237,0.723,-0.024,0.492,1.4833207644237316,-10.27123787619725,-7.006096324653119
1621784928195.896,0.7405809179334278,0.0214173713280219,0.5601260569920328,1.628,-10.071,-6.619
1621784928197.232,0.747,0.038,0.585,1.5606110413483214,-9.921651497042225,-6.758662374994326
1621784928202.226,0.703,0.108,0.707,1.308690621359517,-9.363341377067037,-7.280762803152942
1621784928207.221,0.637,0.169,0.796,1.0567332556696973,-8.80494937743014,-7.802939800596093
1621784928212.033,0.5416103832616348,0.24126486116542822,0.819124755572937,0.814,-8.267,-8.306
1621784928212.215,0.538,0.244,0.82,0.7957385357883111,-8.256819628727476,-8.33068345008094
1621784928217.211,0.358,0.3,0.867,0.29482118704328486,-7.977569042467888,-9.007757765102802
1621784928222.205,0.187,0.291,0.948,-0.20592480747991593,-7.698413982480294,-9.684600465981815
1621784928227.2,0.133,0.255,0.993,-0.7067442395267561,-7.419217982661846,-10.361542430064905
1621784928228.17,0.1508649071358749,0.2567476539589443,0.9902814271749756,-0.804,-7.365,-10.493
1621784928232.195,0.225,0.264,0.979,-1.2955722778567755,-7.580234335763773,-10.649624754182677
1621784928237.189,0.421,0.333,0.948,-1.9054534535443075,-7.847270081384443,-10.843945088191692
1621784928242.184,0.641,0.391,0.927,-2.5154837079841466,-8.114371100959065,-11.038312921671256
1621784928244.309,0.7269381201427245,0.3841930201867149,0.9159386578034118,-2.775,-8.228,-11.121
1621784928247.179,0.843,0.375,0.901,-2.710454098534239,-7.851393335249361,-11.049519414905687
1621784928252.174,1.004,0.33,0.848,-2.5981096371144625,-7.195895899196781,-10.925104887382957
1621784928257.17,1.115,0.274,0.834,-2.4857487028997562,-6.540302349150645,-10.800672117260888
1621784928260.449,1.1550435483870967,0.23395645161290324,0.839908064516129,-2.412,-6.11,-10.719
1621784928262.165,1.176,0.213,0.843,-2.250408905290541,-5.873247784264497,-10.428136029522973
1621784928267.16,1.183,0.154,0.864,-1.7800728394688283,-5.184143561511238,-9.58153111104389
1621784928272.155,1.159,0.086,0.883,-1.3097137844459903,-4.495005656553435,-8.734884812002782
1621784928276.591,1.1199228212522607,0.06202082213206901,0.8972098831809961,-0.892,-3.883,-7.983
1621784928277.15,1.115,0.059,0.899,-0.7810001361305644,-3.8949101538275377,-7.884845098543402
1621784928282.145,1.049,0.082,0.92,0.21116116346255642,-4.001367885287311,-7.007497224449049
1621784928287.14,0.981,0.152,0.99,1.203273970323537,-4.107820413534403,-6.130192231482462
1621784928292.135,0.895,0.222,1.072,2.1954352699166577,-4.214278144994177,-5.252844357388108
1621784928292.732,0.8792288897576231,0.2263012118842846,1.077854427286943,2.314,-4.227,-5.148
1621784928297.131,0.763,0.258,1.121,2.4077439278908686,-3.94631323916397,-5.153450228365748
1621784928302.126,0.571,0.265,1.115,2.514181966667675,-3.627617948640392,-5.159638486434167
1621784928307.122,0.347,0.264,1.077,2.6206460179667888,-3.3088447717854876,-5.165828256858535
1621784928308.875,0.2694409795200156,0.26505283738208124,1.0555923065643482,2.658,-3.197,-5.168
1621784928312.117,0.126,0.267,1.016,2.3802579928011856,-3.307253334744866,-5.3708340038111375
1621784928317.113,-0.08,0.286,0.937,1.952235367956202,-3.477162532893742,-5.683417410241675
1621784928322.108,-0.246,0.354,0.848,1.5243173225250293,-3.647030216871843,-5.9959244426968334
1621784928325.018,-0.3182283033620016,0.4052587959343237,0.7903338545738858,1.275,-3.746,-6.178
1621784928327.104,-0.37,0.442,0.749,1.056983452573624,-4.002011132455039,-6.371979156898038
1621784928332.099,-0.452,0.532,0.653,0.5349073102113049,-4.615071498797514,-6.8364938514361775
1621784928337.095,-0.506,0.634,0.555,0.01275461709497372,-5.2282217566893046,-7.30107665663334
1621784928341.159,-0.5190148553557467,0.7063951329163409,0.47528401094605166,-0.412,-5.727,-7.679
1621784928342.091,-0.522,0.723,0.457,-0.47540427720136724,-5.8306527118182645,-7.744078889258598
1621784928347.087,-0.51,0.784,0.377,-0.8152266251247768,-6.386191067485405,-8.092876508666324
1621784928352.082,-0.469,0.846,0.3,-1.1549991530294321,-6.9416479778577695,-8.44162299222602
1621784928357.078,-0.405,0.897,0.23,-1.4948215009528418,-7.49718633352491,-8.790420611633746
1621784928357.301,-0.4011142494136044,0.898563232994527,0.2272755082095387,-1.51,-7.522,-8.806
1621784928362.074,-0.318,0.932,0.169,-1.6347633306112572,-7.640850376553852,-9.174377037776365
1621784928367.07,-0.209,0.939,0.115,-1.7653595862444424,-7.765257236185464,-9.559976408674348
1621784928372.066,-0.096,0.901,0.072,-1.895949460121586,-7.889658016513929,-9.9455569367571
1621784928373.445,-0.06618706020328381,0.8863695758405004,0.06316653635652854,-1.932,-7.924,-10.052
1621784928377.062,0.012,0.848,0.04,-1.932,-7.765826361794151,-10.008087771829537
1621784928382.058,0.126,0.789,0.002,-1.932,-7.547340682938632,-9.947431691014124
1621784928387.054,0.244,0.728,-0.031,-1.932,-7.328865680670235,-9.886778574237063
1621784928389.589,0.2993096168881939,0.7005989053948397,-0.05078967943706021,-1.932,-7.218,-9.856
1621784928392.05,0.353,0.674,-0.07,-1.8557807183364838,-7.043000529300567,-9.634659206049148
1621784928397.046,0.452,0.625,-0.11,-1.7010510396975425,-6.687741187145558,-9.185324219281663
1621784928402.042,0.531,0.564,-0.148,-1.546313799621928,-6.332464483931947,-8.73596727410208
1621784928405.733,0.5575953870211102,0.5329720484753714,-0.17016282251759185,-1.432,-6.07,-8.404
1621784928407.038,0.567,0.522,-0.178,-1.3931132383631248,-5.989154341711279,-8.26292432628618
1621784928412.035,0.55,0.478,-0.197,-1.2442364425490728,-5.679639173698697,-7.722820358104225
1621784928417.031,0.504,0.438,-0.204,-1.0953814687112482,-5.370169373620059,-7.182795556967003
1621784928421.877,0.4700584815321477,0.39533066249755716,-0.2146673343756107,-0.951,-5.07,-6.659
1621784928422.028,0.469,0.394,-0.215,-0.9555028734763014,-5.064308218142222,-6.65055594204652
1621784928427.024,0.429,0.342,-0.215,-1.1043595777502193,-4.876148392365628,-6.371410937358217
1621784928432.021,0.391,0.286,-0.227,-1.253252654184689,-4.68794259096821,-6.0921977254166535
1621784928437.017,0.351,0.232,-0.257,-1.402116632890717,-4.49977357006745,-5.813039079277699
1621784928438.02,0.34116312368665397,0.22115936079753704,-0.2660338660020525,-1.432,-4.462,-5.757
1621784928442.013,0.302,0.178,-0.302,-1.4416470703893038,-4.498362034544299,-5.567769003902114
1621784928447.01,0.241,0.126,-0.34,-1.453720212347621,-4.5438684926948785,-5.33094968087359
1621784928452.006,0.159,0.075,-0.365,-1.4657909948879277,-4.589366057654496,-5.094176638736804
1621784928454.162,0.12362595867324508,0.05170489961408822,-0.3723336427140833,-1.471,-4.609,-4.992
1621784928457.004,0.077,0.021,-0.382,-1.386340974385339,-4.633112861765507,-4.965951069041643
1621784928462.0,0.0,-0.023,-0.403,-1.2375040070160583,-4.675505095714761,-4.920155079081864
1621784928466.997,-0.065,-0.082,-0.415,-1.088637947198113,-4.717905615870808,-4.87435013759942
1621784928470.308,-0.1146970733375678,-0.10983036106903796,-0.42427678702301264,-0.99,-4.746,-4.844
1621784928471.994,-0.14,-0.124,-0.429,-0.9439492627599244,-4.735766502835539,-4.853293686200378
1621784928476.99,-0.195,-0.178,-0.442,-0.8074710170132325,-4.705438003780719,-4.8808369149338375
1621784928481.987,-0.234,-0.223,-0.461,-0.6709660945179585,-4.675103576559546,-4.908385527410208
1621784928486.452,-0.2822509405384277,-0.2596349733717692,-0.4717224312307617,-0.549,-4.648,-4.933
1621784928486.984,-0.288,-0.264,-0.473,-0.5202400858745446,-4.655115855041349,-4.9287831970125335
1621784928491.981,-0.325,-0.283,-0.478,-0.25008959375897677,-4.721957213915305,-4.889173502865004
1621784928496.979,-0.368,-0.293,-0.473,0.020113693058978255,-4.788811635396035,-4.84955606791346
1621784928501.975,-0.436,-0.291,-0.457,0.2902113904721588,-4.855639931663214,-4.809954114569947
1621784928502.6,-0.44262920799335514,-0.2893739678506865,-0.4554990472467875,0.324,-4.864,-4.805
1621784928506.972,-0.489,-0.278,-0.445,0.4832214728564948,-4.978271193104491,-4.866197368818993
