time,gyro_x,gyro_y,gyro_z,acc_x,acc_y,acc_z
1621785579866.883,,,,-0.186,-5.649,-7.365
1621785579885.494,,,,0.01,-5.57,-7.12
1621785579903.541,0.681,0.738,1.08,0.3648940684528419,-5.476506401321563,-6.75461175210366
1621785579904.411,0.6773214949411522,0.7400599628329547,1.0798528597976462,0.382,-5.472,-6.737
1621785579909.453,0.656,0.752,1.079,0.5467249726928646,-5.477246018238627,-6.706048492392105
1621785579915.395,0.641,0.75,1.082,0.7408582823176773,-5.483428607717124,-6.669571214468972
1621785579921.365,0.628,0.764,1.091,0.9359008814489292,-5.489640155460157,-6.632923082785074
1621785579923.633,0.6227078450520833,0.7681581217447917,1.092134033203125,1.01,-5.492,-6.619
1621785579927.365,0.614,0.775,1.094,1.1374693321331233,-5.456262720976171,-6.652826194584052
1621785579933.395,0.597,0.791,1.101,1.343433288325457,-5.398518703273073,-6.707482296901958
1621785579939.453,0.59,0.798,1.117,1.5503478858800293,-5.340508163928687,-6.762390668366964
1621785579943.161,0.5833003970004411,0.8028724385451338,1.1200452740907088,1.677,-5.305,-6.796
1621785579945.541,0.579,0.806,1.122,1.740112578494206,-5.272812584967955,-6.813292846507412
1621785579951.657,0.562,0.82,1.136,1.9022864633909498,-5.190103903670615,-6.85772849096912
1621785579957.283,0.545,0.836,1.148,2.0514675341490256,-5.114021557583997,-6.898604104356833
1621785579962.017,0.5374322882789124,0.8435677117210876,1.1631354234421751,2.177,-5.05,-6.933
1621785579962.913,0.536,0.845,1.166,2.1808828177313515,-5.038941341904379,-6.93010017409937
1621785579968.55,0.517,0.85,1.178,2.2053107138074193,-4.969368220168742,-6.911856555510915
1621785579974.192,0.489,0.846,1.189,2.2297597696531404,-4.899734833266372,-6.893597134056515
1621785579979.841,0.466,0.857,1.199,2.2542405651533413,-4.830011048613901,-6.8753140083032
1621785579980.247,0.4639893777796969,0.8578616952372727,1.199861695237273,2.256,-4.825,-6.874
1621785579985.495,0.438,0.869,1.211,2.27264043564145,-4.791145320591533,-6.823504884950083
1621785579991.155,0.403,0.881,1.223,2.290586807965405,-4.7546337355186585,-6.769046927553254
1621785579996.822,0.374,0.901,1.243,2.3085556297047676,-4.718076477497197,-6.71452084779243
1621785579998.539,0.3600744662534435,0.9097791408402204,1.2496600378787879,2.314,-4.707,-6.698
1621785580002.494,0.328,0.93,1.265,2.284478316971293,-4.694286282491286,-6.693690265251284
1621785580008.172,0.29,0.951,1.279,2.242092039800995,-4.676032338308458,-6.687502487562189
1621785580013.855,0.241,0.965,1.295,2.199671136297124,-4.657763482054966,-6.681309654933886
1621785580016.892,0.21858558558558558,0.9735388245388246,1.3040725010725012,2.177,-4.648,-6.678
1621785580019.546,0.199,0.981,1.312,2.127572568671121,-4.673506283805281,-6.7035062838052815
1621785580025.241,0.152,1.002,1.328,2.0215013919821825,-4.728242721921731,-6.758242721921731
1621785580030.942,0.11,0.998,1.339,1.9153210838901262,-4.783035475660197,-6.813035475660198
1621785580035.308,0.08169769033361847,1.008708982035928,1.342824636441403,1.834,-4.825,-6.855
1621785580036.65,0.073,1.012,1.344,1.80052190113767,-4.837127641019543,-6.888478098862331
1621785580042.364,0.044,1.011,1.351,1.6579536871870086,-4.888773826984316,-7.031046312812991
1621785580048.083,0.03,1.014,1.351,1.5152636460934712,-4.94046414555833,-7.173736353906529
1621785580053.785,0.012072921108742005,1.0090202558635393,1.351,1.373,-4.992,-7.316
1621785580053.808,0.012,1.009,1.351,1.372398116438356,-4.992245258166491,-7.31640417544784
1621785580059.539,0.005,1.002,1.34,1.2236758561643835,-5.052847260273973,-7.416273801369863
1621785580065.277,0.0,0.991,1.337,1.0747698630136986,-5.113524130663857,-7.5162668071654375
1621785580071.019,0.0,0.99,1.326,0.9257625,-5.174242307692308,-7.616327884615385
1621785580072.32,0.0,0.987058051639205,1.322831747919144,0.892,-5.188,-7.639
1621785580076.768,0.0,0.977,1.312,0.774802173998661,-5.241815328265921,-7.669614942302391
1621785580082.523,0.0,0.97,1.293,0.623169968361493,-5.3114423614666615,-7.70922498785659
1621785580088.284,0.009,0.949,1.285,0.4713769445866646,-5.381143239730614,-7.7488770430467495
1621785580090.917,0.016762935049538488,0.9357573460919637,1.2767804217122534,0.402,-5.413,-7.767
1621785580094.05,0.026,0.92,1.267,0.33936887487406286,-5.416358237272169,-7.776906799952896
1621785580099.822,0.03,0.895,1.25,0.2239847043584074,-5.422545056066573,-7.795157915396391
1621785580105.601,0.042,0.874,1.225,0.10845900009159071,-5.428739463802059,-7.813431418216076
1621785580109.576,0.050246675952893505,0.8478855261491706,1.2153788780549577,0.029,-5.433,-7.826
1621785580111.385,0.054,0.836,1.211,0.030932656946871497,-5.427298662006729,-7.815563652486894
1621785580117.175,0.065,0.81,1.196,0.03711820244646723,-5.409051302782921,-7.7821617067890765
1621785580122.972,0.075,0.789,1.18,0.043311050833311604,-5.39078240004173,-7.748720325500117
1621785580128.297,0.075,0.7761505154639176,1.1735752577319587,0.049,-5.374,-7.718
1621785580128.774,0.075,0.775,1.173,0.053974696869273656,-5.374507622129517,-7.715512651565363
1621785580134.582,0.072,0.756,1.164,0.11457277086825997,-5.38069109906819,-7.68521361456587
1621785580140.396,0.066,0.726,1.15,0.17523197785488714,-5.386880814066825,-7.654884011072556
1621785580146.216,0.068,0.705,1.14,0.2359548650369735,-5.39307702704459,-7.624522567481513
1621785580147.083,0.06859533090238484,0.7005350182321136,1.137916341841653,0.245,-5.394,-7.62
1621785580152.041,0.072,0.675,1.126,0.28104768012852904,-5.398999313302497,-7.62
1621785580157.872,0.07,0.644,1.117,0.3234429328461668,-5.404878946891074,-7.62
1621785580163.71,0.07,0.62,1.098,0.36588788691517343,-5.410765473367798,-7.62
1621785580165.926,0.07379267120711988,0.6059671165336564,1.0938280616721683,0.382,-5.413,-7.62
1621785580169.553,0.08,0.583,1.087,0.3952363673927921,-5.381155985692703,-7.604845318492311
1621785580175.402,0.084,0.555,1.077,0.4165824154539468,-5.32980172513978,-7.580405640277365
1621785580181.258,0.087,0.529,1.061,0.43795341089575557,-5.2783874462507905,-7.555937399119353
1621785580184.833,0.08943989002749313,0.5064310172456886,1.0506304673831541,0.451,-5.247,-7.541
1621785580187.119,0.091,0.492,1.044,0.4723318616535159,-5.223257758498629,-7.511472846863778
1621785580192.985,0.089,0.471,1.035,0.5270752101327086,-5.162328720925743,-7.435698155466025
1621785580198.858,0.079,0.45,1.023,0.5818800731120236,-5.101331218061759,-7.359838316878838
1621785580203.8,0.0680719239234251,0.4373906814501059,1.0196375150533614,0.628,-5.05,-7.296
1621785580204.737,0.066,0.435,1.019,0.628,-5.039856851450344,-7.28733400900612
1621785580210.621,0.049,0.414,1.005,0.628,-4.976162212785611,-7.2329152885935315
1621785580216.511,0.023,0.393,0.995,0.628,-4.912404146407174,-7.178442377512925
1621785580222.408,-0.002,0.382,0.979,0.628,-4.848569438208013,-7.123903986041798
1621785580222.83,-0.004574725956566701,0.3814993588417787,0.977855677352637,0.628,-4.844,-7.12
1621785580228.31,-0.038,0.375,0.963,0.6334535619749108,-4.8695456324087925,-7.108518816894925
1621785580234.217,-0.082,0.38,0.955,0.6393320673648675,-4.897081789235432,-7.096143016073963
1621785580240.131,-0.126,0.375,0.946,0.6452176187005282,-4.9246509507551055,-7.083752381683099
1621785580241.922,-0.1387066974595843,0.375,0.9426720554272517,0.647,-4.933,-7.08
1621785580246.051,-0.168,0.375,0.935,0.5476190949649459,-5.044884359464627,-7.113845557680051
1621785580251.977,-0.206,0.375,0.911,0.4049823454429573,-5.20546673040153,-7.162422498406628
1621785580257.907,-0.23,0.37,0.89,0.2622515742511154,-5.366154952198853,-7.211031459528362
1621785580261.075,-0.237467894433939,0.3689331579380087,0.8761310531941133,0.186,-5.452,-7.237
1621785580263.846,-0.244,0.368,0.864,0.1294670461620564,-5.498726216947688,-7.300743789786661
1621785580269.789,-0.244,0.368,0.846,0.008217557591390201,-5.598942630970382,-7.4374587743484835
1621785580275.737,-0.232,0.361,0.817,-0.11313154851907853,-5.699241381939238,-7.574286082768961
1621785580280.289,-0.21594715263826822,0.361,0.7940673609118117,-0.206,-5.776,-7.679
1621785580281.692,-0.211,0.361,0.787,-0.24093628556228308,-5.788882755301092,-7.696832062422415
1621785580287.653,-0.194,0.353,0.757,-0.38939421883312647,-5.843626618194715,-7.772607465862742
1621785580293.62,-0.176,0.342,0.728,-0.5379980746332937,-5.898424290021027,-7.848457350594077
1621785580299.563,-0.16604864886962922,0.3370243244348146,0.6881945954785168,-0.686,-5.953,-7.924
1621785580299.592,-0.166,0.337,0.688,-0.6867812736730469,-5.9532794555830515,-7.924426695621434
1621785580305.571,-0.15,0.323,0.653,-0.8475660825210848,-6.010790944901773,-8.0122399373769
1621785580311.555,-0.14,0.311,0.609,-1.0084821978687946,-6.068349401545377,-8.100124892682189
1621785580317.545,-0.126,0.298,0.567,-1.1695624463410939,-6.125966567345084,-8.18809948992475
1621785580318.9,-0.12035148998534441,0.2984518808011724,0.5575105031753785,-1.206,-6.139,-8.208
1621785580323.542,-0.101,0.3,0.525,-1.352047912156699,-6.153629587126053,-8.261559166427585
1621785580329.272,-0.079,0.304,0.482,-1.532322683289429,-6.17168767116142,-8.327670118150282
1621785580335.002,-0.045,0.284,0.442,-1.7125974544221592,-6.189745755196787,-8.393781069872981
1621785580337.621,-0.029004430433671295,0.27485967453352644,0.4200632188804635,-1.795,-6.198,-8.424
1621785580340.733,-0.01,0.264,0.394,-1.7981935173341421,-6.18808328827819,-8.311890733585642
1621785580346.463,0.026,0.232,0.356,-1.804073938786544,-6.169823032189153,-8.105456991019741
1621785580352.194,0.056,0.201,0.321,-1.8099556129917054,-6.151558885973126,-7.89897927023855
1621785580356.135,0.07250370622816733,0.17555678623157536,0.3093098747550481,-1.814,-6.139,-7.757
1621785580357.925,0.08,0.164,0.304,-1.7827720242098184,-6.117150085050833,-7.666023141738202
1621785580363.655,0.096,0.138,0.279,-1.6828101322573414,-6.047207708638264,-7.37480289304693
1621785580369.385,0.103,0.112,0.271,-1.5828482403048645,-5.977265332225695,-7.0835826443556575
1621785580374.65,0.09840583723902854,0.09913634426927993,0.2608928419258628,-1.491,-5.913,-6.816
1621785580375.115,0.098,0.098,0.26,-1.4803996413407527,-5.90832780400327,-6.806881682006382
1621785580380.847,0.087,0.087,0.248,-1.3497564809198555,-5.850745747514439,-6.694503797568501
1621785580386.577,0.072,0.084,0.251,-1.2191578364408344,-5.793183311796198,-6.582164205279676
1621785580392.307,0.042,0.084,0.248,-1.0885591919618134,-5.735620876077956,-6.469824612990849
1621785580393.165,0.03616038338658147,0.08370053248136315,0.2474010649627263,-1.069,-5.727,-6.453
1621785580398.038,0.003,0.082,0.244,-1.0018920825367525,-5.755422176807964,-6.517476234425473
1621785580403.769,-0.028,0.072,0.241,-0.9229696749950557,-5.788848137649153,-6.593303645592986
1621785580409.499,-0.059,0.072,0.244,-0.8440607159338123,-5.822268402663327,-6.669118135671436
1621785580411.682,-0.06699867938996336,0.07314266848428047,0.24552355797904063,-0.814,-5.835,-6.698
1621785580415.23,-0.08,0.075,0.248,-0.855394730595775,-5.915873038478782,-6.786347087058576
1621785580420.96,-0.101,0.054,0.244,-0.9222449560882982,-6.0464785716169525,-6.929022799799562
1621785580426.691,-0.106,0.049,0.227,-0.9891065748872537,-6.177106363900097,-7.071722828810296
1621785580430.196,-0.10110626331487005,0.0392125266297401,0.2227179804005113,-1.03,-6.257,-7.159
1621785580432.421,-0.098,0.033,0.22,-1.0647138622493462,-6.3084596338273755,-7.2009255448997385
1621785580438.152,-0.075,0.016,0.206,-1.154136436188049,-6.44101915364496,-7.3089253437059885
1621785580443.713,-0.042,0.002,0.192,-1.2409001408356248,-6.569637180604922,-7.413713902488096
1621785580448.398,-0.020930610452349584,-0.01569828722002635,0.18020114185331576,-1.314,-6.678,-7.502
1621785580449.272,-0.017,-0.019,0.178,-1.3273969273476942,-6.686622749601971,-7.498200144243199
1621785580454.827,0.017,-0.035,0.159,-1.4125422591750922,-6.741425381359969,-7.474049831943065
1621785580460.379,0.044,-0.068,0.145,-1.497642685100766,-6.796199110046675,-7.449912256589601
1621785580465.927,0.065,-0.087,0.129,-1.5826832364908079,-6.850934301304993,-7.425791663831698
1621785580466.339,0.06611463285789752,-0.08937788343018137,0.12825691142806833,-1.589,-6.855,-7.424
1621785580471.473,0.08,-0.119,0.119,-1.6592481660257983,-6.8971488996154795,-7.342282745643459
1621785580477.015,0.091,-0.147,0.106,-1.735081976601489,-6.942649185960893,-7.2540679047696965
1621785580482.554,0.101,-0.171,0.093,-1.810875698819166,-6.988125419291499,-7.165899697291991
1621785580484.244,0.10313679661315929,-0.17832615981654615,0.08903166343270418,-1.834,-7.002,-7.139
1621785580488.09,0.108,-0.195,0.08,-1.8761828415300545,-6.9914542896174865,-7.113819426229508
1621785580493.623,0.117,-0.22,0.073,-1.9368651912568304,-6.976283702185793,-7.077595778688525
1621785580499.152,0.122,-0.236,0.065,-1.9975046994535517,-6.961123825136612,-7.041397704918033
1621785580502.115,0.12414473800477158,-0.24779605902624371,0.05749341698329946,-2.03,-6.953,-7.022
1621785580504.678,0.126,-0.258,0.051,-2.0482476458994854,-6.9304418865652035,-7.024729962772364
1621785580510.201,0.126,-0.279,0.04,-2.0875692543523487,-6.881831709186467,-7.030612723092084
1621785580515.72,0.129,-0.304,0.033,-2.1268630515712252,-6.833255912624549,-7.03649132267601
1621785580519.953,0.13206840102645784,-0.32547880718520483,0.030698699230156622,-2.157,-6.796,-7.041
1621785580521.238,0.133,-0.332,0.03,-2.155628283022232,-6.779034026853922,-7.0438156295859455
1621785580526.751,0.129,-0.354,0.026,-2.1497440236994776,-6.706255029967221,-7.055893846090546
1621785580532.26,0.131,-0.375,0.026,-2.143863933729239,-6.633527601387955,-7.06796350445051
1621785580537.754,0.1260128540401578,-0.3979408714152742,0.029989716767873764,-2.138,-6.561,-7.08
1621785580537.768,0.126,-0.398,0.03,-2.1377878917516524,-6.560882339952803,-7.079984792238798
1621785580543.271,0.131,-0.412,0.031,-2.0553582379973228,-6.515157211266439,-7.074074741592261
1621785580548.771,0.129,-0.421,0.045,-1.9729724687081682,-6.469456426038116,-7.068167837379076
1621785580554.206,0.124,-0.435,0.058,-1.8915594717304003,-6.424295254129693,-7.062330679105198
1621785580555.445,0.12308710707379593,-0.43728223231551017,0.059141116157755094,-1.873,-6.414,-7.061
1621785580559.635,0.12,-0.445,0.063,-1.816811892223244,-6.409218033380702,-7.035177380255789
1621785580565.061,0.119,-0.454,0.072,-1.7440476051157736,-6.40302532809496,-7.001736771712781
1621785580570.481,0.115,-0.459,0.087,-1.6713651676001002,-6.396839588731924,-6.9683337791523865
1621785580572.969,0.11683687815428984,-0.45762234138428265,0.09021453677000721,-1.638,-6.394,-6.953
1621785580575.899,0.119,-0.456,0.094,-1.6230829725426663,-6.387463325046786,-6.933222368090277
1621785580581.312,0.11,-0.452,0.096,-1.5955235747604815,-6.375386735007402,-6.896682941817268
1621785580586.719,0.106,-0.443,0.098,-1.5679952515292868,-6.363323761906092,-6.86018471551074
1621785580590.45,0.10392917475947423,-0.4236722977550928,0.09869027508017526,-1.549,-6.355,-6.835
1621785580592.124,0.103,-0.415,0.099,-1.5245155151650935,-6.358744685915927,-6.81426020108102
1621785580597.524,0.098,-0.387,0.093,-1.4455381437813313,-6.370823578009914,-6.747361721791245
1621785580602.919,0.091,-0.353,0.094,-1.366632186966141,-6.382891547875767,-6.680523734841907
1621785580607.885,0.08086910259893146,-0.32721226116091645,0.0875530652902291,-1.294,-6.394,-6.619
1621785580608.311,0.08,-0.325,0.087,-1.2810410483904933,-6.394955385846448,-6.616378813190515
1621785580613.697,0.072,-0.304,0.087,-1.1172087094464644,-6.407033762441565,-6.583240703044937
1621785580619.079,0.066,-0.283,0.101,-0.953495191835245,-6.419103379051844,-6.550126626703915
1621785580624.458,0.052,-0.262,0.113,-0.7898782165569329,-6.431165878174442,-6.5170320778290955
1621785580625.276,0.05078248228239142,-0.2609346719970925,0.11513065600581501,-0.765,-6.433,-6.512
1621785580629.832,0.044,-0.255,0.127,-0.6772715270935961,-6.402006108374384,-6.5169905418719205
1621785580635.201,0.038,-0.244,0.14,-0.5738937086558762,-6.365483406052076,-6.522871315974665
1621785580640.566,0.038,-0.22,0.147,-0.4705911048557354,-6.328987276565799,-6.528747811400422
1621785580642.622,0.03761653690297318,-0.21041342257432954,0.1489173154851341,-0.431,-6.315,-6.531
1621785580645.928,0.037,-0.195,0.152,-0.3918033747528947,-6.315,-6.519719020050833
1621785580651.285,0.038,-0.169,0.161,-0.32828868963569613,-6.315,-6.501439183846371
1621785580656.638,0.042,-0.145,0.162,-0.264820319118893,-6.315,-6.483172677209828
1621785580659.912,0.04077076076993584,-0.12533217231897342,0.16999005499541706,-0.226,-6.315,-6.472
1621785580661.965,0.04,-0.113,0.175,-0.1650980999176347,-6.341987900820813,-6.46507390155926
1621785580667.288,0.042,-0.066,0.175,-0.007190604674941065,-6.411962594791105,-6.44711579425715
1621785580672.606,0.047,-0.026,0.188,0.150564798773041,-6.481869891220995,-6.429174983668948
1621785580677.104,0.06223624000735092,0.00024019112377101845,0.1990039511164201,0.284,-6.541,-6.414
1621785580677.92,0.065,0.005,0.201,0.29380505312330873,-6.549424730110805,-6.416760646025009
1621785580683.229,0.082,0.044,0.215,0.35760537784487423,-6.604243455721082,-6.434723844247586
1621785580688.532,0.108,0.075,0.225,0.4213323553707238,-6.658999159711739,-6.452666391317971
1621785580693.833,0.147,0.119,0.232,0.4850358617939442,-6.713734696784117,-6.470602330019655
1621785580694.246,0.1501986351899668,0.12173054223533751,0.23215603098487644,0.49,-6.718,-6.472
1621785580699.128,0.188,0.154,0.234,0.42573907702855185,-6.653453472926456,-6.444010797994658
1621785580704.418,0.232,0.195,0.227,0.356104866239127,-6.583509776755745,-6.4136812306285975
1621785580709.703,0.278,0.236,0.213,0.2865381429163155,-6.513633867995944,-6.38338105780355
1621785580711.339,0.29193926788685526,0.25210759844703273,0.20959262340543539,0.265,-6.492,-6.374
1621785580714.985,0.323,0.288,0.202,0.2021082908382513,-6.385041310949407,-6.288005214003323
1621785580720.261,0.351,0.326,0.188,0.11110187360339194,-6.230268492522775,-6.163567867988312
1621785580725.534,0.367,0.365,0.173,0.020145992093049875,-6.075581619205867,-6.039199621841518
1621785580728.383,0.367,0.38393251135626216,0.16704978214517474,-0.029,-5.992,-5.972
1621785580730.801,0.367,0.4,0.162,-0.07651484508539336,-5.940359614473061,-5.889773711199529
1621785580736.063,0.34,0.433,0.157,-0.17991624412875795,-5.827980249644494,-5.710833565549635
1621785580741.322,0.304,0.469,0.15,-0.28326007268130826,-5.71566345394217,-5.531993047874862
1621785580745.38,0.2630577709611452,0.4898573619631902,0.14459253578732106,-0.363,-5.629,-5.394
1621785580746.575,0.251,0.496,0.143,-0.3913481956349492,-5.620678887848447,-5.375312756608802
1621785580751.823,0.201,0.524,0.133,-0.515837023698048,-5.584137391053806,-5.293249225671684
1621785580757.067,0.141,0.552,0.122,-0.6402274004177771,-5.5476247929121945,-5.211250594251963
1621785580762.307,0.082,0.583,0.11,-0.764525117049629,-5.511139393502845,-5.129313044730965
1621785580762.327,0.08172476807608037,0.5830802759778099,0.10998470933756002,-0.765,-5.511,-5.129
1621785580767.544,0.01,0.604,0.106,-0.8952178741101212,-5.565617449567515,-5.210771887770574
1621785580772.776,-0.052,0.627,0.096,-1.0258074684842096,-5.620390810241007,-5.2927772017732595
1621785580778.005,-0.113,0.642,0.087,-1.1563239375604684,-5.675133499877258,-5.374736595861432
1621785580779.234,-0.12617677853603815,0.6452941946340095,0.08511760306628026,-1.187,-5.688,-5.394
1621785580783.228,-0.169,0.656,0.079,-1.2310631923427795,-5.773994294733488,-5.635636861234596
1621785580788.446,-0.216,0.653,0.07,-1.2886281440507392,-5.886338797260313,-5.951315628665344
1621785580793.66,-0.255,0.654,0.065,-1.3461473088228906,-5.998593941412415,-6.2667433064481095
1621785580796.094,-0.27369141357330334,0.6502617172853393,0.06733642669666293,-1.373,-6.051,-6.414
1621785580798.869,-0.295,0.646,0.07,-1.3503874996369551,-6.1544893264790455,-6.64375620806831
1621785580804.073,-0.328,0.62,0.08,-1.3079796113967064,-6.348575063169818,-7.074645116319596
1621785580809.274,-0.356,0.588,0.099,-1.2655975864773024,-6.54254243269147,-7.505271238128431
1621785580812.906,-0.36089397998026224,0.5579369801212464,0.10878795996052447,-1.236,-6.678,-7.806
1621785580814.469,-0.363,0.545,0.113,-1.2487747207131101,-6.715484946910002,-7.959669633103689
1621785580819.659,-0.365,0.48,0.134,-1.2911934981138122,-6.839954644100383,-8.46993346636177
1621785580824.846,-0.353,0.41,0.14,-1.3335883303960265,-6.964354078972282,-8.979909259070451
1621785580829.668,-0.3185646498916219,0.32903039298840825,0.14465342569032136,-1.373,-7.08,-9.454
1621785580830.027,-0.316,0.323,0.145,-1.3755357622859814,-7.078753608367908,-9.472115657687139
1621785580835.204,-0.264,0.213,0.136,-1.4120896978904927,-7.0607864196809444,-9.73325945187869
1621785580840.376,-0.18,0.115,0.126,-1.448607432945714,-7.04283702448431,-9.994144626891837
1621785580845.543,-0.073,0.04,0.105,-1.4850906912873256,-7.024904575468942,-10.254783497925555
1621785580846.38,-0.054038388804841145,0.028169251134644475,0.10273108925869893,-1.491,-7.022,-10.297
1621785580850.707,0.044,-0.033,0.091,-1.2770198089433278,-6.897091660317646,-10.004075660786498
1621785580855.865,0.164,-0.082,0.082,-1.0219555177870245,-6.748200975795581,-9.654909980659909
1621785580861.018,0.271,-0.11,0.082,-0.7671326847564908,-6.599451239524117,-9.30607484029772
1621785580863.043,0.3071736986820897,-0.11078638475395847,0.07924765336114535,-0.667,-6.541,-9.169
1621785580866.168,0.363,-0.112,0.075,-0.4954782321221294,-6.380574486842299,-8.787213608780617
1621785580871.312,0.417,-0.101,0.079,-0.21313732202941565,-6.1164990522928635,-8.158757416359336
1621785580876.451,0.433,-0.087,0.077,0.0689221851628734,-5.852686815850952,-7.530927592236148
1621785580879.659,0.42862770356990065,-0.06451390407377477,0.0857445928601987,0.245,-5.688,-7.139
1621785580881.587,0.426,-0.051,0.091,0.31005287434238643,-5.607003934629157,-6.984921277943973
1621785580886.717,0.394,-0.017,0.108,0.4831510190247425,-5.391482809944149,-6.574935690181111
1621785580891.842,0.337,0.031,0.115,0.6560761726521169,-5.176177073048527,-6.1653598343624285
1621785580896.226,0.2745036471990465,0.08493520858164481,0.12270502979737782,0.804,-4.992,-5.815
1621785580896.963,0.264,0.094,0.124,0.8184527838952363,-4.995479373900705,-5.797959989358086
1621785580902.08,0.183,0.148,0.148,0.9188273201590375,-5.019643614112361,-5.679617171911258
1621785580907.191,0.106,0.208,0.18,1.0190773460248015,-5.043777879598563,-5.561421153760882
1621785580912.298,0.016,0.271,0.204,1.119255538968621,-5.067894851973928,-5.443309827512304
1621785580912.744,0.008837845594566154,0.2761532574380561,0.2064456136994164,1.128,-5.07,-5.433
1621785580917.402,-0.066,0.33,0.232,1.0391926714298418,-5.222443153182533,-5.607786398268654
1621785580922.499,-0.138,0.374,0.264,0.9420212564110165,-5.389243766861345,-5.799034597254751
1621785580927.592,-0.197,0.41,0.286,0.8449243129465476,-5.555916545610862,-5.990136224837687
1621785580929.214,-0.20592667946257198,0.42115834932821494,0.2942890595009597,0.814,-5.609,-6.051
1621785580932.68,-0.225,0.445,0.312,0.6567497918401333,-5.737333055786844,-6.3262406328059955
1621785580937.765,-0.234,0.466,0.318,0.4260363982395623,-5.925619959557512,-6.7300664922088735
1621785580942.844,-0.222,0.469,0.33,0.19558885452599029,-6.113689901272749,-7.133427025098133
1621785580945.634,-0.20275816616154327,0.47394790012988885,0.32780093327560494,0.069,-6.217,-7.355
1621785580947.919,-0.187,0.478,0.326,-0.030914176656527695,-6.267654813025586,-7.469985030118686
1621785580952.989,-0.131,0.464,0.316,-0.25261710502773305,-6.38005448201825,-7.725129182322419
1621785580958.054,-0.075,0.452,0.314,-0.4740958430249896,-6.4923404902487025,-7.9800153277270836
1621785580962.008,-0.02422639143435902,0.4371584836500434,0.3030641458474004,-0.647,-6.58,-8.179
1621785580963.116,-0.01,0.433,0.3,-0.6809289719626168,-6.577353540186916,-8.176353540186916
1621785580968.172,0.047,0.422,0.284,-0.835770093457944,-6.56527593271028,-8.16427593271028
1621785580973.223,0.105,0.396,0.267,-0.9904467289719627,-6.553211155140187,-8.152211155140188
1621785580978.27,0.152,0.367,0.251,-1.145011214953271,-6.5411551252336455,-8.140155125233646
1621785580978.335,0.1524894441216347,0.3667295177222545,0.2507552779391826,-1.147,-6.541,-8.14
1621785580983.312,0.19,0.346,0.232,-1.2153363393651735,-6.437285998220113,-7.970973390685257
1621785580988.35,0.215,0.314,0.213,-1.2845107089884307,-6.332300118659152,-7.799873954316227
1621785580993.531,0.23,0.281,0.194,-1.3556460694156036,-6.224338045090478,-7.623924102640166
1621785580994.795,0.23048818897637796,0.27343307086614177,0.18936220472440946,-1.373,-6.198,-7.581
1621785580998.709,0.232,0.25,0.175,-1.3500586843834417,-6.11302349419581,-7.468400277433015
1621785581003.884,0.222,0.215,0.157,-1.3197264072424617,-6.000670263561364,-7.319524509016573
1621785581009.057,0.215,0.185,0.143,-1.2894070088340512,-5.8883647368036796,-7.170711951522231
1621785581011.515,0.2054879777032453,0.17596357881808306,0.1349147810477585,-1.275,-5.835,-7.1
1621785581014.225,0.195,0.166,0.126,-1.241542706656913,-5.801542706656913,-7.050626130212143
1621785581019.391,0.183,0.15,0.113,-1.1777686027798098,-5.737768602779809,-6.956512889539137
1621785581024.554,0.159,0.127,0.101,-1.1140336795903438,-5.674033679590344,-6.862457468910022
1621785581028.202,0.13425690764572293,0.11356803557910673,0.09251665404996215,-1.069,-5.629,-6.796
1621785581029.714,0.124,0.108,0.089,-1.044937696987466,-5.620101487942534,-6.79418397713113
1621785581034.87,0.087,0.099,0.08,-0.9628951110459576,-5.589761210877373,-6.787992083852525
1621785581040.025,0.047,0.093,0.075,-0.8808719489848273,-5.559428116983068,-6.781801656527157
1621785581044.856,0.014168523346764633,0.08924783123963025,0.06186740933870585,-0.804,-5.531,-6.776
1621785581045.175,0.012,0.089,0.061,-0.797607816355305,-5.534954323816238,-6.779954323816238
1621785581050.322,-0.014,0.072,0.052,-0.694501454000705,-5.598737839266831,-6.843737839266831
1621785581055.467,-0.038,0.065,0.045,-0.591434217483257,-5.662497150746093,-6.907497150746093
1621785581060.608,-0.056,0.072,0.042,-0.4884501233697568,-5.726205028786277,-6.971205028786277
1621785581061.479,-0.05769501187648456,0.07013548693586698,0.04081349168646081,-0.471,-5.737,-6.982
1621785581065.747,-0.066,0.061,0.035,-0.4128578723529498,-5.797457522110871,-7.047602843141584
1621785581070.883,-0.063,0.063,0.035,-0.34289242564713845,-5.8702092034200115,-7.126546156902565
1621785581076.015,-0.063,0.066,0.031,-0.2729835180198078,-5.942902094094448,-7.205425676570571
1621785581078.069,-0.061398019896234945,0.06559950497405874,0.031,-0.245,-5.972,-7.237
1621785581081.144,-0.059,0.065,0.031,-0.23051466359977,-5.993913714041374,-7.275256144851889
1621785581086.27,-0.051,0.065,0.026,-0.20636745255894193,-6.030444110231344,-7.3390295483699735
1621785581091.393,-0.04,0.056,0.023,-0.18223404255319148,-6.066953627932351,-7.402766503000545
1621785581094.627,-0.02799895093223976,0.056,0.02173673167707787,-0.167,-6.09,-7.443
1621785581096.513,-0.021,0.056,0.021,-0.17373316984532658,-6.094450739389283,-7.440831691066759
1621785581101.631,-0.01,0.056,0.019,-0.19200555465276034,-6.106529095448434,-7.4349473637558905
1621785581106.744,0.005,0.052,0.021,-0.21025876408976082,-6.118594776262723,-7.429069211564315
1621785581111.153,0.015352042034869836,0.05717602101743492,0.017549319321710055,-0.226,-6.129,-7.424
1621785581111.855,0.017,0.058,0.017,-0.23017018190429675,-6.129425528765744,-7.420212793984874
1621785581116.964,0.033,0.051,0.01,-0.26052475467341596,-6.132522934150348,-7.392645886061898
1621785581122.068,0.037,0.051,0.012,-0.29084886698340806,-6.135617231324837,-7.365106641208945
1621785581127.169,0.045,0.052,0.003,-0.32115412281870254,-6.1387096043692555,-7.3375845211136275
1621785581127.648,0.046690569650550504,0.05171823839157491,0.003187841072283389,-0.324,-6.139,-7.335
1621785581132.269,0.063,0.049,0.005,-0.3293328588163768,-6.139,-7.279987351157376
1621785581137.364,0.068,0.038,0.005,-0.335212583596542,-6.139,-7.219333348161989
1621785581142.457,0.07,0.031,0.003,-0.34109005442116347,-6.139,-7.158702596497472
1621785581144.112,0.0693497050218236,0.030674852510911794,0.0013742625545589719,-0.343,-6.139,-7.139
1621785581147.547,0.068,0.03,-0.002,-0.357424336973479,-6.132937597503901,-7.110360374414976
1621785581152.633,0.068,0.031,-0.007,-0.37878096723868954,-6.123961622464899,-7.06795663026521
1621785581157.718,0.068,0.023,-0.005,-0.4001334967684421,-6.114987370923409,-7.025561028155412
1621785581160.544,0.0652202209414025,0.019664265129682997,-0.010003602305475505,-0.412,-6.11,-7.002
1621785581162.801,0.063,0.017,-0.014,-0.412,-6.107247651795948,-7.002
1621785581167.879,0.052,0.014,-0.016,-0.412,-6.1010555381890175,-7.002
1621785581172.954,0.047,0.01,-0.021,-0.412,-6.094866699414996,-7.002
1621785581176.945,0.04464033103979213,0.0021344367993071257,-0.02335966896020786,-0.412,-6.09,-7.002
1621785581178.028,0.044,0.0,-0.024,-0.41133849296887814,-6.093241384452497,-7.000676985937756
1621785581183.097,0.037,0.002,-0.033,-0.4082424133971577,-6.108412174353927,-6.994484826794316
1621785581188.163,0.042,0.0,-0.037,-0.4051479741719978,-6.123574926557211,-6.988295948343995
1621785581193.227,0.044,0.002,-0.037,-0.4020548770485692,-6.138731102462011,-6.982109754097139
1621785581193.317,0.04392896095748274,0.0019112011968534337,-0.0371420780850345,-0.402,-6.139,-6.982
1621785581198.286,0.04,-0.003,-0.045,-0.402,-6.1301790384529165,-6.98808342175661
1621785581203.344,0.04,0.002,-0.047,-0.402,-6.12119988641968,-6.994275940400221
1621785581208.397,0.044,-0.003,-0.051,-0.402,-6.112229835756879,-7.000462182236635
1621785581209.653,0.04424868287495771,-0.002253951375126879,-0.05174604862487312,-0.402,-6.11,-7.002
1621785581213.448,0.045,0.0,-0.054,-0.3838457438047466,-6.105345062514038,-6.9929228719023735
1621785581218.495,0.042,-0.007,-0.058,-0.359701190387063,-6.099154151381298,-6.980850595193531
1621785581223.54,0.035,-0.01,-0.061,-0.33556714831174667,-6.092965935464551,-6.968783574155873
1621785581225.958,0.035959318093762106,-0.012877954281286325,-0.06004068190623789,-0.324,-6.09,-6.963
1621785581228.581,0.037,-0.016,-0.059,-0.3112651762940735,-6.096286811702925,-6.96138799699925
1621785581233.619,0.031,-0.014,-0.068,-0.2868065866466617,-6.108361305326332,-6.958291972993249
1621785581238.654,0.028,-0.012,-0.065,-0.2623610352588147,-6.120429362340585,-6.95519759939985
1621785581242.23,0.023025520353209452,-0.015553199747707535,-0.06713191984862453,-0.245,-6.129,-6.953
1621785581243.686,0.021,-0.017,-0.068,-0.24150394552915183,-6.129,-6.959185327140732
1621785581248.714,0.009,-0.028,-0.07,-0.22943130270099651,-6.129,-6.980544618298238
1621785581253.74,0.0,-0.028,-0.075,-0.21736393560896422,-6.129,-7.001894575461064
1621785581258.473,0.0,-0.019518035974720467,-0.0797122022362664,-0.206,-6.129,-7.022
1621785581258.762,0.0,-0.019,-0.08,-0.20564328753916605,-6.129535068691251,-7.023747891058086
1621785581263.781,0.0,-0.03,-0.08,-0.19944962641600386,-6.138825560375994,-7.054096830561582
1621785581268.797,-0.007,-0.044,-0.082,-0.19325958062183657,-6.1481106290672445,-7.084428054953001
1621785581273.809,-0.012,-0.042,-0.086,-0.18707465654374547,-6.157388015184382,-7.114734182935647
1621785581274.68,-0.011130720865623629,-0.04234771165375055,-0.08617385582687527,-0.186,-6.159,-7.12
1621785581278.818,-0.007,-0.044,-0.087,-0.17602173617714983,-6.159,-7.12997826382285
1621785581283.824,-0.005,-0.047,-0.086,-0.16395127473622242,-6.159,-7.142048725263778
1621785581288.827,-0.01,-0.047,-0.087,-0.1518878775528687,-6.159,-7.154112122447131
1621785581290.854,-0.01162199648368822,-0.0506494920882985,-0.08862199648368821,-0.147,-6.159,-7.159
1621785581293.826,-0.014,-0.056,-0.091,-0.1398178544953934,-6.153475272688764,-7.166182145504607
1621785581298.823,-0.009,-0.059,-0.094,-0.1277416075399767,-6.144185851953828,-7.178258392460023
1621785581303.816,-0.009,-0.056,-0.087,-0.11567539069000468,-6.134904146684619,-7.190324609309996
1621785581306.992,-0.01090906422736389,-0.056,-0.09145448319718241,-0.108,-6.129,-7.198
1621785581308.807,-0.012,-0.056,-0.094,-0.1036046511627907,-6.1268586762075135,-7.20239534883721
1621785581313.793,-0.007,-0.065,-0.091,-0.0915295624753646,-6.120975940693127,-7.214470437524636
1621785581318.776,-0.005,-0.065,-0.089,-0.07946216003153331,-6.115096949758952,-7.226537839968467
1621785581323.096,-0.005,-0.06326511103485465,-0.089,-0.069,-6.11,-7.237
1621785581323.756,-0.005,-0.063,-0.089,-0.06817850252920357,-6.112793091400708,-7.234576582461151
1621785581328.734,0.0,-0.059,-0.087,-0.06198415640048002,-6.1338538682383685,-7.216303261381416
1621785581333.708,0.0,-0.072,-0.082,-0.05579436739530009,-6.15489915085598,-7.1980433838161355
1621785581338.679,-0.002,-0.068,-0.077,-0.04960852789719129,-6.1759310051495495,-7.179795157296715
1621785581339.168,-0.0020984323553982997,-0.0675078382230085,-0.0765078382230085,-0.049,-6.178,-7.178
1621785581343.647,-0.003,-0.063,-0.072,-0.05458545941667174,-6.183585459416672,-7.178
1621785581348.611,0.0,-0.063,-0.07,-0.06077586311879681,-6.189775863118797,-7.178
1621785581353.573,0.005,-0.063,-0.068,-0.06696352676124948,-6.19596352676125,-7.178
1621785581355.206,0.008615853358887414,-0.06234257211656592,-0.068,-0.069,-6.198,-7.178
1621785581358.541,0.016,-0.061,-0.068,-0.07294647608910515,-6.183668060518513,-7.19025484680301
1621785581363.512,0.016,-0.061,-0.066,-0.07882892115867103,-6.1623054968448265,-7.208521386755873
1621785581368.481,0.021,-0.066,-0.065,-0.08470905496844826,-6.140951326693529,-7.226780749638865
1621785581371.262,0.01987977577813837,-0.06543988788906918,-0.06668033633279245,-0.088,-6.129,-7.237
1621785581373.446,0.019,-0.065,-0.068,-0.08268530168933842,-6.138402927780401,-7.215604932441696
1621785581378.407,0.017,-0.066,-0.068,-0.07061346291528935,-6.159760796380642,-7.16700804301796
1621785581383.366,0.021,-0.066,-0.063,-0.058546376833671004,-6.1811102563711975,-7.118430286227855
1621785581387.289,0.022583152709359604,-0.06204211822660098,-0.063,-0.049,-6.198,-7.08
1621785581388.322,0.023,-0.061,-0.063,-0.04583535589442994,-6.20051879836974,-7.072443604890782
1621785581393.274,0.024,-0.056,-0.052,-0.030664361710247133,-6.212593671291844,-7.036218986124467
1621785581398.224,0.028,-0.052,-0.051,-0.015498603287997438,-6.224664376974859,-7.000006869075422
1621785581403.17,0.033,-0.051,-0.049,-0.00034630825357573336,-6.236724366900216,-6.963826899299354
1621785581403.283,0.033,-0.050839958520566886,-0.04890854772603822,0.0,-6.237,-6.963
1621785581408.114,0.033,-0.044,-0.045,-0.008777045318976462,-6.243053134702742,-6.968750477967605
1621785581413.054,0.035,-0.038,-0.047,-0.017751915694161912,-6.2492427004787325,-6.974630565454796
1621785581417.99,0.042,-0.033,-0.044,-0.026719689206344353,-6.255427371866444,-6.980506003273122
1621785581419.245,0.04072810489856507,-0.03172810489856507,-0.043491241959426025,-0.029,-6.257,-6.982
1621785581422.924,0.037,-0.028,-0.042,-0.03823840907349223,-6.247761590926507,-6.982
1621785581427.855,0.045,-0.028,-0.035,-0.05062066058701817,-6.235379339412981,-6.982
1621785581432.783,0.044,-0.026,-0.037,-0.062995555214959,-6.22300444478504,-6.982
1621785581435.174,0.04205799831457889,-0.02163049620780251,-0.03408699747186834,-0.069,-6.217,-6.982
1621785581437.708,0.04,-0.017,-0.031,-0.0720285499278189,-6.2077549528519205,-6.978971450072181
1621785581442.629,0.037,-0.014,-0.031,-0.07790998863531652,-6.1898010873237705,-6.973090011364683
1621785581447.547,0.04,-0.01,-0.028,-0.08378821758761557,-6.1718570199956995,-6.9672117824123845
1621785581451.071,0.03354824931710951,-0.007849416439036503,-0.028,-0.088,-6.159,-6.963
1621785581452.463,0.031,-0.007,-0.028,-0.08974713841344753,-6.157252861586552,-6.962126430793276
1621785581457.398,0.033,0.0,-0.023,-0.09594195614532416,-6.151058043854676,-6.959029021927338
1621785581462.33,0.03,-0.002,-0.024,-0.10213309633624983,-6.14486690366375,-6.955933451831875
1621785581467.004,0.026207794780369435,-0.002,-0.019259743475461794,-0.108,-6.139,-6.953
1621785581467.26,0.026,-0.002,-0.019,-0.1089497728807317,-6.139321956908723,-6.953466837517648
1621785581472.187,0.021,0.0,-0.021,-0.12722180958811613,-6.1455158676569885,-6.962448008102633
1621785581477.11,0.016,0.002,-0.023,-0.14547935976919774,-6.151704867718372,-6.9714220581916395
1621785581482.031,0.01,0.007,-0.016,-0.16372876127923394,-6.1578911055183845,-6.980392103001657
1621785581482.913,0.009103206910246228,0.007,-0.016179358617950754,-0.167,-6.159,-6.982
1621785581486.949,0.005,0.007,-0.017,-0.18199675564302847,-6.163829463681653,-7.002080401623716
1621785581491.864,0.005,0.005,-0.016,-0.20026030198659206,-6.169710944707546,-7.026534980626115
1621785581496.776,0.007,0.003,-0.012,-0.21851205486192263,-6.17558862783689,-7.050973768374439
1621785581498.791,0.006178869876641464,0.005463390370075607,-0.013642260246717072,-0.226,-6.178,-7.061
1621785581501.684,0.005,0.009,-0.016,-0.2331195292160276,-6.178,-7.068119529216028
1621785581506.59,0.003,0.009,-0.017,-0.24519268867561198,-6.178,-7.080192688675612
1621785581511.493,0.007,0.007,-0.024,-0.2572580376812041,-6.178,-7.092258037681204
1621785581514.639,0.005715958347865079,0.005715958347865079,-0.0207898958696627,-0.265,-6.178,-7.1
1621785581516.393,0.005,0.005,-0.019,-0.265,-6.180218174521094,-7.097781825478906
1621785581521.29,0.01,0.002,-0.021,-0.265,-6.186410539802108,-7.091589460197891
1621785581526.184,0.012,-0.007,-0.024,-0.265,-6.192599200407515,-7.0854007995924855
1621785581530.455,0.013746518244895922,-0.0008871861428642732,-0.02574651824489592,-0.265,-6.198,-7.08
1621785581531.075,0.014,0.0,-0.026,-0.26421464915943643,-6.197214649159437,-7.077722482562366
1621785581535.963,0.019,-0.007,-0.024,-0.2580218531062961,-6.191021853106296,-7.059763374008259
1621785581540.848,0.021,-0.012,-0.024,-0.2518327688334184,-6.184832768833418,-7.041815029616914
1621785581545.73,0.019,-0.005,-0.024,-0.2456473963408033,-6.1786473963408035,-7.02387744938833
1621785581546.241,0.019,-0.005733136509207366,-0.024209467574059246,-0.245,-6.178,-7.022
1621785581550.609,0.019,-0.012,-0.026,-0.23423542479828444,-6.172755719773523,-7.010959410049523
1621785581555.515,0.016,-0.016,-0.026,-0.22214475693855196,-6.166865394405961,-6.998558725065181
1621785581560.418,0.014,-0.012,-0.026,-0.21006130918403554,-6.160978586525555,-6.98616544531696
1621785581562.066,0.01030063275372428,-0.012672612226595586,-0.025327387773404413,-0.206,-6.159,-6.982
1621785581565.318,0.003,-0.014,-0.024,-0.206,-6.159,-6.982
1621785581570.216,0.003,-0.016,-0.028,-0.206,-6.159,-6.982
1621785581575.11,0.007,-0.016,-0.023,-0.206,-6.159,-6.982
1621785581577.887,0.005864700304436792,-0.016,-0.026973548934471226,-0.206,-6.159,-6.982
1621785581580.002,0.005,-0.016,-0.03,-0.20077680724754188,-6.159,-6.9899017531383345
1621785581584.891,0.0,-0.019,-0.024,-0.18870250757528909,-6.159,-7.008168001360461
1621785581589.777,-0.002,-0.03,-0.026,-0.17663604600828645,-6.159,-7.026422391936182
1621785581593.679,-0.005994701059788042,-0.01881483703259348,-0.027597880423915217,-0.167,-6.159,-7.041
1621785581594.661,-0.007,-0.016,-0.028,-0.1657540465606171,-6.161429609206796,-7.041
1621785581599.541,0.0,-0.014,-0.024,-0.15956176329362928,-6.173504561577423,-7.041
1621785581604.419,-0.002,-0.012,-0.023,-0.15337226808754512,-6.185574077229287,-7.041
1621785581609.294,0.0,-0.012,-0.024,-0.14718649029599912,-6.197636343922802,-7.041
1621785581609.441,9.04990980156344e-05,-0.012120665464020845,-0.02396983363399479,-0.147,-6.198,-7.041
1621785581614.166,0.003,-0.016,-0.023,-0.147,-6.203705512715086,-7.035294487284914
1621785581619.035,0.002,-0.021,-0.023,-0.147,-6.209584661215497,-7.029415338784503
1621785581623.903,0.0,-0.007,-0.019,-0.147,-6.215462925323114,-7.023537074676886
1621785581625.176,-0.0007852803855615242,-0.007785280385561524,-0.019,-0.147,-6.217,-7.022
1621785581628.766,-0.003,-0.01,-0.019,-0.13808358338904522,-6.221572521338951,-7.022
1621785581633.627,-0.002,-0.007,-0.019,-0.12601110091885756,-6.227763537990329,-7.022
1621785581638.486,0.0,-0.005,-0.017,-0.11394286291764485,-6.233952377990952,-7.022
1621785581640.879,-0.000985718595997184,-0.004014281404002816,-0.017,-0.108,-6.237,-7.022
1621785581643.341,-0.002,-0.003,-0.017,-0.11412516157164437,-6.240141108498279,-7.018858891501721
1621785581648.195,0.0,-0.002,-0.012,-0.12620056686340772,-6.246333624032516,-7.012666375967483
1621785581653.044,0.002,-0.01,-0.014,-0.13826321772849734,-6.252519598835127,-7.006480401164873
1621785581656.556,0.000550921728618918,-0.006377304321547296,-0.014,-0.147,-6.257,-7.002
1621785581657.891,0.0,-0.005,-0.014,-0.147,-6.257,-7.00532799188641
1621785581662.736,0.002,0.0,-0.014,-0.147,-6.257,-7.017404056795132
1621785581667.577,0.002,-0.005,-0.016,-0.147,-6.257,-7.029469776876268
1621785581672.203,0.00677977902224913,-0.005,-0.010264265173301045,-0.147,-6.257,-7.041
1621785581672.416,0.007,-0.005,-0.01,-0.14672705102551276,-6.25753225050025,-7.04046774949975
1621785581677.252,0.005,-0.005,-0.012,-0.14053395447723863,-6.269608788769385,-7.028391211230615
1621785581682.085,0.009,-0.003,-0.017,-0.13434460980490245,-6.28167801088044,-7.01632198911956
1621785581686.915,0.019,-0.007,-0.014,-0.12815901700850424,-6.293739916833417,-7.004260083166583
1621785581687.82,0.018437736993781283,-0.007562263006218717,-0.014374842004145811,-0.127,-6.296,-7.002
1621785581691.744,0.016,-0.01,-0.016,-0.12221726600676606,-6.296,-6.996965543165016
1621785581696.568,0.023,-0.01,-0.012,-0.11633705049492545,-6.296,-6.990775842626237
1621785581701.39,0.023,-0.007,-0.016,-0.11045981080065155,-6.296,-6.984589274527002
1621785581703.408,0.020487919769032064,-0.005325279846021375,-0.015162639923010687,-0.108,-6.296,-6.982
1621785581706.21,0.017,-0.003,-0.014,-0.10439824258590931,-6.299421669543387,-6.976777451749569
1621785581711.026,0.019,-0.003,-0.014,-0.09820775145143575,-6.305302636121136,-6.967801239604582
1621785581715.839,0.024,-0.009,-0.012,-0.09202071238035461,-6.311180323238664,-6.958830032951514
1621785581718.967,0.023349941651022374,-0.0076998833020447514,-0.012,-0.088,-6.315,-6.953
1621785581720.651,0.023,-0.007,-0.012,-0.08593993177280658,-6.315,-6.946602946031347
1621785581725.459,0.021,-0.005,-0.014,-0.08005752149785414,-6.315,-6.928336514124916
1621785581730.264,0.021,0.0,-0.014,-0.07417899419911651,-6.315,-6.910082139881467
1621785581734.497,0.016593198800386316,-0.0017627204798454736,-0.010474559040309053,-0.069,-6.315,-6.894
1621785581735.067,0.016,-0.002,-0.01,-0.06752930056710775,-6.315,-6.893264650283554
1621785581739.866,0.014,0.0,-0.005,-0.05514303717706365,-6.315,-6.887071518588532
1621785581744.663,0.01,0.002,-0.01,-0.042761814744801514,-6.315,-6.880880907372401
1621785581749.458,0.01,0.002,-0.007,-0.030386263390044105,-6.315,-6.874693131695022
1621785581749.995,0.009663677130044844,0.0015515695067264575,-0.007,-0.029,-6.315,-6.874
1621785581754.249,0.007,-0.002,-0.007,-0.023776071828696767,-6.320498871759267,-6.879498871759266
1621785581759.037,0.012,0.002,-0.003,-0.017896154513751913,-6.326688258406577,-6.885688258406577
1621785581763.823,0.009,0.002,-0.002,-0.012018935508812903,-6.332874804727566,-6.891874804727565
1621785581765.467,0.009,0.004406104844061048,-0.003031187790311878,-0.01,-6.335,-6.894
1621785581768.606,0.009,0.009,-0.005,-0.007967529798602548,-6.32707336621455,-6.90192663378545
1621785581773.387,0.012,0.003,-0.003,-0.004871794871794872,-6.315,-6.914
1621785581778.164,0.014,0.005,-0.002,-0.0017785892693414282,-6.302936498150432,-6.926063501849568
1621785581780.911,0.014,0.0061507619924312164,-0.002,0.0,-6.296,-6.933
1621785581782.938,0.014,0.007,-0.002,0.0,-6.296,-6.930501156307419
1621785581787.711,0.017,0.007,-0.002,0.0,-6.296,-6.924617452322119
1621785581792.48,0.016,0.007,0.0,0.0,-6.296,-6.918738563644427
1621785581796.324,0.012773896117201106,0.005386948058600553,0.0,0.0,-6.296,-6.914
1621785581797.246,0.012,0.005,0.0,0.001737929393097977,-6.293662784609282,-6.91280142800476
1621785581802.01,0.007,0.009,0.0,0.010716541055136851,-6.2815880999603335,-6.90660928203094
1621785581806.771,0.009,0.007,0.0,0.019689631098770328,-6.269520840936137,-6.900420944069814
1621785581811.528,0.002,0.003,0.002,0.02865535898452995,-6.257463482744942,-6.894237683458945
1621785581811.711,0.0019231006160164272,0.003422946611909651,0.0020384496919917867,0.029,-6.257,-6.894
1621785581816.284,0.0,0.014,0.003,0.03495551881468292,-6.257,-6.894
1621785581821.036,0.0,0.016,0.003,0.04114409487623802,-6.257,-6.894
1621785581825.786,-0.005,0.016,0.009,0.04733012733891866,-6.257,-6.894
1621785581827.068,-0.005540329218106996,0.015459670781893005,0.009,0.049,-6.257,-6.894
1621785581830.532,-0.007,0.014,0.009,0.05781340490260102,-6.257,-6.889480305178154
1621785581835.276,-0.012,0.023,0.01,0.06988369463071213,-6.257,-6.883290413009891
1621785581840.018,-0.016,0.033,0.012,0.08194963604797477,-6.257,-6.877102750744628
1621785581842.396,-0.01750564229401762,0.03500752305869016,0.014509403823362705,0.088,-6.257,-6.874
1621785581844.756,-0.019,0.037,0.017,0.07889779926908284,-6.2599312171845325,-6.8801709835463845
1621785581849.491,-0.026,0.037,0.019,0.060636903337003875,-6.265811844688083,-6.892551251974912
1621785581854.225,-0.03,0.042,0.019,0.04237883212843715,-6.27169156253491,-6.904929605336653
1621785581857.694,-0.02853318880974502,0.04346681119025498,0.020466811190254983,0.029,-6.276,-6.914
1621785581858.955,-0.028,0.044,0.021,0.02660470471591,-6.277651927782131,-6.919616554459245
1621785581863.682,-0.037,0.045,0.024,0.017625941502886475,-6.283844178273871,-6.940670206131163
1621785581868.407,-0.033,0.047,0.028,0.008650424575823965,-6.290034189947708,-6.961716245822206
1621785581872.961,-0.036858509593008223,0.04410611780524383,0.02414149040699178,0.0,-6.296,-6.982
1621785581873.128,-0.037,0.044,0.024,0.0,-6.295780821917808,-6.982219178082192
1621785581877.847,-0.031,0.044,0.031,0.0,-6.289587118481134,-6.988412881518865
1621785581882.563,-0.031,0.044,0.031,0.0,-6.283397260273973,-6.9946027397260275
1621785581887.276,-0.024,0.038,0.031,0.0,-6.277211567732116,-7.000788432267884
1621785581888.199,-0.024391874384619372,0.04015530911540654,0.030804062807690314,0.0,-6.276,-7.002
1621785581891.987,-0.026,0.049,0.03,-0.002490689610889945,-6.271267689739309,-6.99701862077822
1621785581896.695,-0.019,0.049,0.031,-0.005586233466033133,-6.265386156414537,-6.990827533067934
1621785581901.4,-0.021,0.04,0.035,-0.008679690509824067,-6.259508588031334,-6.984640618980352
1621785581903.408,-0.018864745586708205,0.042989356178608516,0.03585410176531672,-0.01,-6.257,-6.982
1621785581906.102,-0.016,0.047,0.037,-0.01,-6.253450741372101,-6.982
1621785581910.802,-0.019,0.052,0.038,-0.01,-6.247258917371586,-6.982
1621785581915.498,-0.023,0.04,0.037,-0.01,-6.241072239554855,-6.982
1621785581918.589,-0.01904796587243783,0.03868265529081261,0.040293361772968474,-0.01,-6.237,-6.982
1621785581920.191,-0.017,0.038,0.042,-0.007885662724372402,-6.237,-6.976819873674713
1621785581924.883,-0.023,0.044,0.038,-0.0016921787889529836,-6.237,-6.9616458380329345
1621785581929.571,-0.021,0.045,0.044,0.00449582675389127,-6.237,-6.9464852244529665
1621785581933.741,-0.022779722830051058,0.04855944566010212,0.046669584245076584,0.01,-6.237,-6.933
1621785581934.257,-0.023,0.049,0.047,0.01,-6.237682596060704,-6.933
1621785581938.939,-0.024,0.042,0.047,0.01,-6.243874717468518,-6.933
1621785581943.619,-0.035,0.047,0.049,0.01,-6.250064255731353,-6.933
1621785581948.297,-0.028,0.052,0.054,0.01,-6.256251533742331,-6.933
1621785581948.863,-0.02836324697033013,0.052847576264103635,0.05339458838278312,0.01,-6.257,-6.933
1621785581952.971,-0.031,0.059,0.049,0.00455619004480968,-6.262171619457431,-6.933
1621785581957.642,-0.026,0.059,0.056,-0.0016340165326690064,-6.2680523157060355,-6.933
1621785581962.311,-0.024,0.059,0.054,-0.007821311289774658,-6.2739302457252855,-6.933
1621785581963.955,-0.025409376308078695,0.06111406446211804,0.054704688154039345,-0.01,-6.276,-6.933
1621785581966.977,-0.028,0.065,0.056,-0.01782325867824847,-6.276,-6.954664408647457
1621785581971.641,-0.023,0.068,0.061,-0.029897546429844747,-6.276,-6.988100897805724
1621785581976.301,-0.019,0.066,0.058,-0.041961089683337116,-6.276,-7.021507632969241
1621785581979.02,-0.01783229357798165,0.0683354128440367,0.05975155963302752,-0.049,-6.276,-7.041
1621785581980.958,-0.017,0.07,0.061,-0.051577816747040775,-6.276,-7.041
1621785581985.613,-0.016,0.072,0.061,-0.05776970789289948,-6.276,-7.041
1621785581990.265,-0.01,0.066,0.063,-0.06395737736860052,-6.276,-7.041
1621785581994.056,-0.005922911305991704,0.066,0.06136916452239668,-0.069,-6.276,-7.041
1621785581994.914,-0.005,0.066,0.061,-0.069,-6.274913446676971,-7.03876970633694
1621785581999.561,0.0,0.063,0.065,-0.069,-6.269029675425038,-7.026692491661922
1621785582004.204,0.0,0.063,0.063,-0.069,-6.263150850077279,-7.014625429105995
1621785582008.845,-0.002,0.066,0.063,-0.069,-6.257274806800618,-7.002564077117058
1621785582009.062,-0.0022339843133126285,0.06609359372532506,0.063,-0.069,-6.257,-7.002
1621785582013.483,-0.007,0.068,0.063,-0.069,-6.245192103289752,-6.9960960516448765
1621785582018.118,-0.014,0.07,0.063,-0.069,-6.23281233086629,-6.989906165433145
1621785582022.75,-0.009,0.068,0.061,-0.069,-6.220440383424081,-6.983720191712041
1621785582024.038,-0.00927813801465549,0.0654967578681006,0.061,-0.069,-6.217,-6.982
1621785582027.381,-0.01,0.059,0.061,-0.069,-6.2214735208598775,-6.982
1621785582032.007,-0.009,0.066,0.072,-0.069,-6.2276638570355125,-6.982
1621785582036.632,-0.016,0.061,0.063,-0.069,-6.233852886405959,-6.982
1621785582038.984,-0.016,0.06710746552543985,0.06452686638135996,-0.069,-6.237,-6.982
1621785582041.253,-0.016,0.073,0.066,-0.07493185500368219,-6.2429318550036825,-6.990973831928648
1621785582045.871,-0.012,0.072,0.068,-0.08700490958186728,-6.255004909581867,-7.009238196546928
1621785582050.487,-0.005,0.07,0.063,-0.09907221994926765,-6.267072219949267,-7.027493871205302
1621785582053.902,-0.0012984916644614977,0.0662984916644615,0.0667015083355385,-0.108,-6.276,-7.041
1621785582055.1,0.0,0.065,0.068,-0.10639054069567214,-6.268113649408793,-7.045747904947768
1621785582059.71,0.0,0.073,0.066,-0.10019738589960149,-6.237767190908047,-7.0640177115961755
1621785582064.318,0.003,0.066,0.063,-0.09400652705118323,-6.207431982550798,-7.082280745199009
1621785582068.789,0.008825363164033505,0.06308731841798325,0.061058212278655495,-0.088,-6.178,-7.1
1621785582068.923,0.009,0.063,0.061,-0.088,-6.177828623533664,-7.0986740873394005
1621785582073.524,0.003,0.058,0.063,-0.088,-6.171945946834029,-7.053160746558013
1621785582078.124,-0.002,0.059,0.058,-0.088,-6.166064206617816,-7.007654651200999
1621785582082.719,-0.007,0.059,0.063,-0.088,-6.160189021785562,-6.962199273814609
1621785582083.649,-0.008416662238988364,0.05980952127942192,0.06219047872057808,-0.088,-6.159,-6.953
1621785582087.314,-0.014,0.063,0.059,-0.09763891998682911,-6.173334804082977,-6.948056964109319
1621785582091.904,-0.017,0.068,0.061,-0.10971068488640105,-6.1912876852156735,-6.941866315442871
1621785582096.491,-0.023,0.068,0.066,-0.12177410273296016,-6.209228152782351,-6.935679947316431
1621785582098.478,-0.022133411413969337,0.066700117120954,0.064700117120954,-0.127,-6.217,-6.933
1621785582101.077,-0.021,0.065,0.063,-0.13402443209000775,-6.224024432090007,-6.955478182688025
1621785582105.659,-0.024,0.066,0.063,-0.14640907666166258,-6.236409076661662,-6.99510904531732
1621785582110.239,-0.017,0.063,0.065,-0.1587884421861854,-6.248788442186185,-7.0347230149957936
1621785582113.277,-0.017,0.06432757241158585,0.06367242758841415,-0.167,-6.257,-7.061
1621785582114.816,-0.017,0.065,0.063,-0.17106295659647616,-6.258979389111103,-7.071209480678324
1621785582119.389,-0.012,0.065,0.058,-0.18313708637730985,-6.264861657465868,-7.10154960166606
1621785582123.96,-0.002,0.068,0.056,-0.19520605930382467,-6.270741413506991,-7.131876764404482
1621785582128.048,0.0060526315789473685,0.055473684210526314,0.05421052631578947,-0.206,-6.276,-7.159
1621785582128.529,0.007,0.054,0.054,-0.20534736876977355,-6.2747273691010585,-7.157074737870832
1621785582133.094,0.014,0.052,0.051,-0.1991530039257259,-6.2626483576551655,-7.138801361580891
1621785582137.657,0.017,0.049,0.051,-0.1929612893607858,-6.2505745142535325,-7.120535803614318
1621785582142.218,0.021,0.049,0.047,-0.1867722250749532,-6.238505838896159,-7.102278063971111
1621785582142.787,0.02124982583998714,0.048375435400032155,0.04662526124001929,-0.186,-6.237,-7.1
1621785582146.774,0.023,0.044,0.044,-0.17543059612320763,-6.226430596123208,-7.068020778013808
1621785582151.329,0.019,0.045,0.044,-0.16335442113648432,-6.214354421136485,-7.031482607541157
1621785582155.881,0.019,0.038,0.042,-0.1512866602496017,-6.202286660249602,-6.994969895114179
1621785582157.498,0.018288919905518574,0.038,0.04271108009448143,-0.147,-6.198,-6.982
1621785582160.429,0.017,0.038,0.044,-0.14300718407529975,-6.198,-6.9684244258560195
1621785582164.976,0.016,0.037,0.04,-0.1368125821096569,-6.198,-6.947362779172834
1621785582169.519,0.014,0.033,0.044,-0.13062363427735188,-6.198,-6.9263203565429965
1621785582172.179,0.011070606582060659,0.03417175736717574,0.041656485265648524,-0.127,-6.198,-6.914
1621785582174.059,0.009,0.035,0.04,-0.1295660163603952,-6.198,-6.914
1621785582178.597,0.002,0.033,0.038,-0.13575930893157623,-6.198,-6.914
1621785582183.132,-0.002,0.03,0.038,-0.14194893624110758,-6.198,-6.914
1621785582186.833,-0.004449873404083392,0.030816624468027798,0.0371833755319722,-0.147,-6.198,-6.914
1621785582187.664,-0.005,0.031,0.037,-0.1492161458333333,-6.1990796607905985,-6.9167843883547
1621785582192.194,-0.01,0.031,0.038,-0.16129622395833332,-6.204964827056624,-6.9319619224091875
1621785582196.72,-0.017,0.028,0.033,-0.173365234375,-6.210844601362179,-6.9471255508814105
1621785582201.243,-0.014,0.031,0.031,-0.18542643229166667,-6.2167205695779915,-6.962279363648505
1621785582201.458,-0.013904869884461721,0.030667044595616023,0.031,-0.186,-6.217,-6.963
1621785582205.765,-0.012,0.024,0.031,-0.1919010854839519,-6.234408202177658,-6.974507116693706
1621785582210.283,-0.01,0.024,0.03,-0.19809152185184564,-6.2526699894629445,-6.986578467611099
1621785582214.799,-0.01,0.016,0.023,-0.20427928214220006,-6.27092388231949,-6.99864460017729
1621785582216.055,-0.008608300416644121,0.01739169958335588,0.023278339916671175,-0.206,-6.276,-7.002
1621785582219.311,-0.005,0.021,0.024,-0.20152952218144032,-6.276,-7.006470477818559
1621785582223.821,0.0,0.014,0.021,-0.19533748973469423,-6.276,-7.012662510265306
1621785582228.328,0.0,0.012,0.016,-0.18914981480550389,-6.276,-7.018850185194497
1621785582230.622,0.0025467505013821888,0.014037400401105751,0.016,-0.186,-6.276,-7.022
1621785582232.832,0.005,0.016,0.016,-0.18007233528108,-6.27007233528108,-7.018960171939016
1621785582237.333,0.012,0.005,0.016,-0.1679995970179327,-6.257999597017933,-7.01276902411176
1621785582241.833,0.007,0.007,0.012,-0.15592947813822283,-6.245929478138223,-7.006579219558063
1621785582245.162,0.012184509260768018,0.008481288360219434,0.012,-0.147,-6.237,-7.002
1621785582246.328,0.014,0.009,0.012,-0.14386663974559588,-6.235393148587485,-6.998063214039338
1621785582250.822,0.01,0.003,0.009,-0.13178728988945534,-6.22919861019972,-6.982886594989315
1621785582255.312,0.012,0.009,0.012,-0.1197190954520216,-6.223009792539498,-6.967723991721771
1621785582259.672,0.010056586321345014,0.005113172642690027,0.012,-0.108,-6.217,-6.953
1621785582259.799,0.01,0.005,0.012,-0.10765811389460198,-6.216833440102498,-6.953
1621785582264.284,0.005,0.01,0.01,-0.09558032974813715,-6.210949391415759,-6.953
1621785582268.766,0.005,0.0,0.012,-0.08350977780774807,-6.205068866111467,-6.953
1621785582273.245,0.0,-0.002,0.01,-0.07144777301999394,-6.199192504804612,-6.953
1621785582274.154,0.0,-0.000578775154060097,0.01,-0.069,-6.198,-6.953
1621785582277.722,0.0,0.005,0.01,-0.06406308801918822,-6.207626978362583,-6.965095434352989
1621785582282.195,-0.003,0.005,0.012,-0.057873536814012805,-6.219696603212675,-6.980259834805668
1621785582286.666,-0.002,0.0,0.005,-0.051687025995304295,-6.2317602993091565,-6.995416786311504
1621785582288.608,-0.0011307578820829462,0.003042347412709688,0.007173105294792635,-0.049,-6.237,-7.002
1621785582291.134,0.0,0.007,0.01,-0.0454968767457214,-6.240503123254278,-7.005503123254279
1621785582295.599,0.007,0.002,0.01,-0.03930487701657272,-6.246695122983427,-7.0116951229834275
1621785582300.061,0.003,0.0,0.009,-0.033117278621366784,-6.252882721378633,-7.0178827213786334
1621785582303.03,0.00765989708780381,0.001331399167943946,0.010997098751915919,-0.029,-6.257,-7.022
1621785582304.521,0.01,0.002,0.012,-0.029,-6.254928074639524,-7.019928074639525
1621785582308.978,0.012,0.005,0.01,-0.029,-6.248734351145038,-7.013734351145038
1621785582313.431,0.009,0.005,0.014,-0.029,-6.242546395250212,-7.007546395250212
1621785582317.422,0.011689405571397237,0.005,0.016689405571397236,-0.029,-6.237,-7.002
1621785582317.883,0.012,0.005,0.017,-0.028390243073261944,-6.235748393676696,-7.000427468978412
1621785582322.332,0.01,0.01,0.017,-0.022504861465238824,-6.223667873533912,-6.9852493795682475
1621785582326.778,0.007,0.012,0.017,-0.016623355430902598,-6.211595308516063,-6.970081285058644
1621785582331.22,0.0,0.01,0.016,-0.01074733979262281,-6.199534013258542,-6.954927349991501
1621785582331.785,0.00038163826278174825,0.010254425508521165,0.016636063771302913,-0.01,-6.198,-6.953
1621785582335.661,0.003,0.012,0.021,-0.01513768905845483,-6.198,-6.947591906254258
1621785582340.098,-0.002,0.016,0.017,-0.021019042103828864,-6.198,-6.941401008311759
1621785582344.532,-0.003,0.012,0.023,-0.026896511786346916,-6.198,-6.935214198119635
1621785582346.119,-0.006222430318387133,0.015938525944695383,0.023358047813154127,-0.029,-6.198,-6.933
1621785582348.964,-0.012,0.023,0.024,-0.032977881694371436,-6.198,-6.9369778816943715
1621785582353.393,-0.019,0.024,0.028,-0.03916998327473803,-6.198,-6.943169983274738
1621785582357.819,-0.019,0.024,0.031,-0.045357988872580815,-6.198,-6.949357988872581
1621785582360.424,-0.019,0.021055739514348786,0.030411147902869758,-0.049,-6.198,-6.953
1621785582362.243,-0.019,0.019,0.03,-0.049,-6.198,-6.959242518553986
1621785582366.664,-0.019,0.019,0.035,-0.049,-6.198,-6.974416447210917
1621785582371.081,-0.024,0.026,0.033,-0.049,-6.198,-6.989576131194637
1621785582374.701,-0.02318028527200354,0.024360570544007077,0.036278858911985845,-0.049,-6.198,-7.002
1621785582375.497,-0.023,0.024,0.037,-0.051179215215901304,-6.1968824537354354,-7.005296761480466
1621785582379.908,-0.026,0.026,0.035,-0.06325277587388622,-6.190690884167238,-7.023561891706648
1621785582384.318,-0.028,0.026,0.04,-0.07532433173406443,-6.184500342700479,-7.041823989033585
1621785582388.725,-0.024,0.03,0.038,-0.08738720013708018,-6.1783142563399585,-7.060072943797121
1621785582388.949,-0.024,0.030152545192414327,0.038305090384828655,-0.088,-6.178,-7.061
1621785582393.128,-0.024,0.033,0.044,-0.088,-6.178,-7.061
1621785582397.53,-0.021,0.024,0.042,-0.088,-6.178,-7.061
1621785582401.928,-0.021,0.03,0.047,-0.088,-6.178,-7.061
1621785582403.168,-0.021564270636595936,0.030282135318297966,0.0461535940451061,-0.088,-6.178,-7.061
1621785582406.323,-0.023,0.031,0.044,-0.08377519873361093,-6.182447159227778,-7.0523280395058325
1621785582410.716,-0.021,0.031,0.049,-0.07789258061185864,-6.188639388829623,-7.040253191782236
1621785582415.106,-0.024,0.028,0.051,-0.07201421246429678,-6.1948271447744245,-7.028187067689872
1621785582417.357,-0.025026211809227,0.03261795314152151,0.049973788190773,-0.069,-6.198,-7.022
1621785582419.493,-0.026,0.037,0.049,-0.069,-6.198,-7.022
1621785582423.878,-0.028,0.038,0.047,-0.069,-6.198,-7.022
1621785582428.259,-0.024,0.047,0.051,-0.069,-6.198,-7.022
1621785582431.517,-0.021767896966993758,0.04327982827832293,0.05472017172167708,-0.069,-6.198,-7.022
1621785582432.638,-0.021,0.042,0.056,-0.06741372399972359,-6.198,-7.023506962200263
1621785582437.014,-0.026,0.042,0.056,-0.061220648192937606,-6.198,-7.029390384216709
1621785582441.387,-0.03,0.044,0.054,-0.05503171860963306,-6.198,-7.035269867320849
1621785582445.649,-0.02804949720670391,0.04009899441340782,0.054,-0.049,-6.198,-7.041
1621785582445.757,-0.028,0.04,0.054,-0.049,-6.198145708548282,-7.040547536613233
1621785582450.125,-0.021,0.044,0.056,-0.049,-6.204030294636984,-7.022274348232525
1621785582454.49,-0.026,0.035,0.056,-0.049,-6.209910933767268,-7.004013416196379
1621785582458.853,-0.024,0.03,0.051,-0.049,-6.215788941591939,-6.985760655056608
1621785582459.752,-0.023793771703819872,0.03164982636944102,0.05120622829618012,-0.049,-6.217,-6.982
1621785582463.212,-0.023,0.038,0.052,-0.044083519800176926,-6.207412863610345,-6.977329343810168
1621785582467.568,-0.024,0.04,0.056,-0.03789351442299353,-6.195342353124837,-6.971448838701844
1621785582471.922,-0.028,0.042,0.056,-0.03170663128133076,-6.183277930998595,-6.965571299717264
1621785582473.827,-0.02930228676347855,0.040263617648695266,0.056,-0.029,-6.178,-6.963
1621785582476.31,-0.031,0.038,0.056,-0.026018268503803368,-6.178,-6.963
1621785582481.308,-0.033,0.045,0.061,-0.020016694696887875,-6.178,-6.963
1621785582486.306,-0.031,0.035,0.061,-0.01401541405008409,-6.178,-6.963
1621785582489.65,-0.035015145593120967,0.0396843365253078,0.058992427203439515,-0.01,-6.178,-6.963
1621785582491.303,-0.037,0.042,0.058,-0.01,-6.178,-6.963
1621785582496.3,-0.038,0.047,0.061,-0.01,-6.178,-6.963
1621785582501.297,-0.037,0.047,0.063,-0.01,-6.178,-6.963
1621785582505.799,-0.037,0.04069326232471784,0.05939614989983876,-0.01,-6.178,-6.963
1621785582506.294,-0.037,0.04,0.059,-0.010582347960202014,-6.178,-6.964808343665891
1621785582511.291,-0.037,0.051,0.061,-0.016462712069434785,-6.178,-6.983068421689298
1621785582516.287,-0.037,0.052,0.059,-0.022341926996703662,-6.178,-7.0013249312002905
1621785582521.283,-0.035,0.049,0.058,-0.02822085462848157,-6.178,-7.01958054858318
1621785582521.945,-0.035264999022864965,0.0496624975571624,0.05773500097713504,-0.029,-6.178,-7.022
1621785582526.28,-0.037,0.054,0.056,-0.04484062660658663,-6.18847092267215,-7.03247092267215
1621785582531.275,-0.028,0.049,0.052,-0.06309267547706172,-6.200535836332294,-7.044535836332295
1621785582536.272,-0.026,0.052,0.052,-0.08135275350046875,-6.212606057398615,-7.056606057398615
1621785582538.091,-0.0249074780058651,0.05017913000977517,0.05163582600195503,-0.088,-6.217,-7.061
1621785582541.267,-0.023,0.047,0.051,-0.09960797628590008,-6.217,-7.064738161854781
1621785582546.262,-0.017,0.044,0.047,-0.11786361367795405,-6.217,-7.070617095930189
1621785582551.258,-0.017,0.042,0.047,-0.13612371258752892,-6.217,-7.076497466765476
1621785582554.234,-0.016404106575409437,0.040808213150818874,0.04402053287704718,-0.147,-6.217,-7.08
1621785582556.252,-0.016,0.04,0.042,-0.147,-6.217,-7.070247935384336
1621785582561.247,-0.01,0.04,0.038,-0.147,-6.217,-7.046109628822943
1621785582566.242,-0.012,0.035,0.035,-0.147,-6.217,-7.021972502041927
1621785582570.375,-0.00951774193548387,0.031690322580645164,0.037482258064516126,-0.147,-6.217,-7.002
1621785582571.237,-0.009,0.031,0.038,-0.147,-6.217,-6.998314363512593
1621785582576.23,-0.014,0.037,0.033,-0.147,-6.217,-6.976967733151803
1621785582581.225,-0.012,0.028,0.031,-0.147,-6.217,-6.955611708645336
1621785582586.219,-0.021,0.031,0.03,-0.147,-6.217,-6.93426090310869
1621785582586.514,-0.021,0.0312362720649357,0.02988186396753215,-0.147,-6.217,-6.933
1621785582591.212,-0.021,0.035,0.028,-0.1583541764376598,-6.20564582356234,-6.927468478145755
1621785582596.207,-0.023,0.031,0.028,-0.17042643387748307,-6.193573566122517,-6.921587121957123
1621785582601.199,-0.024,0.026,0.021,-0.182491020772501,-6.181508979227499,-6.915709502700576
1621785582602.651,-0.02458144309737974,0.024546392256550646,0.019837113805240517,-0.186,-6.178,-6.914
1621785582606.193,-0.026,0.021,0.017,-0.186,-6.178,-6.9181714609972005
1621785582611.186,-0.028,0.017,0.019,-0.186,-6.178,-6.924051297571309
1621785582616.179,-0.037,0.017,0.016,-0.186,-6.178,-6.929931134145418
1621785582618.785,-0.04065333463719929,0.01647809505182867,0.014956190103657344,-0.186,-6.178,-6.933
1621785582621.172,-0.044,0.016,0.014,-0.1889595774626572,-6.183771176052182,-6.937439366193986
1621785582626.164,-0.037,0.016,0.012,-0.19514841775504335,-6.195839414622334,-6.946722626632565
1621785582631.156,-0.049,0.01,0.005,-0.2013372580474295,-6.207907653192487,-6.956005887071144
1621785582634.917,-0.0452336805046208,0.01,0.008013055596303359,-0.206,-6.217,-6.963
1621785582636.149,-0.044,0.01,0.009,-0.206,-6.2200552191814,-6.967506448292565
1621785582641.14,-0.045,0.012,0.003,-0.206,-6.2324329135383865,-6.985763547469121
1621785582646.133,-0.04,0.007,0.003,-0.206,-6.244816057156696,-7.004028684306127
1621785582651.046,-0.04,0.00010957295895905762,4.695983955388134e-05,-0.206,-6.257,-7.022
1621785582651.124,-0.04,0.0,0.0,-0.20628579646084677,-6.257,-7.022280952453036
1621785582656.115,-0.031,0.0,0.0,-0.22454372473925613,-6.257,-7.040229424319947
1621785582661.107,-0.028,-0.003,-0.005,-0.2428052254734261,-6.257,-7.058181408092521
1621785582666.098,-0.016,-0.005,-0.007,-0.2610631537518354,-6.257,-7.076129879959431
1621785582667.174,-0.015137335486080532,-0.0054313322569597335,-0.008078330642399335,-0.265,-6.257,-7.08
1621785582671.088,-0.012,-0.007,-0.012,-0.26014623955431754,-6.2521462395543175,-7.0753889275766015
1621785582676.079,-0.005,-0.012,-0.009,-0.2539563400750878,-6.245956340075088,-7.069508523071334
1621785582681.07,-0.002,-0.012,-0.012,-0.24776674336926244,-6.2397667433692625,-7.0636284062008
1621785582683.301,-0.0011060020544929805,-0.01423499486376755,-0.015128992809274568,-0.245,-6.237,-7.061
1621785582686.061,0.0,-0.017,-0.019,-0.245,-6.233576317383404,-7.04422395517868
1621785582691.05,0.003,-0.023,-0.017,-0.245,-6.227387643852211,-7.013899454875832
1621785582696.04,0.0,-0.021,-0.026,-0.245,-6.221197758933979,-6.983569018776499
1621785582699.424,0.0,-0.023034492881256422,-0.02735632858750428,-0.245,-6.217,-6.963
1621785582701.03,0.0,-0.024,-0.028,-0.245,-6.2112216971844845,-6.96001122268163
1621785582706.02,-0.005,-0.021,-0.03,-0.245,-6.193267496630166,-6.9507245672225
1621785582711.009,-0.019,-0.017,-0.03,-0.245,-6.175316809789934,-6.94143972920169
1621785582715.544,-0.02536161260335633,-0.0206352072019179,-0.03272640540143843,-0.245,-6.159,-6.933
1621785582715.999,-0.026,-0.021,-0.033,-0.2461012042717564,-6.160101204271756,-6.930797591456487
1621785582720.987,-0.031,-0.021,-0.035,-0.25817132469893206,-6.172171324698932,-6.906657350602136
1621785582725.977,-0.038,-0.028,-0.04,-0.2702461713246989,-6.184246171324699,-6.882507657350603
1621785582730.965,-0.044,-0.03,-0.042,-0.28231629175187456,-6.196316291751875,-6.858367416496251
1621785582731.661,-0.04413950073421439,-0.029162995594713654,-0.042,-0.284,-6.198,-6.855
1621785582735.953,-0.045,-0.024,-0.042,-0.29465260861661513,-6.203059989092893,-6.870712597709508
1621785582740.941,-0.047,-0.031,-0.044,-0.3070327819184391,-6.208940571411259,-6.888973353329698
1621785582745.93,-0.049,-0.031,-0.047,-0.319415379021996,-6.214822305035447,-6.907237684057444
1621785582747.777,-0.049,-0.033592744896460566,-0.04625921574386841,-0.324,-6.217,-6.914
1621785582750.917,-0.049,-0.038,-0.045,-0.324,-6.196153065398191,-6.931145142476254
1621785582755.906,-0.052,-0.042,-0.051,-0.324,-6.163029116359395,-6.958387268788535
1621785582760.893,-0.056,-0.04,-0.056,-0.324,-6.129918134856312,-6.985618730211631
1621785582763.893,-0.06321903456379124,-0.04120317242729854,-0.053593655145402916,-0.324,-6.11,-7.002
1621785582765.88,-0.068,-0.042,-0.052,-0.32880830820973533,-6.118383716878514,-6.993492993167391
1621785582770.868,-0.073,-0.045,-0.054,-0.34087989152665626,-6.139431605738785,-6.9721355765297615
1621785582775.855,-0.086,-0.049,-0.051,-0.35294911145787566,-6.160475373823989,-6.9507823412668355
1621785582780.008,-0.09182825118692184,-0.04317174881307817,-0.0518326073124174,-0.363,-6.178,-6.933
1621785582780.843,-0.093,-0.042,-0.052,-0.36756034548071825,-6.1810575043563905,-6.934036442154708
1621785582785.829,-0.094,-0.045,-0.049,-0.3947930752329722,-6.199315811803925,-6.940225698916585
1621785582790.815,-0.094,-0.051,-0.044,-0.4220244715508751,-6.217573225244337,-6.946414652625199
1621785582795.802,-0.089,-0.058,-0.049,-0.4492625350405334,-6.235835108720358,-6.952605121600121
1621785582796.12,-0.08912760123390295,-0.05787239876609705,-0.04912760123390295,-0.451,-6.237,-6.953
1621785582800.788,-0.091,-0.056,-0.051,-0.46809471131989694,-6.237,-7.001386725261403
1621785582805.773,-0.091,-0.063,-0.056,-0.4863499318078497,-6.237,-7.053058281557812
1621785582810.76,-0.086,-0.079,-0.058,-0.5046131989695408,-6.237,-7.104752614032429
1621785582812.231,-0.08540986336255448,-0.07929506831872275,-0.06006547823105931,-0.51,-6.237,-7.12
1621785582815.745,-0.084,-0.08,-0.065,-0.5228698986163941,-6.241362677497083,-7.13265176474154
1621785582820.731,-0.07,-0.093,-0.066,-0.541129525512601,-6.247552381529695,-7.150601906436116
1621785582825.716,-0.063,-0.098,-0.068,-0.5593864700622849,-6.2537411762923,-7.16854941124767
1621785582828.341,-0.05931384072876873,-0.10326594181604466,-0.07010637672641787,-0.569,-6.257,-7.178
1621785582830.701,-0.056,-0.108,-0.072,-0.569,-6.2627132854414835,-7.16364353914704
1621785582835.686,-0.049,-0.119,-0.077,-0.569,-6.274782349731745,-7.133316146827923
1621785582840.671,-0.045,-0.129,-0.082,-0.569,-6.286850822951714,-7.102990239762359
1621785582844.45,-0.044241783002694095,-0.13203286798922362,-0.082,-0.569,-6.296,-7.08
1621785582845.655,-0.044,-0.133,-0.082,-0.561667899475551,-6.291585776214872,-7.078578470306485
1621785582850.64,-0.033,-0.136,-0.086,-0.5313383150938248,-6.273326128474854,-7.072698244763089
1621785582855.624,-0.037,-0.145,-0.084,-0.5010131870130657,-6.255069163609907,-7.066818883196411
1621785582860.557,-0.0310614284314686,-0.1479692857842657,-0.09092833349661997,-0.471,-6.237,-7.061
1621785582860.608,-0.031,-0.148,-0.091,-0.47081305903398923,-6.236876428852976,-7.060749689215003
1621785582865.592,-0.037,-0.138,-0.094,-0.45255277280858675,-6.224806070161608,-7.036299475455565
1621785582870.575,-0.038,-0.143,-0.093,-0.4342969588550984,-6.212738667717777,-7.01185524999242
1621785582875.559,-0.044,-0.145,-0.096,-0.41603667262969585,-6.200668309026409,-6.987405036232983
1621785582876.661,-0.044,-0.145,-0.096,-0.412,-6.198,-6.982
1621785582880.542,-0.044,-0.145,-0.096,-0.3859717413056002,-6.207399093417423,-6.965611837118341
1621785582885.524,-0.042,-0.138,-0.096,-0.3525608683787635,-6.219464130863225,-6.944575361571814
1621785582890.508,-0.042,-0.134,-0.096,-0.3191352596949759,-6.231534489554592,-6.9235296079560955
1621785582892.765,-0.04018798392629619,-0.134,-0.09509399196314809,-0.304,-6.237,-6.914
1621785582895.49,-0.038,-0.134,-0.094,-0.304,-6.243601128195797,-6.917215934249234
1621785582900.473,-0.04,-0.136,-0.094,-0.304,-6.255671458466018,-6.923096351560368
1621785582905.456,-0.033,-0.129,-0.089,-0.304,-6.267742380129197,-6.928977056986018
1621785582908.865,-0.03436878737378689,-0.12284045681795902,-0.089,-0.304,-6.276,-6.933
1621785582910.437,-0.035,-0.12,-0.089,-0.304,-6.276,-6.939738522439446
1621785582915.42,-0.033,-0.124,-0.087,-0.304,-6.276,-6.9610979327499125
1621785582920.401,-0.024,-0.113,-0.093,-0.304,-6.276,-6.98244897092503
1621785582924.962,-0.024,-0.11208452981819964,-0.08933811927279854,-0.304,-6.276,-7.002
1621785582925.383,-0.024,-0.112,-0.089,-0.3060409556313993,-6.276523321956769,-7.002523321956769
1621785582930.365,-0.016,-0.105,-0.087,-0.3301845733788396,-6.282713993174061,-7.008713993174061
1621785582935.346,-0.01,-0.106,-0.089,-0.35432345847554036,-6.288903450891164,-7.014903450891164
1621785582940.327,-0.005,-0.106,-0.087,-0.3784623435722412,-6.295092908608267,-7.021092908608267
1621785582941.057,-0.004267264617948341,-0.10658618830564133,-0.08626726461794834,-0.382,-6.296,-7.022
1621785582945.308,0.0,-0.11,-0.082,-0.382,-6.2907170097541,-7.006415178774594
1621785582950.288,0.005,-0.094,-0.087,-0.382,-6.2845283900426265,-6.988158750625749
1621785582955.27,0.005,-0.093,-0.087,-0.382,-6.278337343183507,-6.969895162391348
1621785582957.151,0.004244631826649672,-0.093,-0.087,-0.382,-6.276,-6.963
1621785582960.25,0.003,-0.093,-0.087,-0.382,-6.272340843232746,-6.949711483318921
1621785582965.229,0.009,-0.091,-0.086,-0.382,-6.266462093972358,-6.928362341268035
1621785582970.21,0.005,-0.084,-0.087,-0.382,-6.2605810386418455,-6.907004824541441
1621785582973.243,0.007436598999705796,-0.084,-0.09065489849955868,-0.382,-6.257,-6.894
1621785582975.189,0.009,-0.084,-0.093,-0.37728307412184203,-6.252162127304453,-6.891581063652227
1621785582980.17,0.005,-0.082,-0.091,-0.36520996889462104,-6.239779455276534,-6.885389727638267
1621785582985.149,0.0,-0.077,-0.089,-0.3531415977543434,-6.227401638722403,-6.879200819361201
1621785582989.333,0.001680690399137001,-0.075319309600863,-0.087319309600863,-0.343,-6.217,-6.874
1621785582990.128,0.002,-0.075,-0.087,-0.3459152604103436,-6.216061187325482,-6.873061187325482
1621785582995.107,-0.002,-0.075,-0.089,-0.3641750333859415,-6.210180921451985,-6.867180921451985
1621785583000.086,-0.009,-0.066,-0.087,-0.3824348063615394,-6.204300655578487,-6.8613006555784875
1621785583005.064,-0.019,-0.063,-0.087,-0.4006909979361418,-6.198421543037514,-6.855421543037514
1621785583005.421,-0.019501814259095814,-0.06335843875649701,-0.08649818574090418,-0.402,-6.198,-6.855
1621785583010.043,-0.026,-0.068,-0.08,-0.40487370977534914,-6.178171402550091,-6.87195488767456
1621785583015.021,-0.038,-0.063,-0.08,-0.4079687310261081,-6.156815755919854,-6.890215513054038
1621785583019.999,-0.049,-0.059,-0.087,-0.41106375227686703,-6.1354601092896175,-6.908476138433516
1621785583021.505,-0.05414151220947338,-0.056580464842600764,-0.087,-0.412,-6.129,-6.914
1621785583024.978,-0.066,-0.051,-0.087,-0.3971004993852552,-6.124897238961157,-6.937320957483948
1621785583029.955,-0.075,-0.056,-0.093,-0.375749366281629,-6.119017941439869,-6.970740122341798
1621785583034.934,-0.082,-0.056,-0.094,-0.3543898544345107,-6.113136336728344,-7.004172401754679
1621785583037.589,-0.08573436350257542,-0.05866740250183959,-0.094,-0.343,-6.11,-7.022
1621785583039.911,-0.089,-0.061,-0.094,-0.3402571194365171,-6.117073744611088,-7.041777612484061
1621785583044.888,-0.091,-0.056,-0.094,-0.33437737567551157,-6.132237294310523,-7.08417365960289
1621785583049.865,-0.101,-0.065,-0.096,-0.32849763191450604,-6.147400844009958,-7.126569706721719
1621785583053.672,-0.09717531639360345,-0.05964544295104484,-0.09370518983616208,-0.324,-6.159,-7.159
1621785583054.842,-0.096,-0.058,-0.093,-0.3197075925729121,-6.161837354061973,-7.1796617577846265
1621785583059.819,-0.094,-0.056,-0.099,-0.3014469461186937,-6.173907950870694,-7.267560462750694
1621785583064.796,-0.086,-0.049,-0.106,-0.2831871954089301,-6.185977955577148,-7.355454855997692
1621785583069.753,-0.07703268230444597,-0.05099273726567867,-0.10799273726567868,-0.265,-6.198,-7.443
1621785583069.771,-0.077,-0.051,-0.108,-0.26493369981169895,-6.198,-7.443088774828403
1621785583074.749,-0.068,-0.04,-0.112,-0.24666531008929116,-6.198,-7.467549839032983
1621785583079.724,-0.058,-0.038,-0.112,-0.22840767174876997,-6.198,-7.491996507319444
1621785583084.699,-0.044,-0.038,-0.113,-0.21015092935673935,-6.198,-7.516441975946061
1621785583085.83,-0.04036377906406357,-0.036409153340527814,-0.113,-0.206,-6.198,-7.522
1621785583089.676,-0.028,-0.031,-0.113,-0.15671729919358512,-6.183885051710784,-7.531330220055583
1621785583094.651,-0.01,-0.028,-0.12,-0.09296857867480675,-6.165626923018513,-7.543399152580983
1621785583099.627,0.01,-0.024,-0.12,-0.02920421583367505,-6.147364314243625,-7.555471046516925
1621785583101.906,0.020536117381489843,-0.022625723819805675,-0.11679335557954656,0.0,-6.139,-7.561
1621785583104.602,0.033,-0.021,-0.113,0.054343656495390275,-6.11434408177524,-7.523093622321117
1621785583109.576,0.054,-0.012,-0.106,0.15460113306702714,-6.0688568933307,-7.453160938045839
1621785583114.552,0.061,0.0,-0.103,0.2549028994972585,-6.023349610413281,-7.3831973602272205
1621785583117.98,0.06582437539881215,0.0034459824277229666,-0.09679723163009865,0.324,-5.992,-7.335
1621785583119.526,0.068,0.005,-0.094,0.3683416019808297,-5.967472649663533,-7.301046452279321
1621785583124.5,0.08,0.019,-0.075,0.5110162385502272,-5.888552839847488,-7.191796676337896
1621785583129.475,0.091,0.037,-0.058,0.653718886239006,-5.8096175358113955,-7.082525451534991
1621785583134.052,0.08915926162305464,0.04804443026167215,-0.034990770288183023,0.785,-5.737,-6.982
1621785583134.448,0.089,0.049,-0.033,0.7958691992098466,-5.730468621790002,-6.974507400091172
1621785583139.423,0.079,0.066,-0.016,0.9324244035860811,-5.6484116395684545,-6.880374107278529
1621785583144.396,0.063,0.086,0.012,1.0689192979790305,-5.566390898039812,-6.786282388694727
1621785583149.369,0.045,0.098,0.031,1.2054141923719799,-5.484370156511169,-6.692190670110925
1621785583150.119,0.04213517227839403,0.1001109256896044,0.03657887503681162,1.226,-5.472,-6.678
1621785583154.343,0.026,0.112,0.068,1.3343100205120413,-5.503020831117527,-6.613592342171238
1621785583159.316,0.007,0.138,0.098,1.4618193724834763,-5.539540499886044,-6.537767606168806
1621785583164.288,-0.01,0.161,0.124,1.5893099445415177,-5.5760547899415025,-6.461954037833321
1621785583166.187,-0.020308054778383156,0.16939915574534925,0.13392627497177637,1.638,-5.59,-6.433
1621785583169.262,-0.037,0.183,0.15,1.6360859244399866,-5.64435974590438,-6.421706954195921
1621785583174.234,-0.056,0.218,0.18,1.632991033707182,-5.732254642716026,-6.403447098872374
1621785583179.206,-0.08,0.25,0.201,1.6298959910033128,-5.820153855505912,-6.3851863469195465
1621785583182.252,-0.10388747606657175,0.26286248711276944,0.2126374883401247,1.628,-5.874,-6.374
1621785583184.179,-0.119,0.271,0.22,1.5809793015409865,-5.905786951764384,-6.415263061913011
1621785583189.15,-0.154,0.295,0.229,1.4596834138779975,-5.987785447250843,-6.521706391902981
1621785583194.123,-0.185,0.314,0.236,1.3383339108233792,-6.069820187836236,-6.628196772134586
1621785583198.317,-0.21621585383822012,0.339310151760719,0.236,1.236,-6.139,-6.718
1621785583199.094,-0.222,0.344,0.236,1.208469415985164,-6.158450430182714,-6.7469337245006535
1621785583204.065,-0.25,0.375,0.234,1.0323619007083573,-6.28287085398109,-6.932016842489284
1621785583209.037,-0.26,0.4,0.232,0.8562111391481471,-6.407321831392698,-7.117145410877694
1621785583214.008,-0.253,0.41,0.23,0.6801036238713405,-6.531742255191075,-7.3022285288663245
1621785583214.378,-0.25277677913658464,0.4103720347723589,0.22873508177397966,0.667,-6.541,-7.316
1621785583218.979,-0.25,0.415,0.213,0.46758961962966344,-6.630963878500411,-7.408542461005199
1621785583223.95,-0.225,0.422,0.192,0.2521489555778528,-6.7281598102709115,-7.508524263431543
1621785583228.92,-0.197,0.415,0.171,0.036750615707379364,-6.825336647511326,-7.6084864240323515
1621785583230.437,-0.18479294764757884,0.41042235536784205,0.1636757685885473,-0.029,-6.855,-7.639
1621785583233.891,-0.157,0.4,0.147,-0.14086060301965972,-6.899314008119327,-7.573604570542353
1621785583238.861,-0.119,0.382,0.119,-0.3018124192248628,-6.963075689154465,-7.479509662607003
1621785583243.831,-0.084,0.353,0.096,-0.4627642354300659,-7.026837370189603,-7.385414754671654
1621785583246.494,-0.06792641351869136,0.34228427567912756,0.0783190548705605,-0.549,-7.061,-7.335
1621785583248.801,-0.054,0.333,0.063,-0.5856390451573666,-7.058126349399422,-7.24060057777102
1621785583253.771,-0.047,0.312,0.031,-0.6645661395773149,-7.05193598905276,-7.037247240383153
1621785583258.74,-0.037,0.278,0.005,-0.7434777254067204,-7.04574684506614,-6.833933860422685
1621785583262.551,-0.04773537358156899,0.251928378444761,-0.00956943557498649,-0.804,-7.041,-6.678
1621785583263.71,-0.051,0.244,-0.014,-0.8188720514653324,-7.013421729807005,-6.6660157255182275
1621785583268.678,-0.07,0.22,-0.038,-0.882624184447858,-6.895201755053002,-6.614642647483765
1621785583273.647,-0.082,0.201,-0.063,-0.9463888491779843,-6.776958541815582,-6.56325947105075
1621785583278.604,-0.09297351741757971,0.18503852011988403,-0.09791573723775365,-1.01,-6.659,-6.512
1621785583278.616,-0.093,0.185,-0.098,-1.0099418698383245,-6.65881741167166,-6.511824118998007
1621785583283.585,-0.103,0.178,-0.129,-0.9857964988060655,-6.582976182147257,-6.43876889382348
1621785583288.554,-0.115,0.152,-0.159,-0.9616511277738065,-6.507134952622853,-6.365713668648953
1621785583293.521,-0.133,0.143,-0.194,-0.9375152473801883,-6.43132353343777,-6.292687158740057
1621785583294.656,-0.1373408029878618,0.14185768342424687,-0.19948311956361492,-0.932,-6.414,-6.276
1621785583298.489,-0.152,0.138,-0.218,-0.840544616648162,-6.36695898036472,-6.194096092716239
1621785583303.458,-0.176,0.127,-0.243,-0.7219846537589926,-6.305976440706322,-6.087918371382074
1621785583308.425,-0.215,0.117,-0.262,-0.6034712923390471,-6.245017870994236,-5.981782384522958
1621785583310.708,-0.23752145490292456,0.117,-0.27395015974440895,-0.549,-6.217,-5.933
1621785583313.392,-0.264,0.117,-0.288,-0.46537890381368185,-6.169503217366171,-5.949389734852518
1621785583318.36,-0.309,0.122,-0.304,-0.3106030545963461,-6.081590535010724,-5.979725801299116
1621785583323.327,-0.356,0.12,-0.323,-0.15586523571200395,-5.993699453884418,-6.010054413800447
1621785583326.757,-0.38845760629147214,0.11930941263209634,-0.3361211599901696,-0.049,-5.933,-6.031
1621785583328.294,-0.403,0.119,-0.342,0.013915525739320922,-5.951769319703055,-6.054461649628818
1621785583333.261,-0.44,0.117,-0.36,0.21725410733844475,-6.012430449069003,-6.130288061336254
1621785583338.227,-0.463,0.113,-0.361,0.42055271084337353,-6.0730796519410974,-6.206099564926372
1621785583342.806,-0.47037478495944945,0.12314032931924306,-0.3665310887195871,0.608,-6.129,-6.276
1621785583343.194,-0.471,0.124,-0.367,0.6231933172045465,-6.135895056374674,-6.280741863331355
1621785583348.16,-0.482,0.131,-0.368,0.8175531108778016,-6.224099739809193,-6.341401926324919
1621785583353.126,-0.471,0.136,-0.372,1.0119224600964682,-6.312308759757155,-6.4020649716224645
1621785583358.092,-0.459,0.147,-0.37,1.2062918093151351,-6.400517779705117,-6.4627280169200105
1621785583358.851,-0.45655449584582863,0.14959834816380707,-0.36923577995182144,1.236,-6.414,-6.472
1621785583363.058,-0.443,0.164,-0.365,1.3388024593656784,-6.473006513666524,-6.487472819139223
1621785583368.024,-0.428,0.169,-0.353,1.460146587934498,-6.54265556705424,-6.505736348694223
1621785583372.989,-0.415,0.176,-0.339,1.581472819139222,-6.6122943477202165,-6.523997184513301
1621785583374.893,-0.4092462620499705,0.18137015542002755,-0.33478059216997835,1.628,-6.639,-6.531
1621785583377.953,-0.4,0.19,-0.328,1.6167457841227322,-6.668947659198832,-6.540346721660781
1621785583382.919,-0.386,0.202,-0.307,1.5984802447339583,-6.717552569097772,-6.555516406915865
1621785583387.883,-0.367,0.208,-0.295,1.5802218890782904,-6.76613836296116,-6.570680126019725
1621785583390.934,-0.35593853265145553,0.20677094807238394,-0.2845530586152636,1.569,-6.796,-6.58
1621785583392.848,-0.349,0.206,-0.278,1.5361838608028497,-6.800653925195232,-6.584653925195232
1621785583397.813,-0.33,0.206,-0.264,1.4510477691007901,-6.812727770927524,-6.596727770927524
1621785583402.777,-0.314,0.194,-0.251,1.3659284224627424,-6.824799241905284,-6.608799241905284
1621785583406.972,-0.2937182766083022,0.18047885107220146,-0.23916899468817626,1.294,-6.835,-6.619
1621785583407.741,-0.29,0.178,-0.237,1.2822519941545394,-6.835959020885344,-6.611951196492724
1621785583412.705,-0.271,0.161,-0.227,1.2064195488035072,-6.842149424587469,-6.566451729282105
1621785583417.668,-0.257,0.147,-0.218,1.1306057510808012,-6.84833830603422,-6.520963450648481
1621785583422.632,-0.234,0.133,-0.211,1.0547733057297692,-6.854528709736345,-6.475463983437862
1621785583423.01,-0.23293388429752068,0.13178158205430934,-0.210771546635183,1.049,-6.855,-6.472
1621785583427.595,-0.22,0.117,-0.208,1.0041141761052246,-6.838132078918524,-6.4216821337230545
1621785583432.559,-0.208,0.099,-0.199,0.9555165479235173,-6.819869275971258,-6.367203263914262
1621785583437.521,-0.201,0.096,-0.192,0.9069404305200341,-6.801614556692242,-6.312748508098892
1621785583439.047,-0.19915495867768596,0.09292493112947658,-0.19046246556473828,0.892,-6.796,-6.296
1621785583442.484,-0.195,0.086,-0.187,0.8521321355157975,-6.791713132851161,-6.2833537419109255
1621785583447.447,-0.19,0.065,-0.183,0.7945578073848496,-6.785522344880091,-6.26509091739627
1621785583452.409,-0.178,0.063,-0.182,0.7369976398934145,-6.779333079558431,-6.246832584697374
1621785583455.081,-0.17638450184501844,0.05169151291512915,-0.18361549815498154,0.706,-6.776,-6.237
1621785583457.371,-0.175,0.042,-0.185,0.703143161709839,-6.778856838290161,-6.248141669331628
1621785583462.334,-0.169,0.031,-0.183,0.6969519241019081,-6.785048075898092,-6.2722874960025585
1621785583467.295,-0.159,0.021,-0.176,0.6907631230298323,-6.791236876970168,-6.296423820183654
1621785583471.113,-0.15361811120397226,0.008698539894793767,-0.1752311587434246,0.686,-6.796,-6.315
1621785583472.261,-0.152,0.005,-0.175,0.6747709994948181,-6.798807250126296,-6.315
1621785583477.193,-0.148,-0.002,-0.175,0.6265259403272967,-6.810868514918176,-6.315
1621785583482.126,-0.15,-0.023,-0.176,0.5782737167613246,-6.8229315708096685,-6.315
1621785583487.059,-0.147,-0.042,-0.178,0.5300191050625354,-6.834995223734366,-6.315
1621785583487.061,-0.14699643511412586,-0.042007525870178745,-0.17799920780313908,0.53,-6.835,-6.315
1621785583491.99,-0.138,-0.061,-0.176,0.4842185517727454,-6.947288281800631,-6.333250712468973
1621785583496.922,-0.119,-0.08,-0.178,0.4384076241841081,-7.0596488677105995,-6.351513176845525
1621785583501.853,-0.091,-0.099,-0.185,0.3926080348113873,-7.171981644347746,-6.369771121257623
1621785583502.995,-0.08289174466399248,-0.10432828207794781,-0.1854633288763433,0.382,-7.198,-6.374
1621785583506.783,-0.056,-0.122,-0.187,0.3682095229338115,-7.26552578425513,-6.4370082141817235
1621785583511.715,-0.017,-0.141,-0.187,0.3502530151870412,-7.3534507532220745,-6.5190508788867945
1621785583516.644,0.028,-0.162,-0.195,0.332308062464561,-7.441319142414908,-6.6010407490843335
1621785583518.926,0.05160704204427277,-0.1800524439162086,-0.19685153270935474,0.324,-7.482,-6.639
1621785583521.574,0.079,-0.201,-0.199,0.33696871215489094,-7.498460288504285,-6.6586193337727835
1621785583526.503,0.126,-0.227,-0.206,0.3611089785844588,-7.5290998574341215,-6.695139224012387
1621785583531.431,0.175,-0.25,-0.202,0.3852444621587234,-7.559733355816841,-6.731651878650376
1621785583534.852,0.20761419233435674,-0.2735932455184708,-0.20616351391502427,0.402,-7.581,-6.757
1621785583536.361,0.222,-0.284,-0.208,0.41223595436702654,-7.581,-6.731884000858685
1621785583541.288,0.267,-0.3,-0.215,0.44565640333660456,-7.581,-6.649880121442591
1621785583546.215,0.309,-0.325,-0.22,0.4790768523061826,-7.581,-6.567876242026497
1621785583550.774,0.33490260094129304,-0.34442695070596974,-0.22462546445380233,0.51,-7.581,-6.492
1621785583551.143,0.337,-0.346,-0.225,0.5154492753623189,-7.575991304347826,-6.483582608695652
1621785583556.07,0.365,-0.37,-0.232,0.5881819645732689,-7.509139130434783,-6.3712338164251205
1621785583560.997,0.394,-0.389,-0.241,0.660914653784219,-7.442286956521739,-6.258885024154589
1621785583565.922,0.403,-0.401,-0.251,0.7336185108503949,-7.375461283643893,-6.146580768345985
1621785583566.693,0.40487827121332276,-0.403034793814433,-0.2527217486122125,0.745,-7.365,-6.129
1621785583570.848,0.415,-0.414,-0.262,0.9089886452563256,-7.247231084378021,-6.198199030243513
1621785583575.774,0.407,-0.428,-0.265,1.1034180080096976,-7.1076010802350735,-6.280243267711098
1621785583580.698,0.384,-0.419,-0.276,1.2977702812600698,-6.968026438139663,-6.3622549753724815
1621785583582.604,0.36967807030591504,-0.4108713372006545,-0.27677415836184244,1.373,-6.914,-6.394
1621785583585.622,0.347,-0.398,-0.278,1.3953870225141578,-6.7929583019997235,-6.699070611887844
1621785583590.547,0.3,-0.372,-0.276,1.4319194125140042,-6.595435718780214,-7.196901824767108
1621785583595.47,0.236,-0.342,-0.276,1.4684355039211776,-6.3980012584600745,-7.694510934790283
1621785583598.512,0.19399097625068173,-0.31728880955922456,-0.28217779761019385,1.491,-6.276,-8.002
1621785583600.394,0.168,-0.302,-0.286,1.4608196821985109,-6.3491428878483145,-8.1494693175712
1621785583605.317,0.096,-0.244,-0.29,1.3818787134413142,-6.54045864742458,-8.535196560988716
1621785583610.239,0.058,-0.183,-0.291,1.3029494895217626,-6.731745943041376,-8.920866415905428
1621785583614.414,0.0588480535581453,-0.13890121497644434,-0.28845583932556407,1.236,-6.894,-9.248
1621785583615.162,0.059,-0.131,-0.288,1.215673085782733,-6.929995577259744,-9.269691452440185
1621785583620.083,0.112,-0.103,-0.274,1.0819559568782826,-7.1667863263613745,-9.412384962683129
1621785583625.005,0.195,-0.106,-0.278,0.9482122915322952,-7.403624067078227,-9.5551067907491
1621785583629.926,0.297,-0.127,-0.3,0.8144885285174606,-7.640426564083663,-9.697807380447802
1621785583630.312,0.3045315601429138,-0.12935361254466057,-0.3021967050416832,0.804,-7.659,-9.709
1621785583634.846,0.393,-0.157,-0.328,0.8348043004146829,-7.423974596836123,-9.501926647212409
1621785583639.767,0.48,-0.183,-0.346,0.868239348794348,-7.16887756105053,-9.27716882199355
1621785583644.686,0.55,-0.215,-0.346,0.9016594685916142,-6.913894424819536,-9.052511350023039
1621785583646.208,0.561755260023819,-0.22830200476379517,-0.34414390631202857,0.912,-6.835,-8.983
1621785583649.606,0.588,-0.258,-0.34,0.8953214933169458,-6.568785374097404,-8.691553787064066
1621785583654.525,0.588,-0.293,-0.333,0.8711773237056384,-6.1834072822246124,-8.26964990013827
1621785583659.443,0.548,-0.305,-0.325,0.8470367491166078,-5.798086572438162,-7.847808833922262
1621785583662.099,0.5064235159817352,-0.3136392694063927,-0.31420091324200916,0.834,-5.59,-7.62
1621785583664.362,0.471,-0.321,-0.305,0.8046573540485301,-5.546698231217248,-7.551486346103607
1621785583669.279,0.379,-0.347,-0.278,0.7409006500391867,-5.452610668018994,-7.402617537227422
1621785583674.197,0.283,-0.374,-0.236,0.6771312833279548,-5.358504418115039,-7.2537191615570205
1621785583677.986,0.2198103277060576,-0.39634756703078455,-0.19901092353525324,0.628,-5.286,-7.139
1621785583679.114,0.201,-0.403,-0.188,0.5513598794662075,-5.281809298321136,-7.1759349978476115
1621785583684.031,0.14,-0.436,-0.161,0.21726203800504273,-5.263540741651805,-7.336946005780702
1621785583688.947,0.115,-0.48,-0.148,-0.11676944837340875,-5.245275813295615,-7.497925035360679
1621785583693.863,0.106,-0.52,-0.143,-0.45080093475186034,-5.227010884939426,-7.658904064940655
1621785583693.866,0.10600774885754023,-0.5200238426385854,-0.14300655672561097,-0.451,-5.227,-7.659
1621785583698.778,0.119,-0.56,-0.154,-0.6907742649772419,-5.1904924344937875,-7.6348678804280965
1621785583703.694,0.138,-0.604,-0.164,-0.9307392053143068,-5.153955837126338,-7.61071657030385
1621785583708.608,0.164,-0.628,-0.166,-1.1705968907614712,-5.1174355701808345,-7.586576054865297
1621785583709.743,0.1695433227344992,-0.6340052662957075,-0.1666929153418124,-1.226,-5.109,-7.581
1621785583713.522,0.188,-0.654,-0.169,-1.226,-5.076381052728727,-7.4081433889128165
1621785583718.437,0.195,-0.675,-0.176,-1.226,-5.033956823355688,-7.183325939826494
1621785583723.35,0.188,-0.658,-0.185,-1.226,-4.991549452408786,-6.958597828093276
1621785583725.615,0.18246782288923122,-0.6570779704815386,-0.18407797048153854,-1.226,-4.972,-6.855
1621785583728.263,0.176,-0.656,-0.183,-1.1293856828566593,-4.962155017769504,-6.825465053308513
1621785583733.176,0.148,-0.649,-0.171,-0.9501245249926922,-4.943888336743642,-6.7706650102309265
1621785583738.088,0.122,-0.639,-0.168,-0.7709079062754811,-4.925626194249142,-6.715878582747427
1621785583741.484,0.09711133200795229,-0.6217162027833002,-0.16661729622266402,-0.647,-4.913,-6.678
1621785583743.0,0.086,-0.614,-0.166,-0.6048597587246877,-4.944915738290146,-6.691186742167785
1621785583747.912,0.045,-0.588,-0.159,-0.4683280913399397,-5.048320674586077,-6.733910937403828
1621785583752.823,0.007,-0.564,-0.147,-0.3318303532959931,-5.151699913830246,-6.776624515295131
1621785583757.35,-0.02342102908277405,-0.544641163310962,-0.12764116331096198,-0.206,-5.247,-6.816
1621785583757.734,-0.026,-0.543,-0.126,-0.19651525319378174,-5.263598306910882,-6.825726704632907
1621785583762.644,-0.054,-0.518,-0.096,-0.07516841619208864,-5.475955271663845,-6.9501691242111745
1621785583767.555,-0.066,-0.501,-0.059,0.0461965214714484,-5.688343912575035,-7.0746301062028625
1621785583772.464,-0.072,-0.487,-0.028,0.16751922425734958,-5.900658642450361,-7.199047775896568
1621785583773.212,-0.07062898493062117,-0.48532431491520367,-0.022668274730193463,0.186,-5.933,-7.218
1621785583777.373,-0.063,-0.476,0.007,0.23244713707256237,-6.0899230958722725,-7.3337242228757065
1621785583782.282,-0.051,-0.457,0.045,0.2872413511724223,-6.27504705085372,-7.470245400378747
1621785583787.19,-0.028,-0.438,0.089,0.342024664747271,-6.460134178072701,-7.6067394189465904
1621785583789.069,-0.021873949161816647,-0.43531985275829477,0.10508088345023131,0.363,-6.531,-7.659
1621785583792.098,-0.012,-0.431,0.131,0.3330042812702128,-6.540361721132227,-7.73580432439092
1621785583797.006,-0.005,-0.421,0.166,0.2843960328949395,-6.555532448332152,-7.8602662087658235
1621785583801.913,-0.017,-0.414,0.195,0.23579987371792896,-6.570699402470201,-7.984697138633074
1621785583804.922,-0.018226185146495547,-0.40419051882803564,0.20603566631845993,0.206,-6.58,-8.061
1621785583806.821,-0.019,-0.398,0.213,0.18012165555059226,-6.548251105189384,-8.118627239260023
1621785583811.727,0.005,-0.396,0.239,0.11326316600175597,-6.466225643474377,-8.267511190523868
1621785583816.634,0.038,-0.403,0.248,0.046391367970302355,-6.384183854222825,-8.416424777806872
1621785583820.772,0.07090085112737046,-0.40721805783684234,0.2505308347021054,-0.01,-6.315,-8.542
1621785583821.539,0.077,-0.408,0.251,-0.014744980198172376,-6.306478402909405,-8.524424206000647
1621785583826.444,0.112,-0.403,0.257,-0.04508597229285131,-6.2519884579230425,-8.412038694466276
1621785583831.35,0.166,-0.391,0.258,-0.07543300510070423,-6.19748766430894,-8.299630807637188
1621785583836.254,0.206,-0.391,0.264,-0.10576644630391567,-6.143011280107253,-8.187273265221211
1621785583836.615,0.20842978045502064,-0.38960103549559416,0.26436814855379104,-0.108,-6.139,-8.179
1621785583841.158,0.239,-0.372,0.269,-0.14728945056638668,-6.0294483933112435,-7.967926747322186
1621785583846.062,0.253,-0.36,0.283,-0.18970170301302303,-5.911189412036681,-7.740076982353394
1621785583850.965,0.244,-0.361,0.297,-0.23210550974801572,-5.792953980118671,-7.512272589966864
1621785583852.456,0.23670152375261427,-0.359479484115128,0.3006492381236929,-0.245,-5.757,-7.443
1621785583855.868,0.22,-0.356,0.309,-0.34862543935376455,-5.66608537337362,-7.337435623111549
1621785583860.771,0.188,-0.349,0.311,-0.497542054634026,-5.53543503730653,-7.185732626256398
1621785583865.673,0.162,-0.354,0.316,-0.6464290096811988,-5.404810723315039,-7.034059844607511
1621785583868.293,0.14917282597868314,-0.3513276720788923,0.31118980974200616,-0.726,-5.335,-6.953
1621785583870.575,0.138,-0.349,0.307,-0.786681701825808,-5.296803679373304,-6.916245049962991
1621785583875.476,0.119,-0.347,0.3,-0.9170107019491734,-5.21476761041204,-6.837304681717247
1621785583880.378,0.098,-0.342,0.286,-1.0473591783863805,-5.132719282013324,-6.75835251665433
1621785583884.125,0.08729440486273729,-0.33970594389915804,0.28064720243136865,-1.147,-5.07,-6.698
1621785583885.278,0.084,-0.339,0.279,-1.1606231278246517,-5.067158812913576,-6.668713917724546
1621785583890.178,0.063,-0.339,0.264,-1.218513488917339,-5.055085422097453,-6.544265120081443
1621785583895.078,0.037,-0.333,0.257,-1.276403850010026,-5.043012031281331,-6.41981632243834
1621785583899.953,-0.008763938020028901,-0.339964077524787,0.2440667131682527,-1.334,-5.031,-6.296
1621785583899.978,-0.009,-0.34,0.244,-1.3340301931621823,-5.0312177085904715,-6.2957044248333744
1621785583904.876,-0.051,-0.332,0.244,-1.3399111176252778,-5.073622269192792,-6.238133269563071
1621785583909.775,-0.091,-0.337,0.241,-1.3457932146383609,-5.116035284497655,-6.1805506356455195
1621785583914.673,-0.122,-0.326,0.248,-1.3516744322389533,-5.158441958775611,-6.122976610713405
1621785583915.777,-0.13033818399282368,-0.326,0.24912678162065185,-1.353,-5.168,-6.11
1621785583919.572,-0.159,-0.326,0.253,-1.4000201561873014,-5.172797975121153,-6.13566916689817
1621785583924.469,-0.195,-0.321,0.257,-1.4606950334907554,-5.178989289131709,-6.168792696854647
1621785583929.366,-0.227,-0.307,0.244,-1.5213699107942094,-5.185180603142266,-6.201916226811124
1621785583931.596,-0.23474144979559278,-0.2992585502044072,0.24263386180077773,-1.549,-5.188,-6.217
1621785583934.263,-0.244,-0.29,0.241,-1.5424231374849486,-5.215993825064065,-6.243476087560591
1621785583939.159,-0.265,-0.286,0.237,-1.5303495013739232,-5.267384173639198,-6.292080212417796
1621785583944.055,-0.278,-0.284,0.237,-1.5182758652628978,-5.318774522214332,-6.340684337275
1621785583947.411,-0.2821126957215518,-0.2737182606961205,0.237,-1.51,-5.354,-6.374
1621785583948.951,-0.284,-0.269,0.237,-1.4928581663218354,-5.376985640613903,-6.381694345798722
1621785583953.846,-0.297,-0.248,0.229,-1.438372788191335,-5.45004557947071,-6.406150850755026
1621785583958.741,-0.304,-0.227,0.229,-1.3838874100608345,-5.523105518327517,-6.43060735571133
1621785583963.223,-0.3113263493963883,-0.20776833283448068,0.22350523795270877,-1.334,-5.59,-6.453
1621785583963.635,-0.312,-0.206,0.223,-1.3240166157077118,-5.599462058741777,-6.452478674449489
1621785583968.529,-0.316,-0.182,0.227,-1.205458012909602,-5.711829611785417,-6.446287624695018
1621785583973.423,-0.309,-0.159,0.229,-1.086899410111492,-5.824197164829056,-6.440096574940548
1621785583978.316,-0.305,-0.131,0.229,-0.968370378949319,-5.936536690447513,-6.433907069396831
1621785583979.033,-0.30324149286498353,-0.12587102085620197,0.23046542261251374,-0.951,-5.953,-6.433
1621785583983.209,-0.293,-0.096,0.239,-0.855087075397377,-6.085111466394798,-6.4018216939308275
1621785583988.101,-0.283,-0.065,0.248,-0.7427279299318782,-6.239876129570416,-6.365297233421382
1621785583992.993,-0.253,-0.028,0.262,-0.6303743917697762,-6.394633069187637,-6.328774595671718
1621785583994.838,-0.24244026349935124,-0.01630886315999601,0.2631314003393552,-0.588,-6.453,-6.315
1621785583997.885,-0.225,0.003,0.265,-0.646627933927716,-6.456664245870482,-6.303814407342738
1621785584002.776,-0.197,0.04,0.271,-0.7407304417695505,-6.462545652610597,-6.285860639399231
1621785584007.667,-0.159,0.063,0.264,-0.8348376469861087,-6.468427352936632,-6.267905975246071
1621785584010.638,-0.13774039133473095,0.07575576519916143,0.2554961565338924,-0.892,-6.472,-6.257
1621785584012.558,-0.124,0.084,0.25,-0.9457258326249903,-6.450606908276022,-6.268912062437215
1621785584017.448,-0.089,0.11,0.232,-1.0825439765087705,-6.396127285372073,-6.299247307008732
1621785584022.338,-0.058,0.141,0.208,-1.2193621203925509,-6.341647662468125,-6.329582551580249
1621785584026.435,-0.03704973534405273,0.15608419055228204,0.18621172475781483,-1.334,-6.296,-6.355
1621785584027.227,-0.033,0.159,0.182,-1.3389145436557013,-6.308286359139253,-6.353997031907
1621785584032.115,-0.024,0.178,0.164,-1.369245640613406,-6.384114101533515,-6.347807012119714
1621785584037.004,-0.016,0.195,0.157,-1.3995827974276527,-6.459956993569132,-6.34161575562701
1621785584041.892,-0.014,0.202,0.155,-1.4299154093494928,-6.535788523373733,-6.3354254266633685
1621785584042.228,-0.014137455671544879,0.20275600619349685,0.15451890514959293,-1.432,-6.541,-6.335
1621785584046.78,-0.016,0.213,0.148,-1.46025349455715,-6.7079262586590795,-6.2784930108857
1621785584051.667,-0.01,0.202,0.155,-1.490586034141514,-6.887135854774864,-6.217827931716972
1621785584056.554,0.0,0.185,0.164,-1.5209185737258784,-7.0663454508906485,-6.157162852548244
1621785584058.017,0.0029939551381325874,0.18020967177898786,0.16459879102762653,-1.53,-7.12,-6.139
1621785584061.441,0.01,0.169,0.166,-1.4831484958626557,-7.177262949501199,-6.151797401593071
1621785584066.327,0.033,0.164,0.176,-1.4162888871703658,-7.258980249013997,-6.1700599798932805
1621785584071.213,0.068,0.157,0.178,-1.349429278478076,-7.340697548526796,-6.188322558193489
1621785584073.802,0.08919516338563006,0.15541036274607775,0.17429084640751474,-1.314,-7.384,-6.198
1621785584076.099,0.108,0.154,0.171,-1.2412143575462211,-7.371189726928136,-6.250842376421444
1621785584080.983,0.159,0.152,0.168,-1.086468476831438,-7.343954451922333,-6.363187885820376
1621785584085.868,0.208,0.166,0.171,-0.9316839173822232,-7.316712369459272,-6.475561475980506
1621785584089.582,0.2452625343664084,0.1766464383904024,0.16415586103474133,-0.814,-7.296,-6.561
1621785584090.752,0.257,0.18,0.162,-0.8256413263806148,-7.28146687916815,-6.566783588902471
1621785584095.636,0.302,0.175,0.161,-0.8742399770993547,-7.2207959521562195,-6.590928141488852
1621785584100.52,0.34,0.171,0.157,-0.9228386278180946,-7.160125025144289,-6.615072694075232
1621785584105.36,0.3836128193590321,0.181903204839758,0.15402639868006598,-0.971,-7.1,-6.639
1621785584105.403,0.384,0.182,0.154,-0.9728688047549763,-7.09828919914559,-6.639482184317246
1621785584110.285,0.412,0.178,0.145,-1.1851905086214902,-6.903918892982076,-6.6942648979970905
1621785584115.168,0.431,0.175,0.131,-1.3975653035321796,-6.709499984521561,-6.749061310095038
1621785584120.049,0.433,0.176,0.122,-1.6098551527721883,-6.515158839736248,-6.803835804724019
1621785584121.133,0.4278929785957191,0.17644408881776355,0.12444248849769954,-1.657,-6.472,-6.816
1621785584124.931,0.41,0.178,0.133,-1.6358029296542327,-6.4532116876480705,-6.898620399188616
1621785584129.812,0.363,0.187,0.143,-1.6085598705501618,-6.4290644307149165,-7.004806413651074
1621785584134.692,0.288,0.182,0.169,-1.5813236245954692,-6.404923212709621,-7.110965872315386
1621785584136.9,0.24683539238733554,0.18788065823038064,0.1879990496673836,-1.569,-6.394,-7.159
1621785584139.573,0.197,0.195,0.211,-1.4226719577538947,-6.591873493975903,-7.4350394586056305
1621785584144.453,0.08,0.188,0.288,-1.1555420912441539,-6.9531024096385545,-7.938964629727135
1621785584149.332,-0.012,0.185,0.342,-0.8884523182705113,-7.314277108433735,-8.442814166692477
1621785584152.665,-0.0345393235941565,0.1829509705823494,0.3590752451470883,-0.706,-7.561,-8.787
1621785584154.212,-0.045,0.182,0.367,-0.628072215251638,-7.592799247176913,-9.0535640596682
1621785584159.09,-0.014,0.208,0.38,-0.3823217311832954,-7.693080301129235,-9.894191660083338
1621785584163.969,0.054,0.23,0.403,-0.13653434948959842,-7.793376411543287,-10.734945474541878
1621785584168.426,0.1462850850850851,0.21263943943943944,0.41396456456456454,0.088,-7.885,-11.503
1621785584168.847,0.155,0.211,0.415,0.058130300024795425,-7.8585233696999754,-11.500648896603025
1621785584173.724,0.314,0.176,0.391,-0.28798744730969505,-7.551723112447309,-11.473405281428217
1621785584178.602,0.511,0.162,0.347,-0.6341571720803374,-7.2448767821720805,-11.446157575006199
1621785584183.478,0.71,0.173,0.316,-0.980188290354575,-6.938153313290355,-11.41892077857674
1621785584184.18,0.7334594012815379,0.17472707248698438,0.3149925410492591,-1.03,-6.894,-11.415
1621785584188.355,0.873,0.185,0.309,-0.686808644175487,-6.496481055029522,-10.547083636814454
1621785584193.231,0.972,0.201,0.319,-0.28600063537324316,-6.032224674177502,-9.533457205287545
1621785584198.107,0.993,0.232,0.337,0.11480737342900071,-5.567968293325482,-8.519830773760635
1621785584199.934,0.9753844150641026,0.25298878205128206,0.35086758814102564,0.265,-5.394,-8.14
1621785584202.982,0.946,0.288,0.374,0.4206169242933999,-5.145283895874355,-7.553339679684957
1621785584207.856,0.864,0.367,0.415,0.669474363943627,-4.747545326284128,-6.615171894137894
1621785584212.731,0.761,0.438,0.457,0.9183816648320129,-4.3497270655359,-5.676816136684289
1621785584215.681,0.6859503105590062,0.47915628130635146,0.4806043378080545,1.069,-4.109,-5.109
1621785584217.605,0.637,0.506,0.496,1.0642335618137833,-4.008293716270702,-5.0455697072141925
1621785584222.479,0.508,0.555,0.527,1.0521593108367968,-3.7531864648595,-4.884889290366602
1621785584227.352,0.363,0.59,0.557,1.0400874790645742,-3.498130326902798,-4.724241067551641
1621785584231.424,0.23598557114228458,0.5941781062124248,0.5787261523046092,1.03,-3.285,-4.59
1621785584232.225,0.211,0.595,0.583,1.0259791042923847,-3.329942416580054,-4.603945891441602
1621785584237.097,0.047,0.613,0.606,1.0015240680700557,-3.603281618913175,-4.688764624668415
1621785584241.97,-0.106,0.628,0.614,0.9770629043016924,-3.876689310146906,-4.773604610396662
1621785584246.841,-0.262,0.658,0.62,0.9526115446069838,-4.149987419139662,-4.858410592122613
1621785584247.162,-0.2705008769731897,0.6600428464044099,0.61960461037334,0.951,-4.168,-4.864
1621785584251.713,-0.391,0.689,0.614,0.7297219515222991,-4.562250954346545,-5.462463114118122
1621785584256.583,-0.473,0.714,0.607,0.4929164520033519,-4.984167158064616,-6.102921386673287
1621785584261.454,-0.506,0.71,0.583,0.2560634679246455,-5.406167964991775,-6.743508084789423
1621785584262.895,-0.5033370431643857,0.7055617386073093,0.568501679450544,0.186,-5.531,-6.933
1621785584266.324,-0.497,0.695,0.534,-0.025706277748455436,-5.772576267502871,-7.371456564935267
1621785584271.194,-0.436,0.684,0.482,-0.3263909932006583,-6.115685088018877,-7.994192880871807
1621785584276.064,-0.353,0.663,0.426,-0.6270606352261792,-6.458776708373436,-8.616897978825795
1621785584278.622,-0.3015007272180149,0.6551174582476553,0.39394433020713177,-0.785,-6.639,-8.944
1621785584280.932,-0.255,0.648,0.365,-0.8656310192803254,-6.777350492098482,-8.956924462106866
1621785584285.801,-0.155,0.625,0.3,-1.0356030146853366,-7.068996429569375,-8.98416951783663
1621785584290.669,-0.054,0.616,0.229,-1.205532397777019,-7.360569250830514,-9.011407743177372
1621785584294.349,0.009501303911735197,0.6084403209628887,0.18364192577733202,-1.334,-7.581,-9.032
1621785584295.537,0.03,0.606,0.169,-1.3414051275680545,-7.566114182337687,-9.028297436215972
1621785584300.405,0.108,0.595,0.103,-1.3717484976008198,-7.505117816047332,-9.01312575119959
1621785584305.272,0.195,0.571,0.054,-1.4020857803934965,-7.444133686351849,-8.997957109803252
1621785584310.071,0.27981772113792586,0.5463436857157192,0.0007423611459535379,-1.432,-7.384,-8.983
1621785584310.138,0.281,0.546,0.0,-1.431331821500132,-7.380914462341375,-8.979867647287243
1621785584315.005,0.353,0.517,-0.058,-1.3827181777232413,-7.156424706046815,-8.751971839517871
1621785584319.87,0.407,0.471,-0.105,-1.3341216041999968,-6.932013777356674,-8.524156055357947
1621785584324.735,0.433,0.435,-0.141,-1.285527469284416,-6.707614109752877,-8.296351703142232
1621785584325.789,0.4334331945210978,0.42698590135969094,-0.14641493151372234,-1.275,-6.659,-8.247
1621785584329.601,0.435,0.398,-0.166,-1.151271908017402,-6.463946302050963,-8.001969857054071
1621785584334.465,0.408,0.367,-0.178,-0.9933985394655065,-6.215063579863269,-7.689318676196395
1621785584339.33,0.398,0.346,-0.178,-0.8354934742075824,-5.966130888750778,-7.376604723430702
1621785584341.502,0.3872835416352959,0.3379626562264719,-0.17978607639411734,-0.765,-5.855,-7.237
1621785584344.194,0.374,0.328,-0.182,-0.7213046214569866,-5.7574993318000995,-7.1547498756837395
1621785584349.057,0.333,0.314,-0.176,-0.6423779369716559,-5.581384494654401,-7.00618199900547
1621785584353.921,0.297,0.297,-0.171,-0.5634314395822974,-5.4052254475385375,-6.85757682744903
1621785584357.213,0.27465643986944516,0.287520913884007,-0.17370831031885514,-0.51,-5.286,-6.757
1621785584358.783,0.264,0.283,-0.175,-0.4894083250435215,-5.264408729171848,-6.7285115176572985
1621785584363.646,0.23,0.258,-0.173,-0.4256288858492912,-5.197533200696344,-6.64027297314101
1621785584368.508,0.176,0.232,-0.183,-0.3618622544143248,-5.130671101715991,-6.552052148097489
1621785584372.92,0.13787935710698143,0.22110838774485184,-0.17846182822702158,-0.304,-5.07,-6.472
1621785584373.369,0.134,0.22,-0.178,-0.28661641791044773,-5.07700489738806,-6.461649906716418
1621785584378.23,0.099,0.209,-0.183,-0.09840298507462686,-5.152847481343284,-6.349588619402986
1621785584383.091,0.051,0.204,-0.185,0.08981044776119407,-5.228690065298508,-6.237527332089552
1621785584387.951,-0.002,0.192,-0.183,0.2779766169154229,-5.304513603855722,-6.125494185323383
1621785584388.623,-0.008774998744412635,0.19296785696348753,-0.1828617347195018,0.304,-5.315,-6.11
1621785584392.812,-0.051,0.199,-0.182,0.4112525073471101,-5.351551227628244,-6.115069148357202
1621785584397.671,-0.094,0.206,-0.175,0.5356574147501982,-5.393947924927306,-6.120948982289188
1621785584402.531,-0.124,0.215,-0.178,0.6600935765265661,-5.436355273592387,-6.126830293417922
1621785584404.324,-0.12916715247763594,0.2186908231983114,-0.17984541159915568,0.706,-5.452,-6.129
1621785584407.389,-0.138,0.225,-0.183,0.769274831604001,-5.478950391238741,-6.153997464337383
1621785584412.247,-0.147,0.234,-0.19,0.8695700262899989,-5.5216687149012955,-6.193620257299752
1621785584417.106,-0.152,0.243,-0.188,0.9698803416144237,-5.564393478835773,-6.233249023847673
1621785584420.018,-0.15379873328641802,0.24479873328641802,-0.188,1.03,-5.59,-6.257
1621785584421.963,-0.155,0.246,-0.188,1.0578878170219388,-5.592354971215186,-6.244853306363778
1621785584426.82,-0.168,0.243,-0.182,1.1275373424614905,-5.598236486696748,-6.2145170686167726
1621785584431.677,-0.173,0.246,-0.175,1.1971833670452776,-5.60411770655049,-6.1841823556869455
1621785584435.709,-0.18877601809954753,0.2443393665158371,-0.16752714932126697,1.255,-5.609,-6.159
1621785584436.533,-0.192,0.244,-0.166,1.2534781932675114,-5.616766461945113,-6.150236492264635
1621785584441.39,-0.216,0.246,-0.157,1.2445078753012515,-5.662546015703957,-6.098579833631345
1621785584446.245,-0.251,0.239,-0.155,1.2355407136748815,-5.708309461245433,-6.046941351162248
1621785584451.107,-0.288,0.227,-0.15,1.2265613775946513,-5.7541350384824685,-5.995232760631268
1621785584451.411,-0.29025278755868544,0.22687822769953053,-0.14939113849765256,1.226,-5.757,-5.992
1621785584456.099,-0.325,0.225,-0.14,1.208849533007372,-5.853798398449917,-6.074554790269599
1621785584461.09,-0.356,0.223,-0.136,1.1905916047289626,-5.956847383478905,-6.1624404111351625
1621785584466.082,-0.384,0.202,-0.131,1.1723301039947926,-6.059916531690408,-6.250343228228456
1621785584467.539,-0.39013060705375924,0.1949935919385609,-0.13158386733845326,1.167,-6.09,-6.276
1621785584471.073,-0.405,0.178,-0.133,1.0981966394187104,-6.169540190735694,-6.398487511353315
1621785584476.065,-0.412,0.154,-0.14,1.001006842264608,-6.281896548592189,-6.571510112019376
1621785584481.057,-0.412,0.124,-0.141,0.9038170451105056,-6.394252906448683,-6.744532712685437
1621785584483.667,-0.40363458528951485,0.10465497848200313,-0.1483197378716745,0.853,-6.453,-6.835
1621785584486.049,-0.396,0.087,-0.155,0.7878647138964577,-6.512375022706631,-6.8683799878897975
1621785584491.04,-0.375,0.061,-0.171,0.6513923705722071,-6.63677838328792,-6.938318195579776
1621785584496.033,-0.34,0.021,-0.188,0.514866621253406,-6.761230426884651,-7.008283772328187
1621785584499.795,-0.3098557245561696,-0.006883454785543114,-0.20005771017753216,0.412,-6.855,-7.061
1621785584501.025,-0.3,-0.016,-0.204,0.416498963205134,-6.86918317213822,-7.061
1621785584506.017,-0.251,-0.056,-0.213,0.4347591457415732,-6.926749171320893,-7.061
1621785584511.008,-0.201,-0.089,-0.223,0.4530148632490275,-6.984301094310494,-7.061
1621785584515.925,-0.14782118233827196,-0.1303613026257885,-0.21807603540169185,0.471,-7.041,-7.061
1621785584516.001,-0.147,-0.131,-0.218,0.47081170914815035,-7.041644896167585,-7.058919386087061
1621785584520.992,-0.099,-0.161,-0.213,0.45843476418235757,-7.084035932675426,-6.922154144215051
1621785584525.984,-0.068,-0.188,-0.204,0.4460553974692741,-7.126435263667736,-6.785362142035479
1621785584530.977,-0.038,-0.211,-0.187,0.4336730035720773,-7.168844962765635,-6.648536689471453
1621785584532.055,-0.03281680770924032,-0.2155352932544147,-0.1839764711637235,0.431,-7.178,-6.619
1621785584535.968,-0.014,-0.232,-0.173,0.4239643230152123,-7.1971661545447665,-6.569265042004087
1621785584540.961,0.014,-0.241,-0.157,0.41498711874668887,-7.221621297207296,-6.505805494588662
1621785584545.953,0.051,-0.244,-0.141,0.4060116703246803,-7.246071656701733,-6.442358359191704
1621785584548.184,0.06664285015649452,-0.2471285700312989,-0.13474285993740218,0.402,-7.257,-6.414
1621785584550.945,0.086,-0.251,-0.127,0.4406872426737709,-7.22670069932187,-6.410576350205861
1621785584555.937,0.131,-0.246,-0.115,0.5106348994914023,-7.171918684911601,-6.404386292080407
1621785584560.929,0.168,-0.244,-0.096,0.5805825563090337,-7.117136670501332,-6.398196233954953
1621785584564.313,0.18900973009974575,-0.23722266770975944,-0.08922266770975944,0.628,-7.08,-6.394
1621785584565.922,0.199,-0.234,-0.086,0.6524428887139744,-7.04967086461613,-6.380331935698717
1621785584570.914,0.227,-0.223,-0.068,0.7282711007507872,-6.955581981109227,-6.337930037539356
1621785584575.906,0.25,-0.211,-0.058,0.8040993127875999,-6.861493097602325,-6.295528139379995
1621785584580.442,0.2627209859637111,-0.19646173032718736,-0.04618765589083973,0.873,-6.776,-6.257
1621785584580.898,0.264,-0.195,-0.045,0.8779758297640489,-6.767970820153466,-6.259770632482254
1621785584585.89,0.278,-0.176,-0.03,0.9324409214051125,-6.680083967732659,-6.290097785782392
1621785584590.883,0.29,-0.162,-0.023,0.9869193316483283,-6.592175623931106,-6.320432355122365
1621785584595.875,0.291,-0.157,-0.017,1.0413844232893918,-6.504288771510299,-6.350759508422502
1621785584596.573,0.2919787743923314,-0.15434332664938621,-0.017559299652760797,1.049,-6.492,-6.355
1621785584600.867,0.298,-0.138,-0.021,1.022909784451441,-6.358886655364495,-6.623888956163721
1621785584605.86,0.302,-0.119,-0.028,0.9925710825865827,-6.204097360135626,-6.936563332526036
1621785584610.852,0.312,-0.101,-0.028,0.9622397977718575,-6.049345906999274,-7.249161267861468
1621785584612.702,0.31533445797271525,-0.09581306537577625,-0.02911148599090509,0.951,-5.992,-7.365
1621785584615.845,0.321,-0.087,-0.031,0.6472181053141413,-5.9288663669799755,-7.363051431079629
1621785584620.837,0.318,-0.103,-0.052,0.16473959042818875,-5.828595014303229,-7.359956636243927
1621785584625.829,0.293,-0.182,-0.087,-0.31776252100077185,-5.728318757662444,-7.356861690051311
1621785584628.832,0.26352955845679915,-0.24875957165908757,-0.12729631802845826,-0.608,-5.668,-7.355
1621785584630.822,0.244,-0.293,-0.154,-0.766534161772719,-5.795074075195253,-7.254574468729189
1621785584635.814,0.192,-0.414,-0.234,-1.1642213174305263,-6.113842768057154,-7.002654356117939
1621785584640.808,0.154,-0.518,-0.318,-1.562083520009687,-6.432751770902707,-6.750623357752619
1621785584644.962,0.1431826673839683,-0.5720866630801584,-0.38290399569619016,-1.893,-6.698,-6.541
1621785584645.8,0.141,-0.583,-0.396,-1.9118629228789827,-6.666405903277076,-6.6556844925452205
1621785584650.792,0.145,-0.623,-0.466,-2.024210777264815,-6.478230984636343,-7.338747067282222
1621785584655.785,0.145,-0.649,-0.518,-2.1365806100052978,-6.290019253765231,-8.021943267993642
1621785584660.777,0.136,-0.675,-0.565,-2.2489339589797925,-6.1018351320669035,-8.705039249224248
1621785584661.091,0.1346794777761479,-0.6774523984157255,-0.5680812185223216,-2.256,-6.09,-8.748
1621785584665.77,0.115,-0.714,-0.614,-2.3781162519675503,-5.734383551277395,-8.98672131916697
1621785584670.763,0.091,-0.756,-0.682,-2.508426686039472,-5.354904710013319,-9.241461193849133
1621785584675.755,0.079,-0.799,-0.763,-2.6387116327642572,-4.9755000908100255,-9.496151244097348
1621785584677.222,0.08135001955416504,-0.806931315995307,-0.7838564235432147,-2.677,-4.864,-9.571
1621785584680.749,0.087,-0.826,-0.834,-2.443246757178102,-4.874714601401565,-9.337246757178102
1621785584685.741,0.129,-0.846,-0.892,-2.1124131892415505,-4.8898790960965055,-9.00641318924155
1621785584690.733,0.182,-0.838,-0.934,-1.7815796213049995,-4.905043590791445,-8.675579621305
1621785584693.352,0.20717324990222918,-0.8432444270629644,-0.9465866249511146,-1.608,-4.913,-8.502
1621785584695.727,0.23,-0.848,-0.958,-1.4304366146022522,-4.823482140695,-8.333123380554547
1621785584700.719,0.251,-0.843,-0.967,-1.0572213040319651,-4.635327158251604,-7.978166530451629
1621785584705.713,0.243,-0.827,-0.962,-0.683859970940792,-4.447098559147596,-7.623070801549825
1621785584709.483,0.20599598982785602,-0.8209585289514867,-0.9431204029733959,-0.402,-4.305,-7.355
1621785584710.705,0.194,-0.819,-0.937,-0.35594064859793284,-4.332499250919326,-7.260684387342807
1621785584715.698,0.11,-0.801,-0.918,-0.16777448888485347,-4.444841875879602,-6.875377037272439
1621785584720.691,0.017,-0.775,-0.878,0.020391670828225905,-4.557184500839878,-6.4900696872020704
1621785584725.616,-0.0895266966555838,-0.7335729513006063,-0.8276957265793076,0.206,-4.668,-6.11
1621785584725.684,-0.091,-0.733,-0.827,0.20819575318208647,-4.675617574500931,-6.1109500855114804
1621785584730.676,-0.204,-0.714,-0.756,0.3691153421215928,-5.233884763821834,-6.180578753802613
1621785584735.67,-0.316,-0.691,-0.693,0.5300978917258184,-5.792370378218032,-6.2502346646890565
1621785584740.663,-0.391,-0.634,-0.632,0.6910568310807743,-6.350774083210994,-6.319880359602258
1621785584741.747,-0.39773023324042833,-0.6244474108845534,-0.6148487604518117,0.726,-6.472,-6.335
1621785584745.656,-0.422,-0.59,-0.553,0.8185631394152189,-6.857033582541316,-6.743780147103336
1621785584750.649,-0.417,-0.559,-0.475,0.9367949028391549,-7.348840577516799,-7.265918851020038
1621785584755.641,-0.377,-0.532,-0.394,1.0550093225982202,-7.840575428294691,-7.787980961317271
1621785584757.879,-0.3487693473478367,-0.5275189440234662,-0.3675617697384503,1.108,-8.061,-8.022
1621785584760.635,-0.314,-0.522,-0.335,1.0494033231942617,-8.195106097062697,-8.186173196531529
1621785584765.628,-0.223,-0.52,-0.279,0.9432503745403369,-8.438050892086984,-8.48358714305171
1621785584770.622,-0.112,-0.511,-0.222,0.8370714728893328,-8.681055083912169,-8.78107380336254
1621785584774.012,-0.03392191090900201,-0.505568480758887,-0.17922678597623587,0.765,-8.846,-8.983
1621785584775.615,0.003,-0.503,-0.159,0.6997185726608254,-8.76024981462145,-9.049275056370213
1621785584780.607,0.115,-0.497,-0.099,0.49642747537113546,-8.493217520921293,-9.255660386495363
1621785584785.601,0.213,-0.492,-0.052,0.2930468969900577,-8.226067689653608,-9.462136559676761
1621785584790.145,0.28944653073199356,-0.4892697667595716,-0.03470852281062051,0.108,-7.983,-9.65
1621785584790.594,0.297,-0.489,-0.033,0.10418684162731566,-7.9516040682891385,-9.635526698147476
1621785584795.588,0.351,-0.499,-0.019,0.06177348952657707,-7.602390483109335,-9.47454171207168
1621785584800.581,0.365,-0.517,0.005,0.01936635791258022,-7.253228114783872,-9.313580336602495
1621785584805.574,0.368,-0.513,0.035,-0.023038700205836052,-6.9040828187431895,-9.152626831335514
1621785584806.276,0.36968654673445445,-0.5120161810715682,0.03668654673445444,-0.029,-6.855,-9.13
1621785584810.568,0.38,-0.506,0.047,-0.03964144662177499,-6.695910373004464,-8.764732344707575
1621785584815.561,0.393,-0.51,0.045,-0.052020049935688886,-6.510850253461451,-8.339836785957479
1621785584820.554,0.408,-0.504,0.049,-0.0643986532496028,-6.325790133918439,-7.914941227207384
1621785584822.41,0.4172924897320555,-0.4943358106786622,0.04974339917856444,-0.069,-6.257,-7.757
1621785584825.547,0.433,-0.478,0.051,0.022584323220095334,-6.213055080578043,-7.461441249905425
1621785584830.542,0.433,-0.443,0.059,0.1683993947189226,-6.143088613149731,-6.990870318529167
1621785584835.535,0.41,-0.415,0.087,0.3141574487402588,-6.073149504426118,-6.520483392600439
1621785584838.544,0.38167636416976336,-0.38908688636808136,0.10929733033444161,0.402,-6.031,-6.237
1621785584840.528,0.363,-0.372,0.124,0.39240655598771135,-5.967043706584742,-6.162220333852929
1621785584845.522,0.295,-0.332,0.164,0.3682606353194001,-5.806070902129334,-5.974005977874298
1621785584850.515,0.23,-0.295,0.208,0.3441194364150915,-5.64512957610061,-5.785828427440713
1621785584854.676,0.1733421978881502,-0.2616718811106766,0.23216288619475947,0.324,-5.511,-5.629
1621785584855.509,0.162,-0.255,0.237,0.2769101557179825,-5.493289674793057,-5.62393990708373
1621785584860.502,0.094,-0.225,0.25,-0.005339083851636617,-5.387136726139133,-5.5936104931826085
