time,gyro_x,gyro_y,gyro_z,acc_x,acc_y,acc_z
1621785714162.157,,,,-0.814,-5.796,-5.109
1621785714180.747,,,,-1.03,-6.07,-4.746
1621785714199.616,0.581,-0.073,0.417,-1.431490909090909,-6.413564360018091,-5.226390863862506
1621785714199.64,0.5808096930132628,-0.07297165640623063,0.41699190183035156,-1.432,-6.414,-5.227
1621785714205.525,0.534,-0.066,0.415,-1.3838727665797672,-6.600378075920392,-5.380271444013481
1621785714211.464,0.494,-0.047,0.417,-1.3353022954155274,-6.788472639409932,-5.534954473198957
1621785714217.431,0.456,-0.03,0.428,-1.286506212246455,-6.977440910536021,-5.6903560119539645
1621785714218.838,0.4456754071661238,-0.023664454397394136,0.43198904723127035,-1.275,-7.022,-5.727
1621785714223.427,0.412,-0.003,0.445,-1.1364148005357433,-7.07729290640764,-5.78017530573671
1621785714229.453,0.37,0.021,0.466,-0.9544410870082238,-7.149897019614715,-5.84999883588479
1621785714235.507,0.323,0.044,0.497,-0.7716121368398653,-7.222842356269323,-5.920150521348371
1621785714238.342,0.30110287273310865,0.056113304445514364,0.5128404750441342,-0.686,-7.257,-5.953
1621785714241.592,0.276,0.07,0.531,-0.699572453667854,-7.26043606421971,-5.94956393578029
1621785714247.705,0.222,0.091,0.56,-0.72510134995612,-7.266899075938258,-5.943100924061742
1621785714253.329,0.178,0.105,0.588,-0.7485880568891642,-7.272845077693459,-5.937154922306541
1621785714257.259,0.1451917172593235,0.10709414570685169,0.6012629228100607,-0.765,-7.277,-5.933
1621785714258.959,0.131,0.108,0.607,-0.8125652977577754,-7.280637346299124,-5.921994695812907
1621785714264.596,0.094,0.11,0.637,-0.9702897211283452,-7.292698625733344,-5.88550159393501
1621785714270.239,0.072,0.129,0.654,-1.12818492325002,-7.3047729647191195,-5.848968978542152
1621785714275.486,0.048774444540503156,0.13736119996541887,0.6725804443675976,-1.275,-7.316,-5.815
1621785714275.887,0.047,0.138,0.674,-1.2822987519188414,-7.309972502169125,-5.8145835546953215
1621785714281.541,0.033,0.148,0.693,-1.3852413802309282,-7.224959821130614,-5.808709951278115
1621785714287.201,0.021,0.162,0.703,-1.4882906894480412,-7.139859040245612,-5.802830260962424
1621785714292.867,-0.002,0.176,0.709,-1.591451124607889,-7.054666488687179,-5.796944230127478
1621785714293.776,-0.005365170231997589,0.1785639392243791,0.7106024620152369,-1.608,-7.041,-5.796
1621785714298.539,-0.023,0.192,0.719,-1.6207170298241413,-7.02568765796685,-5.727224226461277
1621785714304.219,-0.044,0.199,0.724,-1.6358816479101819,-7.007428219863251,-5.645211495995956
1621785714309.902,-0.063,0.208,0.731,-1.6510547396706308,-6.989158578763934,-5.563152938515976
1621785714312.129,-0.06847807807807808,0.20565225225225225,0.7353042042042042,-1.657,-6.982,-5.531
1621785714315.593,-0.077,0.202,0.742,-1.657,-6.976545007423905,-5.505229862657758
1621785714321.288,-0.091,0.204,0.747,-1.657,-6.967576890444374,-5.4628632410648
1621785714326.99,-0.099,0.216,0.749,-1.657,-6.95859800880263,-5.4204457657227705
1621785714330.545,-0.099,0.22845594525235244,0.7521139863130881,-1.657,-6.953,-5.394
1621785714332.698,-0.099,0.236,0.754,-1.635327114657929,-6.927831487989853,-5.391669582221283
1621785714338.412,-0.113,0.253,0.761,-1.5778088153687604,-6.861036043654044,-5.385484818856856
1621785714344.133,-0.122,0.276,0.773,-1.5202217054673257,-6.79416069022012,-5.379292656501863
1621785714349.023,-0.12541602353643458,0.28795608237752096,0.7806860529569778,-1.471,-6.737,-5.374
1621785714349.859,-0.126,0.29,0.782,-1.4763204108506716,-6.73258135370029,-5.37841864629971
1621785714355.591,-0.138,0.316,0.787,-1.512803450092178,-6.70228188043192,-5.40871811956808
1621785714361.329,-0.145,0.34,0.799,-1.5493237819331052,-6.671951435343693,-5.439048564656308
1621785714367.072,-0.157,0.375,0.808,-1.585875190940216,-6.6415951804055835,-5.469404819594417
1621785714367.563,-0.1567438434103261,0.37739079483695653,0.8083415421195652,-1.589,-6.639,-5.472
1621785714372.822,-0.154,0.403,0.812,-1.6803209476309227,-6.6030936212101325,-5.557949127182045
1621785714378.578,-0.148,0.415,0.819,-1.7802690773067331,-6.563795130594566,-5.652017955112219
1621785714384.341,-0.141,0.433,0.819,-1.8803443890274314,-6.524446633416458,-5.746206483790523
1621785714386.164,-0.14005164895643707,0.4361611701452098,0.8171032979128741,-1.912,-6.512,-5.776
1621785714390.108,-0.138,0.443,0.813,-1.9804598964055877,-6.482841155234657,-5.821639930937058
1621785714395.882,-0.127,0.459,0.812,-2.0806917281431487,-6.440149819494584,-5.888461152095433
1621785714401.661,-0.108,0.457,0.798,-2.181004080991995,-6.3974241877256315,-5.955336053994663
1621785714404.829,-0.09869160337552743,0.4580951054852321,0.7919769198312236,-2.236,-6.374,-5.992
1621785714407.447,-0.091,0.459,0.787,-2.2922006492744553,-6.337092110924238,-6.045404597071746
1621785714413.24,-0.075,0.463,0.77,-2.416562209097665,-6.255421832831384,-6.163579014615194
1621785714419.037,-0.066,0.44,0.747,-2.54101286815035,-6.173693041811711,-6.281838098590631
1621785714423.555,-0.054323938922306816,0.4329943633533841,0.7283183022756909,-2.638,-6.11,-6.374
1621785714424.841,-0.051,0.431,0.723,-2.6258809981804,-6.130814556797505,-6.398854224070704
1621785714430.65,-0.037,0.415,0.703,-2.5711453470236547,-6.224823810761633,-6.5111086950870805
1621785714436.463,-0.016,0.421,0.684,-2.5163705874707563,-6.318900233948531,-6.623443371458279
1621785714442.281,0.012,0.414,0.661,-2.4615475175461397,-6.413059630881206,-6.735877125032493
1621785714442.339,0.012369085041284212,0.4140698268997024,0.6608104698436649,-2.461,-6.414,-6.737
1621785714448.106,0.049,0.421,0.642,-2.3621404711309215,-6.582030592412148,-6.6620136700528665
1621785714453.938,0.077,0.415,0.632,-2.2621634834663626,-6.751960518814139,-6.586179732041049
1621785714459.774,0.108,0.415,0.62,-2.1621195319788535,-6.922004262983311,-6.510295001036591
1621785714461.181,0.11594763675874462,0.41307330017969823,0.6190366500898491,-2.138,-6.963,-6.492
1621785714465.616,0.141,0.407,0.616,-1.9768320268612385,-7.036663382191516,-6.455168308904242
1621785714471.464,0.178,0.387,0.595,-1.7643131658810616,-7.1337971847355846,-6.406601407632207
1621785714477.318,0.251,0.386,0.579,-1.5515813779298768,-7.231028307612837,-6.357985846193582
1621785714480.086,0.28831451545704523,0.39497437713523875,0.583251020748271,-1.451,-7.277,-6.335
1621785714483.178,0.33,0.405,0.588,-1.460619276270903,-7.179339890063208,-6.2534807095686205
1621785714489.045,0.387,0.415,0.586,-1.4788712168998854,-6.994036289440146,-6.098803246611141
1621785714494.916,0.393,0.414,0.578,-1.4971360693090974,-6.808601601421197,-5.94401636178731
1621785714499.051,0.36978513872736335,0.4090756354876225,0.5667443096859944,-1.51,-6.678,-5.835
1621785714500.794,0.36,0.407,0.562,-1.4660304873354377,-6.667282431288013,-5.86284735802089
1621785714506.677,0.325,0.415,0.55,-1.3176156748017553,-6.631106320732928,-5.956843405958888
1621785714512.566,0.298,0.442,0.555,-1.1690530448841328,-6.594894179690507,-6.0509330715733824
1621785714518.078,0.29052107660455484,0.45976244306418224,0.5634137888198757,-1.03,-6.561,-6.139
1621785714518.462,0.29,0.461,0.564,-1.0291952008800092,-6.568102352233919,-6.130710569064095
1621785714524.363,0.281,0.468,0.572,-1.016828513321651,-6.677238369936429,-6.003333687213006
1621785714530.27,0.286,0.487,0.581,-1.0044495465650223,-6.786482751563679,-5.8758303296197285
1621785714536.182,0.288,0.494,0.583,-0.9920603471431678,-6.895817436461544,-5.748221575574629
1621785714537.165,0.28683732728397604,0.49283732728397606,0.5826678077954217,-0.99,-6.914,-5.727
1621785714542.101,0.281,0.487,0.581,-1.041805962383913,-6.792768788533077,-5.781172732239016
1621785714548.025,0.279,0.492,0.567,-1.1039792669285398,-6.647276943888036,-5.846186441559793
1621785714553.685,0.286,0.496,0.564,-1.163385213704118,-6.508260997372597,-5.90830636559923
1621785714555.935,0.2840116504854369,0.499181359223301,0.5624093203883495,-1.187,-6.453,-5.933
1621785714559.343,0.281,0.504,0.56,-1.206949152542373,-6.431,-5.836050847457627
1621785714565.0,0.279,0.504,0.557,-1.2400634023854362,-6.394481481481481,-5.675121782799749
1621785714570.656,0.267,0.51,0.543,-1.2731719357294546,-6.35796926713948,-5.514220499258725
1621785714574.214,0.2519019726334873,0.5144035913152328,0.5354509863167437,-1.294,-6.335,-5.413
1621785714576.312,0.243,0.517,0.531,-1.3379795143853648,-6.293317066000294,-5.408521668247966
1621785714581.967,0.208,0.532,0.525,-1.4565292050298666,-6.180957959723652,-5.39645002873064
1621785714587.622,0.173,0.539,0.515,-1.5750788956743682,-6.068598853447009,-5.384378389213315
1621785714592.484,0.13687092872570195,0.5450215118790497,0.5106989200863931,-1.677,-5.972,-5.374
1621785714593.274,0.131,0.546,0.51,-1.689718017271342,-5.97368708392375,-5.380791594257145
1621785714598.927,0.089,0.565,0.492,-1.7807210116835548,-5.985758909713125,-5.429388431409245
1621785714604.578,0.059,0.592,0.475,-1.8716886346015027,-5.997826043365506,-5.4779663797021625
1621785714610.229,0.031,0.607,0.459,-1.96266018768548,-6.009893698366441,-5.5265464267572115
1621785714610.747,0.028340392428040453,0.6086507909067335,0.4575326303051258,-1.971,-6.011,-5.531
1621785714615.878,0.002,0.625,0.443,-1.995736611203253,-6.04698052538655,-5.644001337542132
1621785714621.527,-0.019,0.641,0.429,-2.0229720721202717,-6.0865957412658505,-5.76841787491306
1621785714627.176,-0.037,0.644,0.415,-2.0502063560002144,-6.1262092450912204,-5.892829035364614
1621785714629.0,-0.04152200605274535,0.6456150021616948,0.40886299178555985,-2.059,-6.139,-5.933
1621785714632.823,-0.051,0.649,0.396,-2.048731528445057,-6.163728155989454,-6.00089764864901
1621785714638.469,-0.066,0.648,0.382,-2.0335665323929715,-6.200247942400599,-6.101172316421985
1621785714644.115,-0.077,0.63,0.367,-2.0184015363408854,-6.236767728811745,-6.20144698419496
1621785714647.243,-0.077,0.6233507482051726,0.3570261223077588,-2.01,-6.257,-6.257
1621785714649.76,-0.077,0.618,0.349,-1.998783005314326,-6.257,-6.27382549202851
1621785714655.403,-0.075,0.6,0.328,-1.9736356129608188,-6.257,-6.311546580558771
1621785714661.048,-0.073,0.592,0.312,-1.9484795168287001,-6.257,-6.34928072475695
1621785714664.746,-0.0722429906542056,0.5783738317757009,0.2976168224299065,-1.932,-6.257,-6.374
1621785714665.933,-0.072,0.574,0.293,-1.9333293233082707,-6.241978646616541,-6.380513684210526
1621785714671.462,-0.072,0.553,0.264,-1.939520984278879,-6.172012877648667,-6.410852822966507
1621785714676.989,-0.073,0.525,0.243,-1.9457107313738893,-6.102068735475051,-6.441182583732058
1621785714682.513,-0.098,0.503,0.227,-1.9518969241285031,-6.032164757347915,-6.471494928229665
1621785714682.605,-0.09851680374988946,0.5026665782258778,0.22693331564517555,-1.952,-6.031,-6.472
1621785714688.034,-0.129,0.483,0.223,-1.8174258995563832,-6.024910674188072,-6.612358959964949
1621785714693.553,-0.166,0.461,0.23,-1.6806186811983133,-6.018720302316666,-6.755047031600855
1621785714699.068,-0.202,0.433,0.246,-1.5439082918013034,-6.012534311846213,-6.897634111944794
1621785714700.436,-0.21341595428976393,0.42381760198432034,0.24699269167737078,-1.51,-6.011,-6.933
1621785714704.58,-0.248,0.396,0.25,-1.482761140599926,-6.038471670164177,-7.060813109492655
1621785714710.089,-0.293,0.354,0.255,-1.4465501789902482,-6.074992127172228,-7.230726083199605
1621785714715.594,-0.34,0.307,0.257,-1.4103664979632144,-6.111485070430262,-7.400511048018763
1621785714718.236,-0.36016163946061036,0.27435734563520225,0.2560399219304471,-1.393,-6.129,-7.482
1621785714721.098,-0.382,0.239,0.255,-1.4181251288110908,-6.057973193553262,-7.614712218848326
1621785714726.598,-0.391,0.166,0.258,-1.4664120168725354,-5.921469875379563,-7.869766037839546
1621785714732.095,-0.379,0.094,0.237,-1.5146731839353678,-5.785039268490403,-8.12468399719707
1621785714736.005,-0.35551550835407036,0.03849120156416637,0.21209220583007465,-1.549,-5.688,-8.306
1621785714737.589,-0.346,0.016,0.202,-1.4824585208737664,-5.636285212866994,-8.285903580129661
1621785714743.08,-0.302,-0.037,0.162,-1.2518244621546848,-5.457040756493372,-8.21624899863732
1621785714748.569,-0.25,-0.063,0.143,-1.021272439470895,-5.277860056984762,-8.146619193128792
1621785714753.742,-0.20472246460689164,-0.063,0.12979405217701007,-0.804,-5.109,-8.081
1621785714754.053,-0.202,-0.063,0.129,-0.7781609585263622,-5.1059084491506725,-8.055319049194793
1621785714759.535,-0.173,-0.04,0.124,-0.3227529230090448,-5.051420472093536,-7.6026973306860794
1621785714765.014,-0.166,0.005,0.129,0.132411730641959,-4.996961614824619,-7.1503175049636
1621785714770.49,-0.171,0.087,0.131,0.5873330024266492,-4.942531877343923,-6.698179572027355
1621785714771.449,-0.1747020016156539,0.10022143434162104,0.13276285791221615,0.667,-4.933,-6.619
1621785714775.93,-0.192,0.162,0.141,0.8624564563728493,-4.952928893590957,-6.393650203240715
1621785714781.359,-0.232,0.243,0.152,1.0992639762793028,-4.977073974052007,-6.120625062642686
1621785714786.784,-0.281,0.326,0.162,1.3359011080795145,-5.001201681608108,-5.847796369508325
1621785714788.987,-0.3045709074532763,0.3617627561360054,0.16647034451700068,1.432,-5.011,-5.737
1621785714792.205,-0.339,0.414,0.173,1.4770522460937499,-5.1246419921875,-5.7586986328125
1621785714797.622,-0.405,0.497,0.19,1.55289013671875,-5.315939202008928,-5.795224637276786
1621785714803.036,-0.466,0.579,0.213,1.62868359375,-5.507124330357143,-5.831729241071429
1621785714806.487,-0.5004407146724418,0.6147162966973471,0.22192907417433677,1.677,-5.629,-5.855
1621785714808.447,-0.52,0.635,0.227,1.6561253145445396,-5.75121791645697,-5.97385103170609
1621785714813.853,-0.557,0.677,0.243,1.5985483140412684,-6.088321967790639,-6.30166847005536
1621785714819.255,-0.574,0.686,0.246,1.5410155175306157,-6.425167211877202,-6.629234230833752
1621785714823.951,-0.5679115984625819,0.6946977164820257,0.24947908659281032,1.491,-6.718,-6.914
1621785714824.654,-0.567,0.696,0.25,1.476352444201589,-6.76190231600185,-6.957135639527552
1621785714830.048,-0.538,0.686,0.264,1.3639833130175276,-7.098700152718815,-7.2880518963753795
1621785714835.44,-0.478,0.658,0.269,1.2516599554453365,-7.435360794698275,-7.618833354349684
1621785714840.828,-0.408,0.642,0.271,1.1394179731831364,-7.771777534922169,-7.949375169882168
1621785714841.376,-0.3996508685201143,0.6402690824980725,0.2707963626468321,1.128,-7.806,-7.983
1621785714846.211,-0.326,0.625,0.269,0.8823866735957975,-7.950642049524559,-8.143775201202297
1621785714851.591,-0.229,0.59,0.262,0.6090792168209335,-8.111593213197185,-8.322678610053794
1621785714856.967,-0.129,0.569,0.241,0.33598259758135873,-8.272420214334874,-8.501444007472225
1621785714858.758,-0.09399363752045083,0.5586647882203235,0.23099818214870022,0.245,-8.326,-8.561
1621785714862.339,-0.024,0.538,0.211,0.11138984076926325,-8.35036784975151,-8.50028688282251
1621785714867.709,0.061,0.52,0.178,-0.08896163538836255,-8.386907995325853,-8.409246181137283
1621785714873.073,0.15,0.503,0.145,-0.28909449661405906,-8.423408269861607,-8.31830481915837
1621785714876.099,0.1855610455849538,0.48775955189216263,0.12411494148185254,-0.402,-8.444,-8.267
1621785714878.434,0.213,0.476,0.108,-0.4463195743585343,-8.422524156869477,-8.157021796962155
1621785714883.608,0.276,0.454,0.072,-0.5445232987213593,-8.374937784261565,-7.913331073543294
1621785714888.934,0.323,0.431,0.028,-0.6456186389770875,-8.325950227409251,-7.6624648588346345
1621785714893.169,0.35481730636951436,0.4007735589489614,-0.0038173063695143734,-0.726,-8.287,-7.463
1621785714894.258,0.363,0.393,-0.012,-0.718516483985158,-8.257763551840322,-7.419430716083081
1621785714899.576,0.407,0.351,-0.049,-0.6819762585121053,-8.115008942153226,-7.206692284727257
1621785714904.89,0.452,0.311,-0.091,-0.6454628737151874,-7.972359193073741,-6.994110120697743
1621785714910.2,0.496,0.272,-0.126,-0.6089763295944044,-7.829814304601868,-6.7816842239945405
1621785714910.342,0.4968836845495537,0.270794975614245,-0.1268301279101868,-0.608,-7.826,-6.776
1621785714915.506,0.529,0.227,-0.157,-0.5045915621436716,-7.565820752565564,-6.498334777651083
1621785714920.807,0.55,0.178,-0.192,-0.3984453819840365,-7.298753249714937,-6.2133183580387685
1621785714926.106,0.559,0.138,-0.215,-0.29233342360319275,-7.031771850057012,-5.928393828392247
1621785714927.471,0.5535843634686347,0.12974760147601477,-0.22222084870848707,-0.265,-6.963,-5.855
1621785714931.399,0.538,0.106,-0.243,-0.15673318760447474,-6.796117397454031,-5.627202948866316
1621785714936.688,0.501,0.082,-0.253,-0.010950837940936986,-6.5714082979726545,-5.3204719329075765
1621785714941.972,0.447,0.068,-0.264,0.13469019759118767,-6.346917020273456,-5.014038246681811
1621785714944.559,0.4127134273168477,0.06016306910099376,-0.26204076727524844,0.206,-6.237,-4.864
1621785714947.254,0.377,0.052,-0.26,0.27890140401146135,-6.164098595988539,-4.803591461318051
1621785714952.53,0.29,0.038,-0.269,0.4216330802292264,-6.021366919770774,-4.685319226361032
1621785714957.802,0.208,0.042,-0.265,0.5642524785100287,-5.878747521489971,-4.567140028653295
1621785714961.6,0.13950824914264529,0.026859718231532118,-0.24409199184354435,0.667,-5.776,-4.482
1621785714963.07,0.113,0.021,-0.236,0.6881888277625361,-5.782832315890777,-4.49635651187176
1621785714968.334,0.017,-0.002,-0.215,0.7640653126301729,-5.807298611011362,-4.547766701618811
1621785714973.594,-0.079,-0.012,-0.208,0.8398854910297476,-5.831746750168776,-4.599138740860972
1621785714978.597,-0.15990575502810164,-0.030084815829810953,-0.192770681406475,0.912,-5.855,-4.648
1621785714978.85,-0.164,-0.031,-0.192,0.9163890072555568,-5.860120508464817,-4.66234638085915
1621785714984.101,-0.223,-0.059,-0.178,1.007419641828861,-5.966322915467005,-4.959898897270528
1621785714989.352,-0.271,-0.082,-0.148,1.098450276402165,-6.072525322469193,-5.257451413681907
1621785714994.595,-0.298,-0.099,-0.133,1.1893412415063918,-6.178564781757458,-5.554547391454566
1621785714995.556,-0.3022186495176849,-0.10541968404865092,-0.12969844820355098,1.206,-6.198,-5.609
1621785714999.834,-0.321,-0.134,-0.115,1.223453187250996,-6.324472371384029,-5.884456824874415
1621785715005.07,-0.33,-0.169,-0.099,1.2448147410358565,-6.479266239390266,-6.2215978693919975
1621785715010.3,-0.311,-0.197,-0.089,1.2661513944223106,-6.63387966972689,-6.5583459206651655
1621785715012.469,-0.2985516113965437,-0.20944838860345633,-0.08236085941148995,1.275,-6.698,-6.698
1621785715015.527,-0.281,-0.227,-0.073,1.324675413584982,-6.756740270078592,-6.891806631833379
1621785715020.749,-0.239,-0.244,-0.052,1.4094995730268776,-6.857043290732513,-7.222744684546468
1621785715025.966,-0.188,-0.274,-0.033,1.4942444167836622,-6.957252522036155,-7.553373290298302
1621785715029.337,-0.1543874531835206,-0.2895134831460674,-0.020718492509363296,1.549,-7.022,-7.767
1621785715031.181,-0.136,-0.298,-0.014,1.5232427914266227,-7.014437245142285,-7.8153358680036575
1621785715036.39,-0.087,-0.323,-0.005,1.4504828546966377,-6.993073689251354,-7.951876855654395
1621785715041.595,-0.044,-0.344,0.005,1.3777774810988086,-6.971726154024757,-8.088315450363513
1621785715046.161,-0.01415124630333756,-0.36068018588931133,0.00938952260245036,1.314,-6.953,-8.208
1621785715046.796,-0.01,-0.363,0.01,1.2850499628988377,-6.950767252040564,-8.203912935938659
1621785715051.994,0.017,-0.382,0.007,1.0480737076428395,-6.932490651961997,-8.1704574646084
1621785715057.187,0.037,-0.4,0.0,0.81132005936186,-6.91423122026451,-8.137033420145203
1621785715062.375,0.038,-0.401,-0.03,0.5748001484046501,-6.895989815367156,-8.103642373892422
1621785715062.941,0.037454177262880285,-0.39990835452576057,-0.03207412640105491,0.549,-6.894,-8.1
1621785715067.559,0.033,-0.391,-0.049,0.20256828065259908,-6.88323439278522,-8.162385313603595
1621785715072.738,0.012,-0.391,-0.084,-0.18593119399935787,-6.871161500744243,-8.232346175174387
1621785715077.914,-0.002,-0.38,-0.126,-0.5742108980532935,-6.859095438227826,-8.302267460525933
1621785715079.671,-0.004377832326283988,-0.37422526435045317,-0.13822885196374624,-0.706,-6.855,-8.326
1621785715083.086,-0.009,-0.363,-0.162,-0.727965569384669,-6.928828719320694,-8.369931138769338
1621785715088.253,-0.003,-0.326,-0.206,-0.7611997208328486,-7.040532395021519,-8.436399441665698
1621785715093.512,0.014,-0.276,-0.236,-0.7950258811213213,-7.15422587821333,-8.504051762242643
1621785715096.462,0.039666037290535756,-0.2452007552513571,-0.24797748406891668,-0.814,-7.218,-8.542
1621785715098.684,0.059,-0.222,-0.257,-0.7043036667592985,-7.189244650509719,-8.491012505301956
1621785715103.853,0.122,-0.18,-0.276,-0.4491409808252036,-7.12235734448816,-8.37241140249521
1621785715109.017,0.187,-0.161,-0.283,-0.1942193327580406,-7.0555332231501655,-8.253922335493119
1621785715113.154,0.23430328838419684,-0.1618017506505796,-0.287008753252898,0.01,-7.002,-8.159
1621785715114.177,0.246,-0.162,-0.288,0.034701275846898375,-6.939939580583663,-8.064373221880041
1621785715119.333,0.286,-0.164,-0.298,0.15920395952485702,-6.627134330547001,-7.58742264261622
1621785715124.484,0.311,-0.169,-0.302,0.2835828420589529,-6.314640123185217,-7.1109463264408275
1621785715129.633,0.319,-0.19,-0.293,0.4079204575450946,-6.00224959671506,-6.634628097961578
1621785715129.802,0.31827728459530025,-0.19045990980299074,-0.29250723949679563,0.412,-5.992,-6.619
1621785715134.776,0.297,-0.204,-0.278,0.412,-5.686485871386986,-6.263764944573495
1621785715139.916,0.258,-0.23,-0.265,0.412,-5.370759446028993,-5.896655591167044
1621785715145.051,0.199,-0.264,-0.246,0.412,-5.055347937310712,-5.52991240553971
1621785715146.408,0.17969404263418348,-0.2708760944042634,-0.23991730110392082,0.412,-4.972,-5.433
1621785715150.182,0.126,-0.29,-0.223,0.34272453341981896,-4.920499159713419,-5.350279623787481
1621785715155.31,0.04,-0.304,-0.197,0.2485900285992275,-4.850517587050742,-5.237875593360262
1621785715160.433,-0.051,-0.309,-0.159,0.15454963587581444,-4.780605979302415,-5.125583940206976
1621785715162.969,-0.09063180235608337,-0.31345857776505937,-0.14661506176372396,0.108,-4.746,-5.07
1621785715165.552,-0.131,-0.318,-0.134,-0.013190398770285841,-4.818088740429809,-5.166639569600047
1621785715170.667,-0.209,-0.323,-0.117,-0.25317717047503624,-4.960842162050312,-5.358009666262674
1621785715175.777,-0.271,-0.326,-0.103,-0.49293484879836824,-5.103459310059416,-5.549197079428892
1621785715179.487,-0.30005822736399274,-0.32236772157950094,-0.10154708863180037,-0.667,-5.207,-5.688
1621785715180.884,-0.311,-0.321,-0.101,-0.7185518411498852,-5.27025275246351,-5.795258353708231
1621785715185.987,-0.321,-0.309,-0.099,-0.9068665184855893,-5.501309905905016,-6.187064384678076
1621785715191.085,-0.318,-0.318,-0.112,-1.094991998221827,-5.732134918870861,-6.578476772616137
1621785715195.963,-0.2829340669765677,-0.3246340954368656,-0.13000683047149228,-1.275,-5.953,-6.953
1621785715196.232,-0.281,-0.325,-0.131,-1.2756328111196182,-5.96207029271453,-6.966207903881266
1621785715201.353,-0.227,-0.34,-0.145,-1.2876780434654573,-6.134718623004888,-7.217613522586725
1621785715206.47,-0.157,-0.353,-0.166,-1.2997135137522822,-6.307227030449378,-7.468815389598917
1621785715211.584,-0.077,-0.37,-0.188,-1.3117420931739208,-6.479636668826196,-7.719873431886448
1621785715212.544,-0.06290815692645864,-0.3743214985425527,-0.1910062598556888,-1.314,-6.512,-7.767
1621785715216.693,-0.002,-0.393,-0.204,-1.2621698669074868,-6.538921476897567,-7.720201918664042
1621785715221.799,0.066,-0.412,-0.22,-1.1983878484610717,-6.572050971915851,-7.662612329193006
1621785715226.9,0.119,-0.428,-0.232,-1.1346698743097399,-6.605147201208047,-7.605080566124329
1621785715229.035,0.13700416546969263,-0.43009350761275494,-0.23869922436081586,-1.108,-6.619,-7.581
1621785715231.999,0.162,-0.433,-0.248,-1.0690819185563338,-6.604946248367565,-7.473074394515018
1621785715237.093,0.185,-0.443,-0.257,-1.0021989789861094,-6.580794075744984,-7.287598094503147
1621785715242.183,0.201,-0.443,-0.264,-0.9353673275555028,-6.556660423839487,-7.102264024100677
1621785715245.486,0.21009032443847186,-0.44105207333461316,-0.26919447110769823,-0.892,-6.541,-6.982
1621785715247.27,0.215,-0.44,-0.272,-0.8824357216165162,-6.5356744359001055,-6.953307164849549
1621785715252.354,0.206,-0.442,-0.267,-0.85517877169758,-6.520497270604334,-6.87153631509274
1621785715257.432,0.213,-0.435,-0.271,-0.8279545447784504,-6.505338326069819,-6.789863634335351
1621785715261.9,0.21123927265730227,-0.422674908601116,-0.2674785453146046,-0.804,-6.492,-6.718
1621785715262.507,0.211,-0.421,-0.267,-0.8032952782914753,-6.489106931933425,-6.71581165364195
1621785715267.578,0.208,-0.41,-0.271,-0.7974098460896022,-6.464945683946787,-6.697535837857186
1621785715272.646,0.216,-0.394,-0.271,-0.7915275308715624,-6.440797231999046,-6.679269701127483
1621785715277.71,0.213,-0.379,-0.278,-0.7856500328103562,-6.416668555747777,-6.661018522937422
1621785715278.27,0.213,-0.3768970375373927,-0.278,-0.785,-6.414,-6.659
1621785715282.77,0.213,-0.36,-0.278,-0.7417414494140158,-6.40848935661325,-6.637232958622339
1621785715287.826,0.209,-0.342,-0.283,-0.6931389470222435,-6.402297955034681,-6.612776922386988
1621785715292.879,0.204,-0.321,-0.283,-0.6445646077493423,-6.3961101411145656,-6.588335057402535
1621785715294.602,0.20092789089326304,-0.3155384726991343,-0.2816346181747836,-0.628,-6.394,-6.58
1621785715297.927,0.195,-0.305,-0.279,-0.5921125055828494,-6.389944915885068,-6.570065043918416
1621785715303.039,0.182,-0.283,-0.278,-0.536936042876284,-6.383710287330653,-6.554790203960101
1621785715308.105,0.166,-0.262,-0.276,-0.4822576150066994,-6.3775319338990615,-6.5396532380527015
1621785715311.001,0.1597068583003762,-0.2539905469277515,-0.2691347545095013,-0.451,-6.374,-6.531
1621785715313.167,0.155,-0.248,-0.264,-0.44582890961262556,-6.361005978000956,-6.542668101386896
1621785715318.225,0.131,-0.232,-0.258,-0.43375331779053083,-6.330662183165949,-6.569915590626494
1621785715323.28,0.113,-0.229,-0.246,-0.42168530308464847,-6.300337428263989,-6.597145982783357
1621785715327.337,0.09774252162567051,-0.22739394964480744,-0.24037882375682598,-0.412,-6.276,-6.619
1621785715328.332,0.094,-0.227,-0.239,-0.41438080546361333,-6.271238389072773,-6.631026119905944
1621785715333.379,0.082,-0.229,-0.234,-0.4264553909748536,-6.247089218050292,-6.692018256975542
1621785715338.423,0.066,-0.225,-0.227,-0.43852355134867976,-6.2229528973026405,-6.752977938863844
1621785715343.463,0.058,-0.243,-0.22,-0.4505811978612829,-6.1988376042774345,-6.81388451227366
1621785715343.638,0.057617729740209386,-0.24324326289259401,-0.21968723342380767,-0.451,-6.198,-6.816
1621785715348.5,0.047,-0.25,-0.211,-0.4303713689520064,-6.192020686652755,-6.839319322054253
1621785715353.534,0.037,-0.258,-0.202,-0.40901351087625537,-6.185830003152538,-6.863462987705103
1621785715358.564,0.017,-0.267,-0.197,-0.38767222614204433,-6.1796441235194335,-6.887587918274211
1621785715359.901,0.015138048282896974,-0.267,-0.1943400689755671,-0.382,-6.178,-6.894
1621785715363.59,0.01,-0.267,-0.187,-0.3688097703398248,-6.200286939770641,-6.909691824940554
1621785715368.612,0.002,-0.276,-0.176,-0.3508544381904103,-6.230625259609306,-6.931052478704512
1621785715373.631,0.0,-0.278,-0.169,-0.33290958071215726,-6.260945880865665,-6.952400671221744
1621785715376.123,-0.004471306887320515,-0.278496811876369,-0.1605541981017279,-0.324,-6.276,-6.963
1621785715378.647,-0.009,-0.279,-0.152,-0.3177627077739902,-6.282081359920359,-6.990444085794444
1621785715383.659,-0.016,-0.283,-0.145,-0.30537681378020454,-6.2941576065643,-7.044942019367101
1621785715388.667,-0.016,-0.286,-0.141,-0.293000573169628,-6.306224441159613,-7.099397478053636
1621785715392.309,-0.013089312716452856,-0.2801786254329057,-0.1359062972537925,-0.284,-6.315,-7.139
1621785715393.672,-0.012,-0.278,-0.134,-0.2659692212942378,-6.324895962266418,-7.159546701315869
1621785715398.673,0.0,-0.272,-0.133,-0.1998143814216187,-6.361204199963949,-7.23493244907769
1621785715403.748,0.01,-0.269,-0.122,-0.132680976987322,-6.398049510304633,-7.311433305293517
1621785715408.562,0.027254448225571222,-0.25749703451628586,-0.11720709771511911,-0.069,-6.433,-7.384
1621785715408.77,0.028,-0.257,-0.117,-0.069,-6.433,-7.384256719296132
1621785715413.789,0.044,-0.251,-0.105,-0.069,-6.433,-7.390451126913343
1621785715418.805,0.073,-0.222,-0.094,-0.069,-6.433,-7.396641617452091
1621785715423.818,0.094,-0.206,-0.087,-0.069,-6.433,-7.402828793539833
1621785715424.767,0.09797869955156951,-0.20296860986547086,-0.08472645739910313,-0.069,-6.433,-7.404
1621785715428.827,0.115,-0.19,-0.075,-0.13779788005073385,-6.3888086609893096,-7.290759693785106
1621785715433.832,0.127,-0.169,-0.063,-0.22261508727426468,-6.334327535181494,-7.151151808902579
1621785715438.834,0.127,-0.157,-0.056,-0.30737851059974636,-6.279880956695053,-7.011632451531074
1621785715440.936,0.12405655401445595,-0.14901064661066615,-0.05389753858175425,-0.343,-6.257,-6.953
1621785715443.833,0.12,-0.138,-0.051,-0.38698871219113623,-6.2270158574044085,-6.877231687572818
1621785715448.829,0.112,-0.117,-0.042,-0.4628512611781083,-6.175305466870432,-6.746562317480973
1621785715453.822,0.079,-0.105,-0.038,-0.5386656175762986,-6.123627925978605,-6.615975956664498
1621785715457.071,0.05945910626009496,-0.09001864813273946,-0.034743184376682494,-0.588,-6.09,-6.531
1621785715458.81,0.049,-0.082,-0.033,-0.6049592666171274,-6.087839583870429,-6.520413960965105
1621785715463.796,0.007,-0.079,-0.031,-0.653582338757374,-6.081645561941736,-6.4900632535145055
1621785715468.778,-0.028,-0.075,-0.031,-0.7021696971535161,-6.075456089534584,-6.459734838719461
1621785715473.17,-0.06945743846229284,-0.06882548788859469,-0.026589634206139058,-0.745,-6.07,-6.433
1621785715473.757,-0.075,-0.068,-0.026,-0.7482526175026972,-6.075372300819062,-6.4455353685778105
1621785715478.733,-0.103,-0.061,-0.024,-0.7758166912334554,-6.1208994787788535,-6.551765450483991
1621785715483.705,-0.119,-0.051,-0.024,-0.8033604783685626,-6.166393149664929,-6.6579173492181685
1621785715488.673,-0.127,-0.051,-0.03,-0.8308812740285988,-6.21184884586746,-6.763980640357409
1621785715489.236,-0.12665994887927645,-0.051340051120723554,-0.031133503735745183,-0.834,-6.217,-6.776
1621785715493.64,-0.124,-0.054,-0.04,-0.8206160602068474,-6.2708089008010415,-6.83773000802556
1621785715498.602,-0.122,-0.044,-0.052,-0.8055351988976212,-6.331440118717727,-6.90728663365587
1621785715503.645,-0.108,-0.042,-0.056,-0.7902087402898288,-6.393058738018444,-6.977976014173443
1621785715505.359,-0.10387523870146403,-0.043718650541056656,-0.05943730108211331,-0.785,-6.414,-7.002
1621785715508.631,-0.096,-0.047,-0.066,-0.7449461324919222,-6.421929445851853,-7.013995828339983
1621785715513.614,-0.087,-0.045,-0.073,-0.6839523672274389,-6.434004353696091,-7.032262996617163
1621785715518.595,-0.072,-0.042,-0.079,-0.622982509367273,-6.446074528602418,-7.050523004808786
1621785715521.453,-0.06281432074546346,-0.042,-0.079,-0.588,-6.453,-7.061
1621785715523.573,-0.056,-0.042,-0.079,-0.5699190565206158,-6.460786683688202,-7.046746409519901
1621785715528.547,-0.045,-0.037,-0.089,-0.5274983814343683,-6.4790554415720605,-7.0133052933935165
1621785715533.517,-0.04,-0.044,-0.087,-0.4851131020228271,-6.497308956063161,-6.979892080426755
1621785715537.517,-0.04,-0.04238969973954494,-0.087,-0.451,-6.512,-6.953
1621785715538.485,-0.04,-0.042,-0.087,-0.4468334983171649,-6.509584636705602,-6.947082359928728
1621785715543.451,-0.023,-0.037,-0.087,-0.4254598175532644,-6.497194097132327,-6.916725537974202
1621785715548.412,-0.017,-0.033,-0.089,-0.4041061023711984,-6.48481513180939,-6.886397072933007
1621785715553.371,-0.012,-0.026,-0.087,-0.3827618445700014,-6.472441649026088,-6.8560820401139155
1621785715553.548,-0.01182138457748214,-0.025928553830992854,-0.08696427691549642,-0.382,-6.472,-6.855
1621785715558.326,-0.007,-0.024,-0.086,-0.3703547451937748,-6.4427375648458955,-6.855
1621785715563.28,-0.003,-0.017,-0.086,-0.3582798596277083,-6.412395544705523,-6.855
1621785715568.229,-0.002,-0.009,-0.087,-0.3462174702471773,-6.382084925236496,-6.855
1621785715569.549,-0.002800681178735377,-0.008466212547509748,-0.08619931882126462,-0.343,-6.374,-6.855
1621785715573.175,-0.005,-0.007,-0.084,-0.3518549370920154,-6.369686056288505,-6.855
1621785715578.117,-0.009,-0.005,-0.087,-0.3639234555822237,-6.36380652163943,-6.855
1621785715583.057,-0.012,-0.007,-0.082,-0.3759872043783346,-6.357929310687478,-6.855
1621785715585.519,-0.01399436396895239,-0.0035098630543333167,-0.0805042270232857,-0.382,-6.355,-6.855
1621785715587.995,-0.016,0.0,-0.079,-0.38509240315277543,-6.355,-6.864122589300688
1621785715592.928,-0.019,0.005,-0.084,-0.39125312152211367,-6.355,-6.882296708490236
1621785715597.859,-0.019,0.0,-0.082,-0.3974114006067721,-6.355,-6.900463631789977
1621785715601.533,-0.020464908011291735,-0.003662270028229339,-0.07833772997177066,-0.402,-6.355,-6.914
1621785715602.875,-0.021,-0.005,-0.077,-0.3937846369694844,-6.35164679059979,-6.912323395299895
1621785715607.832,-0.017,-0.007,-0.077,-0.36343995241944094,-6.33926120506916,-6.90613060253458
1621785715612.786,-0.021,-0.003,-0.075,-0.333114696597685,-6.326883549631709,-6.899941774815854
1621785715617.542,-0.02388180473372781,0.0018030078895463512,-0.075,-0.304,-6.315,-6.894
1621785715617.737,-0.024,0.002,-0.075,-0.30352386700485895,-6.315244170766739,-6.894244170766739
1621785715622.685,-0.024,0.005,-0.068,-0.2914465360755432,-6.321437673807414,-6.900437673807414
1621785715627.63,-0.021,0.0,-0.066,-0.27937695199095436,-6.327627204107203,-6.9066272041072025
1621785715632.574,-0.019,0.005,-0.063,-0.2673091556397641,-6.333815817620634,-6.912815817620634
1621785715633.52,-0.02034083044982699,0.005766188828472565,-0.06223381117152743,-0.265,-6.335,-6.914
1621785715637.513,-0.026,0.009,-0.059,-0.25022900179098995,-6.3252361198279425,-6.9187567621351045
1621785715642.45,-0.031,0.012,-0.056,-0.2319655272705007,-6.313163653619483,-6.924638220031533
1621785715647.384,-0.023,0.017,-0.052,-0.21371289053530698,-6.301098351370796,-6.930516187793715
1621785715649.469,-0.025114175372580087,0.019959845521612122,-0.052,-0.206,-6.296,-6.933
1621785715652.315,-0.028,0.024,-0.052,-0.199027254601227,-6.296,-6.936575766871165
1621785715657.244,-0.023,0.028,-0.051,-0.18695101226993865,-6.296,-6.942768711656441
1621785715662.169,-0.028,0.03,-0.047,-0.17488434049079754,-6.296,-6.948956748466258
1621785715665.387,-0.02669242597093398,0.037845444174396115,-0.04503863895640097,-0.167,-6.296,-6.953
1621785715667.091,-0.026,0.042,-0.044,-0.16271029099960055,-6.2938551454998,-6.9540724272501
1621785715672.01,-0.03,0.051,-0.042,-0.15032790461850476,-6.287663952309252,-6.957168023845374
1621785715676.928,-0.035,0.052,-0.042,-0.1379479765233691,-6.281473988261684,-6.960263005869158
1621785715681.277,-0.035,0.0573102146263911,-0.034034678060413354,-0.127,-6.276,-6.963
1621785715681.842,-0.035,0.058,-0.033,-0.127,-6.276712504233765,-6.960541860393509
1621785715686.753,-0.037,0.058,-0.031,-0.127,-6.28290611817594,-6.939173892293008
1621785715691.66,-0.038,0.072,-0.024,-0.127,-6.289094805554701,-6.917822920836285
1621785715696.566,-0.038,0.072,-0.019,-0.127,-6.295282261292607,-6.896476198540506
1621785715697.135,-0.03846427326594632,0.0713035901010805,-0.01876786336702684,-0.127,-6.296,-6.894
1621785715701.469,-0.042,0.066,-0.017,-0.10564503392967305,-6.2905243676742755,-6.867169401603948
1621785715706.368,-0.051,0.072,-0.017,-0.08150641579272054,-6.28433497840839,-6.836841394201111
1621785715711.265,-0.056,0.084,-0.007,-0.057377421344848856,-6.278148056755089,-6.806525478099939
1621785715712.965,-0.057737351561720385,0.08504241093703223,-0.006305059375311845,-0.049,-6.276,-6.796
1621785715716.158,-0.061,0.087,-0.005,-0.041118765065826075,-6.25619587119105,-6.8079228938747764
1621785715721.05,-0.07,0.094,0.0,-0.02904320415353236,-6.225852154026825,-6.826191050126708
1621785715725.938,-0.08,0.101,0.003,-0.01697788800296681,-6.195534180110019,-6.844443707892948
1621785715728.765,-0.0840508271277925,0.101,0.004157379179369284,-0.01,-6.178,-6.855
1621785715730.823,-0.087,0.101,0.005,-0.01248010281502586,-6.1729092626428415,-6.8472986281007095
1621785715735.705,-0.099,0.101,0.01,-0.01836321265987427,-6.16083340559289,-6.829030023845654
1621785715740.585,-0.112,0.105,0.009,-0.024243674708123008,-6.148762983493853,-6.8107696416958285
1621785715744.532,-0.12009483276587221,0.10904741638293611,0.01304741638293611,-0.029,-6.139,-6.796
1621785715745.461,-0.122,0.11,0.014,-0.027878573533745947,-6.143603750756201,-6.794819551088154
1621785715750.335,-0.124,0.11,0.014,-0.021994694960212204,-6.167758620689655,-6.78862599469496
1621785715755.205,-0.138,0.112,0.021,-0.01611553197760094,-6.191894131881427,-6.782437402081685
1621785715760.073,-0.147,0.122,0.026,-0.010239021514883581,-6.216018753781004,-6.776251601594614
1621785715760.271,-0.147284889847945,0.12216279419882571,0.026,-0.01,-6.217,-6.776
1621785715764.938,-0.154,0.126,0.026,-0.02753052723203183,-6.234530527232032,-6.828591581696095
1621785715769.801,-0.155,0.129,0.028,-0.0457974539915444,-6.252797453991544,-6.883392361974633
1621785715774.66,-0.157,0.136,0.028,-0.06404879072370057,-6.2710487907237,-6.938146372171102
1621785715775.978,-0.15618571213111457,0.136,0.028,-0.069,-6.276,-6.953
1621785715779.516,-0.154,0.136,0.028,-0.055685332544341846,-6.298115888316178,-6.994975053334787
1621785715784.371,-0.157,0.136,0.023,-0.03741487456592491,-6.328463428687107,-7.052573446283694
1621785715789.221,-0.141,0.134,0.024,-0.019163710543936965,-6.358778921469392,-7.110111014217419
1621785715791.656,-0.13748413737536508,0.134,0.02349773391076644,-0.01,-6.374,-7.139
1621785715794.069,-0.134,0.134,0.023,-0.006916164862250787,-6.38309731365636,-7.15118114879411
1621785715798.914,-0.124,0.143,0.023,-0.0007244703753393027,-6.401362812392748,-7.17563834201741
1621785715803.757,-0.101,0.138,0.024,0.00546472808960719,-6.419620947864341,-7.200085675953948
1621785715807.306,-0.09073239152371342,0.1343329969727548,0.024,0.01,-6.433,-7.218
1621785715808.596,-0.087,0.133,0.024,0.014872710221944358,-6.4297790559549854,-7.2099063457330415
1621785715813.432,-0.072,0.126,0.03,0.033138918412003754,-6.417704782744607,-7.179565864332604
1621785715818.265,-0.068,0.12,0.031,0.05139406064395124,-6.4056378243201,-7.149243763676149
1621785715822.926,-0.059314799838253135,0.11324484431864133,0.031,0.069,-6.394,-7.12
1621785715823.095,-0.059,0.113,0.031,0.06984543574963975,-6.393360503727837,-7.118189900382181
1621785715827.924,-0.059,0.101,0.037,0.09401121483616315,-6.375081260572646,-7.066450347722574
1621785715832.749,-0.056,0.103,0.031,0.11815622454733413,-6.356817727585991,-7.014755262828144
1621785715837.571,-0.056,0.098,0.044,0.1422865735229622,-6.338565284130067,-6.963091566944428
1621785715838.513,-0.056,0.09702249923989055,0.044,0.147,-6.335,-6.953
1621785715842.389,-0.056,0.093,0.044,0.13728396572827417,-6.344716034271726,-6.913886733829207
1621785715847.207,-0.054,0.086,0.044,0.1252062423500612,-6.356793757649939,-6.865266155101529
1621785715852.02,-0.056,0.077,0.047,0.11314137086903304,-6.368858629130966,-6.816697313498415
1621785715854.071,-0.056852806821642475,0.07401517612425135,0.04870561364328494,0.108,-6.374,-6.796
1621785715856.83,-0.058,0.07,0.051,0.08880901915154565,-6.370623808924809,-6.7890699235825025
1621785715861.637,-0.059,0.068,0.049,0.055373816786691406,-6.364741689990251,-6.776996100506305
1621785715866.442,-0.063,0.056,0.051,0.021952199754709273,-6.358861961067959,-6.7649271832447555
1621785715869.598,-0.06628530039646234,0.0579711802378774,0.046400579444952725,0.0,-6.355,-6.757
1621785715871.245,-0.068,0.059,0.044,-0.0010627205141129031,-6.363289220010081,-6.754874558971774
1621785715876.044,-0.072,0.051,0.049,-0.004158738659274194,-6.387438161542339,-6.7486825226814515
1621785715880.84,-0.08,0.049,0.047,-0.007253024193548387,-6.411573588709677,-6.742493951612903
1621785715885.098,-0.0791116544417278,0.044558272208638956,0.04255827220863896,-0.01,-6.433,-6.737
1621785715885.633,-0.079,0.044,0.042,-0.010657312858067265,-6.434349221129717,-6.73769190827165
1621785715890.423,-0.084,0.04,0.038,-0.01654074272817664,-6.446425735073626,-6.743884992345449
1621785715895.211,-0.075,0.028,0.033,-0.022421473777244683,-6.458496709332239,-6.750075235554994
1621785715899.996,-0.073,0.021,0.028,-0.028298906267262197,-6.47056091286438,-6.756262006597118
1621785715900.567,-0.07240305366899862,0.02040305366899862,0.028,-0.029,-6.472,-6.757
1621785715904.777,-0.068,0.016,0.028,-0.013183652492923671,-6.472,-6.751546087066525
1621785715909.557,-0.066,0.01,0.024,0.004772418918705227,-6.472,-6.745354338303895
1621785715914.333,-0.066,0.005,0.023,0.022714732997042967,-6.472,-6.739167333449296
1621785715916.006,-0.06670107416879796,0.002195703324808184,0.020896777493606137,0.029,-6.472,-6.737
1621785715919.106,-0.068,-0.003,0.017,0.04086917531490137,-6.468177723203676,-6.717285098629486
1621785715923.876,-0.066,-0.007,0.023,0.05913332805196862,-6.462296046898519,-6.6869480313713066
1621785715928.643,-0.072,-0.016,0.023,0.07738626317040323,-6.45641798304682,-6.656629596767805
1621785715931.415,-0.0766530403155576,-0.013673479842221198,0.023,0.088,-6.453,-6.639
1621785715933.409,-0.08,-0.012,0.023,0.088,-6.458056725090493,-6.644056725090493
1621785715938.17,-0.087,-0.016,0.023,0.088,-6.4701310725852546,-6.6561310725852545
1621785715942.929,-0.093,-0.005,0.023,0.088,-6.482200466755573,-6.6682004667555725
1621785715946.793,-0.09381243262666188,-0.009062163133309379,0.027062163133309378,0.088,-6.492,-6.678
1621785715947.685,-0.094,-0.01,0.028,0.08689556322680199,-6.494267001797617,-6.683696568619653
1621785715952.439,-0.105,-0.009,0.026,0.08101006983662366,-6.506347751387983,-6.714053324000573
1621785715957.189,-0.108,-0.009,0.026,0.07512941251332304,-6.518418574314758,-6.7443851354575965
1621785715961.936,-0.11,-0.016,0.024,0.06925238224018072,-6.530481952243839,-6.774698238971699
1621785715962.14,-0.10952730173434203,-0.01591405486078946,0.02408594513921054,0.069,-6.531,-6.776
1621785715966.68,-0.099,-0.014,0.026,0.08055822589127767,-6.53989094299329,-6.799412816548998
1621785715971.423,-0.096,-0.009,0.021,0.09263357610722425,-6.549179673928634,-6.823873141345403
1621785715976.161,-0.084,-0.016,0.026,0.10469525236266275,-6.558457886432818,-6.84830576760642
1621785715977.459,-0.08153322336202898,-0.01737043146553946,0.02462956853446054,0.108,-6.561,-6.855
1621785715980.897,-0.075,-0.021,0.021,0.11227272436921111,-6.5499808687320344,-6.855
1621785715985.63,-0.072,-0.024,0.024,0.11815477483232194,-6.534811370169275,-6.855
1621785715990.36,-0.056,-0.019,0.024,0.12403348770360907,-6.519650479080166,-6.855
1621785715992.747,-0.05246584043377227,-0.02101951975213013,0.023495120061967467,0.127,-6.512,-6.855
1621785715995.088,-0.049,-0.023,0.023,0.13313671274961597,-6.505863287250384,-6.842879992319509
1621785715999.812,-0.049,-0.028,0.026,0.1455215053763441,-6.4934784946236555,-6.8184200268817206
1621785716004.533,-0.049,-0.026,0.023,0.15789797747055812,-6.481102022529442,-6.793976494495648
1621785716008.005,-0.043848796895213454,-0.02379234152652005,0.025207658473479947,0.167,-6.472,-6.776
1621785716009.251,-0.042,-0.023,0.026,0.16536365676546497,-6.4656182613853135,-6.771254604619848
1621785716013.968,-0.045,-0.028,0.023,0.15916934100636393,-6.4414604299248195,-6.753291088918456
1621785716018.681,-0.044,-0.033,0.024,0.15298047545004248,-6.417323854255166,-6.735343378805123
1621785716023.235,-0.04496687917897683,-0.024298087389208523,0.024,0.147,-6.394,-6.718
1621785716023.391,-0.045,-0.024,0.024,0.14679471528391294,-6.393599694803631,-6.718195020480283
1621785716028.099,-0.051,-0.037,0.024,0.14059955023692874,-6.381519122962011,-6.7240804272749175
1621785716032.803,-0.058,-0.028,0.028,0.13440984659866678,-6.3694492008674,-6.729960645731267
1621785716037.504,-0.063,-0.038,0.024,0.12822399807244397,-6.357386796241266,-6.7358372018311785
1621785716038.434,-0.06220802369692875,-0.03780200592423219,0.024395988151535625,0.127,-6.355,-6.737
1621785716042.202,-0.059,-0.037,0.026,0.127,-6.359719419944634,-6.756622851348742
1621785716046.898,-0.066,-0.04,0.024,0.127,-6.3656014935942835,-6.781079894418335
1621785716051.591,-0.059,-0.038,0.03,0.127,-6.371479897637288,-6.805521679649778
1621785716053.603,-0.06071598125976054,-0.03757100468505986,0.028284018740239458,0.127,-6.374,-6.816
1621785716056.281,-0.063,-0.037,0.026,0.127,-6.387976403606393,-6.8124616699730645
1621785716060.968,-0.065,-0.049,0.028,0.127,-6.412437976806825,-6.806268866631183
1621785716065.652,-0.063,-0.042,0.026,0.127,-6.436884259931292,-6.80007993419461
1621785716068.74,-0.06431908014809408,-0.04331908014809407,0.02863816029618814,0.127,-6.453,-6.796
1621785716070.334,-0.065,-0.044,0.03,0.127,-6.457113918733339,-6.804227837466677
1621785716075.012,-0.063,-0.044,0.031,0.127,-6.469187252605218,-6.828374505210437
1621785716079.688,-0.061,-0.045,0.033,0.127,-6.481255545682203,-6.852511091364407
1621785716083.851,-0.05654475623138423,-0.045,0.036564195014892616,0.127,-6.492,-6.874
1621785716084.36,-0.056,-0.045,0.037,0.12899172643815876,-6.489366870132604,-6.8759917264381585
1621785716089.03,-0.056,-0.04,0.038,0.14726402538736785,-6.4652102715217845,-6.8942640253873675
1621785716093.698,-0.047,-0.049,0.038,0.16552868222074704,-6.441063776047148,-6.912528682220747
1621785716098.362,-0.054,-0.051,0.044,0.1837780548224665,-6.4169374868448745,-6.930778054822467
1621785716098.93,-0.05375632496988109,-0.05112183751505945,0.04485286260541616,0.186,-6.414,-6.933
1621785716103.023,-0.052,-0.052,0.051,0.17539285540468194,-6.403120877338135,-6.91695329407375
1621785716107.681,-0.056,-0.051,0.049,0.16332165279602862,-6.390740156713875,-6.898691731152966
1621785716112.337,-0.054,-0.051,0.054,0.15125551175354066,-6.378364627439528,-6.8804378254733045
1621785716113.979,-0.057176137257988355,-0.05135290413977648,0.05647032897843538,0.147,-6.374,-6.874
1621785716116.99,-0.063,-0.052,0.061,0.14299018109698605,-6.366180853139123,-6.889838784666905
1621785716121.639,-0.066,-0.052,0.066,0.13679907013037682,-6.354108186754234,-6.9142936729850115
1621785716126.286,-0.07,-0.058,0.072,0.13061056019767858,-6.342040592385473,-6.93873828721917
1621785716128.997,-0.07408572479764533,-0.056832650057815626,0.07375102491327656,0.127,-6.335,-6.953
1621785716130.931,-0.077,-0.056,0.075,0.11435633194885578,-6.327387995765127,-6.976997165892988
1621785716135.572,-0.082,-0.058,0.08,0.08401216711458588,-6.309119569997557,-7.034589152211092
1621785716140.209,-0.084,-0.059,0.08,0.05369513804055705,-6.290867481065233,-7.092129635963841
1621785716143.986,-0.08237053030701985,-0.06470314392543051,0.08488840907894044,0.029,-6.276,-7.139
1621785716144.845,-0.082,-0.066,0.086,0.017747176708662445,-6.273760917814479,-7.149161988380443
1621785716149.477,-0.084,-0.075,0.084,-0.04294066192310203,-6.2616852764540765,-7.203966822246883
1621785716154.107,-0.087,-0.087,0.089,-0.10359971277498534,-6.249615363274365,-7.258745658985573
1621785716158.734,-0.089,-0.098,0.091,-0.16422037992036034,-6.237553087668908,-7.313489832887264
1621785716158.946,-0.08890823653643083,-0.09822940865892292,0.09077059134107708,-0.167,-6.237,-7.316
1621785716163.358,-0.087,-0.103,0.086,-0.23643452526937103,-6.219567502166413,-7.347910335017413
1621785716167.979,-0.079,-0.12,0.087,-0.30916191690783346,-6.201308284691224,-7.381333987344877
1621785716172.598,-0.075,-0.138,0.077,-0.38185472768594364,-6.183057749219274,-7.414741747191838
1621785716173.878,-0.07305845632968312,-0.1427151774850553,0.07589054647410463,-0.402,-6.178,-7.424
1621785716177.213,-0.068,-0.155,0.073,-0.47004148711310645,-6.131892939653619,-7.445934426766725
1621785716181.825,-0.052,-0.168,0.065,-0.5641389785518834,-6.068129507954974,-7.476268486506857
1621785716186.434,-0.047,-0.194,0.056,-0.6581766970883649,-6.00440658026249,-7.506583277350855
1621785716188.778,-0.0388609727667691,-0.208751986860231,0.049895729575076826,-0.706,-5.972,-7.522
1621785716191.042,-0.031,-0.223,0.044,-0.7612698389241909,-5.936219250283238,-7.481651495000246
1621785716195.646,-0.019,-0.25,0.021,-0.8736691295995271,-5.863453869267524,-7.399596916408059
1621785716200.246,-0.007,-0.278,0.0,-0.9859730555145066,-5.7907502257688455,-7.31761195671806
1621785716203.647,-0.0018223862369245473,-0.29279318218021555,-0.019231136834280252,-1.069,-5.737,-7.257
1621785716204.844,0.0,-0.298,-0.026,-1.0800491503956047,-5.720385949040185,-7.222965390752225
1621785716209.439,0.0,-0.316,-0.045,-1.1224631947757142,-5.656610086687612,-7.092317750398895
1621785716214.032,-0.005,-0.332,-0.068,-1.1648592107643971,-5.592861332719227,-6.961725642754923
1621785716218.489,-0.009856094057562378,-0.34559706336117463,-0.08645315741873702,-1.206,-5.531,-6.835
1621785716218.621,-0.01,-0.346,-0.087,-1.2085418741138845,-5.529599739523229,-6.831762455075999
1621785716223.208,-0.012,-0.354,-0.119,-1.2968167925088199,-5.4809711002670705,-6.719328085330871
1621785716227.792,-0.024,-0.361,-0.154,-1.385035329222856,-5.432373520393023,-6.606965528042468
1621785716232.373,-0.035,-0.367,-0.185,-1.4731974842559927,-5.3838069999010845,-6.4946747832107885
1621785716233.298,-0.037424830675697296,-0.36578758466215133,-0.19025379979734414,-1.491,-5.374,-6.472
1621785716236.951,-0.047,-0.361,-0.211,-1.4860569889986457,-5.398220753906637,-6.418862631735439
1621785716241.526,-0.065,-0.347,-0.232,-1.47986616670521,-5.428555783144471,-6.352311292081007
1621785716246.098,-0.077,-0.349,-0.258,-1.4736793088638542,-5.4588713865671155,-6.285802570286432
1621785716248.078,-0.0891309899033068,-0.34510075324536565,-0.2666649927880763,-1.471,-5.472,-6.257
1621785716250.668,-0.105,-0.34,-0.278,-1.4176107800291353,-5.563323665739637,-6.253487551317706
1621785716255.234,-0.127,-0.332,-0.291,-1.3234939743080387,-5.724312938683618,-6.247295656204476
1621785716259.798,-0.157,-0.318,-0.288,-1.2294123957091776,-5.885241954707986,-6.241106078665077
1621785716262.826,-0.18223296032553407,-0.3120237725544788,-0.2820237725544788,-1.167,-5.992,-6.237
1621785716264.358,-0.195,-0.309,-0.279,-1.098618122708952,-6.07974113022276,-6.276759325913517
1621785716268.917,-0.23,-0.288,-0.269,-0.8951180148949228,-6.340853140705601,-6.395080545373119
1621785716273.472,-0.262,-0.278,-0.251,-0.6918031647564232,-6.601727446134452,-6.513294050324271
1621785716277.545,-0.2807942170484416,-0.2717352609838528,-0.22504608121881875,-0.51,-6.835,-6.619
1621785716278.023,-0.283,-0.271,-0.222,-0.48988690535554,-6.865332369269638,-6.6333850935806655
1621785716282.573,-0.297,-0.255,-0.188,-0.29844270469731726,-7.154047571556797,-6.77030796848509
1621785716287.119,-0.3,-0.25,-0.147,-0.10717313254213628,-7.442499418237426,-6.907105947275689
1621785716291.663,-0.293,-0.255,-0.094,0.084024533758851,-7.73084282437419,-7.043852498254712
1621785716292.233,-0.29149419354838707,-0.25449806451612905,-0.08810225806451613,0.108,-7.767,-7.061
1621785716296.204,-0.281,-0.251,-0.047,0.08144990006662226,-7.923591405729514,-7.1485069620253165
1621785716300.741,-0.26,-0.253,-0.002,0.051117888074616924,-8.102488374417057,-7.248478797468355
1621785716305.277,-0.227,-0.248,0.037,0.02079077281812125,-8.281356462358428,-7.3484344936708865
1621785716306.891,-0.21026148790604968,-0.250492969886333,0.04875257232128428,0.01,-8.345,-7.384
1621785716309.809,-0.18,-0.255,0.07,-0.06820109493924423,-8.307894378421686,-7.450630524769663
1621785716314.338,-0.101,-0.241,0.082,-0.1895724395780478,-8.250304913873682,-7.554043864334357
1621785716318.864,-0.026,-0.237,0.087,-0.31087181199092,-8.192749599412473,-7.657395880624916
1621785716321.518,0.0056801942795466805,-0.24110669185105235,0.09521338370210469,-0.382,-8.159,-7.718
1621785716323.388,0.028,-0.244,0.101,-0.382,-8.116342537925037,-7.641395908946461
1621785716327.908,0.084,-0.251,0.122,-0.382,-8.013227215708575,-7.4562218468280115
1621785716332.426,0.129,-0.244,0.143,-0.382,-7.910156450183144,-7.271127799427989
1621785716336.115,0.15760349396938722,-0.2399137865758018,0.15607588295743416,-0.382,-7.826,-7.12
1621785716336.94,0.164,-0.239,0.159,-0.3925901686052358,-7.788226510910736,-7.074411306271578
1621785716341.452,0.19,-0.22,0.169,-0.45051171521469513,-7.581629336640632,-6.82506988904904
1621785716345.962,0.187,-0.204,0.176,-0.5084081889183119,-7.375121593537358,-6.575836405993363
1621785716350.468,0.176,-0.197,0.195,-0.5662545168102436,-7.168792712767741,-6.326818791271411
1621785716350.682,0.17500260247234872,-0.19633506831489916,0.19575992192582956,-0.569,-7.159,-6.315
1621785716354.971,0.155,-0.183,0.211,-0.5920133010882709,-6.999677146311971,-6.202293833131802
1621785716359.472,0.129,-0.18,0.239,-0.6161636436920597,-6.832482466747279,-6.084019078328631
1621785716363.97,0.093,-0.178,0.255,-0.640298266827892,-6.66539661426844,-5.965821308612119
1621785716365.219,0.0816051716644937,-0.172719469795741,0.25972468491960016,-0.647,-6.619,-5.933
1621785716368.464,0.052,-0.159,0.272,-0.7326624880109038,-6.546757222904643,-5.897885089770987
1621785716372.956,0.003,-0.136,0.283,-0.8512378804960541,-6.446757609921082,-5.8492784667418265
1621785716377.445,-0.033,-0.131,0.291,-0.9697359370004544,-6.346823217621027,-5.800703545407124
1621785716379.728,-0.04979089128305583,-0.12845592556317337,0.2965969637610186,-1.03,-6.296,-5.776
1621785716381.932,-0.066,-0.126,0.302,-1.064249688037503,-6.272101328791609,-5.7731078041212776
1621785716386.415,-0.096,-0.131,0.314,-1.1339214529020942,-6.223485919530539,-5.767224410643823
1621785716390.895,-0.129,-0.127,0.319,-1.2035438939664767,-6.17490492732117,-5.761345182287275
1621785716394.206,-0.14453070127603881,-0.12330221398189552,0.3219582288144836,-1.255,-6.139,-5.757
1621785716395.372,-0.15,-0.122,0.323,-1.2629079527598965,-6.133432155709869,-5.746671245374829
1621785716399.847,-0.176,-0.119,0.319,-1.2932565428219034,-6.112064270870293,-5.707032270599963
1621785716404.319,-0.208,-0.11,0.314,-1.3235869194248737,-6.090709209792691,-5.667417084832818
1621785716408.656,-0.22934979513794046,-0.10320688336520076,0.3227340071018847,-1.353,-6.07,-5.629
1621785716408.788,-0.23,-0.103,0.323,-1.353,-6.070183166305526,-5.630529438651137
1621785716413.254,-0.271,-0.093,0.33,-1.353,-6.076376286565547,-5.682241992822318
1621785716417.718,-0.307,-0.086,0.332,-1.353,-6.082567036836403,-5.733934757583965
1621785716422.178,-0.328,-0.08,0.337,-1.353,-6.0887520314192844,-5.78557946235103
1621785716423.078,-0.3316343120070114,-0.07939428133216477,0.33659618755477655,-1.353,-6.09,-5.796
1621785716426.635,-0.346,-0.077,0.335,-1.3821647158608992,-6.126332315521628,-5.863721458863444
1621785716431.089,-0.353,-0.068,0.337,-1.4186836641221374,-6.171826259541985,-5.948519694656489
1621785716435.541,-0.365,-0.063,0.339,-1.4551845971162003,-6.217297760814249,-6.033276098388465
1621785716437.47,-0.36630071887175547,-0.06213285408549635,0.3350978433847336,-1.471,-6.237,-6.07
1621785716439.99,-0.368,-0.061,0.33,-1.4950417892177699,-6.26104178921777,-6.095796664343155
1621785716444.436,-0.377,-0.061,0.328,-1.5374584743025215,-6.303458474302521,-6.141309457828252
1621785716448.879,-0.374,-0.049,0.319,-1.5798448800557643,-6.345844880055764,-6.186789761811659
1621785716451.83,-0.3700120965524825,-0.038365590806620116,0.3143474459778963,-1.608,-6.374,-6.217
1621785716453.319,-0.368,-0.033,0.312,-1.6060255746196181,-6.384183878277759,-6.237471673680803
1621785716457.757,-0.361,-0.023,0.312,-1.6001408222725801,-6.414536811436165,-6.298487263805353
1621785716462.191,-0.351,-0.017,0.305,-1.5942615733247005,-6.444861358641019,-6.3594457923702095
1621785716466.159,-0.341149696969697,1.4159779614324186e-05,0.2987316253443526,-1.589,-6.472,-6.414
1621785716466.622,-0.34,0.002,0.298,-1.5870893012615872,-6.472,-6.41652600850163
1621785716471.051,-0.326,0.019,0.291,-1.5688173003055808,-6.472,-6.440682213155334
1621785716475.478,-0.302,0.031,0.281,-1.5505533571196886,-6.472,-6.464827765163801
1621785716479.9,-0.286,0.038,0.274,-1.5323105655803473,-6.472,-6.488945353978524
1621785716480.46,-0.28359259872963266,0.040914222590444624,0.2733664733499034,-1.53,-6.472,-6.492
1621785716484.32,-0.267,0.061,0.269,-1.5034905389221558,-6.4668604106073575,-6.476040222412318
1621785716488.737,-0.25,0.072,0.265,-1.4731566467065869,-6.460979349871685,-6.457777981180496
1621785716493.152,-0.243,0.087,0.258,-1.4428361676646706,-6.455100889649273,-6.439523815226689
1621785716494.73,-0.23978048375491226,0.09093496429955167,0.25871544805446395,-1.432,-6.453,-6.433
1621785716497.563,-0.234,0.098,0.26,-1.4475210837691845,-6.441259693046386,-6.440760541884592
1621785716501.972,-0.227,0.112,0.257,-1.4716761382148675,-6.4229885621195235,-6.452838069107434
1621785716506.377,-0.218,0.129,0.26,-1.495809791648804,-6.404733619137444,-6.464904895824402
1621785716508.967,-0.21505942679749432,0.13546926104551252,0.2582356560784966,-1.51,-6.394,-6.472
1621785716510.781,-0.213,0.14,0.257,-1.5149785238127964,-6.396553089134767,-6.490765205140541
1621785716515.181,-0.211,0.148,0.244,-1.5270542918012509,-6.402745790667308,-6.5362815614047145
1621785716519.578,-0.202,0.169,0.241,-1.5391220191052162,-6.408934368771906,-6.581767610473507
1621785716523.177,-0.19626636292921437,0.17964818313145905,0.23526636292921438,-1.549,-6.414,-6.619
1621785716523.972,-0.195,0.182,0.234,-1.5392304548168332,-6.428155871591935,-6.619996892365629
1621785716528.881,-0.185,0.197,0.234,-1.478896912266736,-6.515577943450239,-6.626153376299313
1621785716533.921,-0.166,0.213,0.234,-1.4169581158244415,-6.605325995438054,-6.632473661650567
1621785716538.874,-0.143,0.234,0.234,-1.3560844878526706,-6.693530640050213,-6.638685256341565
1621785716539.125,-0.14219801062947973,0.2346014920278902,0.23425062167828758,-1.353,-6.698,-6.639
1621785716543.881,-0.127,0.246,0.239,-1.2924461394534728,-6.793240052510073,-6.633120984412959
1621785716548.89,-0.11,0.264,0.243,-1.2286751316524074,-6.893540084197185,-6.626929624432273
1621785716553.897,-0.087,0.288,0.25,-1.1649258823351893,-6.993805893802906,-6.620740376925746
1621785716555.305,-0.07884697508896797,0.29053024911032027,0.25084341637010676,-1.147,-7.022,-6.619
1621785716558.905,-0.058,0.297,0.253,-1.1710333207575643,-7.039357398324908,-6.636579929072663
1621785716563.912,-0.026,0.304,0.255,-1.2044592922357202,-7.063498377725798,-6.661030408209462
1621785716568.919,0.005,0.309,0.258,-1.2378836338942125,-7.087638180034709,-6.68547969516336
1621785716571.483,0.019337900433955824,0.305415524891511,0.25441552489151104,-1.255,-7.1,-6.698
1621785716573.926,0.033,0.302,0.251,-1.3113387469246676,-7.0969791556608754,-6.692109353538708
1621785716578.933,0.07,0.307,0.244,-1.426803057974733,-7.090788039786878,-6.680036677584411
1621785716583.939,0.098,0.298,0.239,-1.5422392193561045,-7.084598433278493,-6.667966944893061
1621785716587.658,0.1277098834657955,0.28908703496026134,0.23008703496026134,-1.628,-7.08,-6.659
1621785716588.946,0.138,0.286,0.227,-1.658422074295461,-7.066779936300925,-6.642594378783076
1621785716593.952,0.168,0.274,0.211,-1.7766506966142883,-7.015403100424157,-6.578837582454074
1621785716598.958,0.195,0.264,0.201,-1.8948850850578876,-6.96402375884919,-6.515077676644176
1621785716603.832,0.22128763716166788,0.24355405998536941,0.18542214094123385,-2.01,-6.914,-6.453
1621785716603.964,0.222,0.243,0.185,-2.011363934178744,-6.911754000603865,-6.449553411835749
1621785716608.97,0.248,0.244,0.171,-2.0630572916666665,-6.8266302083333334,-6.3189270833333335
1621785716613.976,0.26,0.234,0.157,-2.114753170289855,-6.741502264492754,-6.188294384057971
1621785716618.981,0.258,0.234,0.148,-2.166436443236715,-6.656395078502416,-6.057693538647342
1621785716620.004,0.25656933808106924,0.23359123945173407,0.14636495780693626,-2.177,-6.639,-6.031
1621785716623.986,0.251,0.232,0.14,-2.1673967482374965,-6.6124063797346055,-5.968209507706707
1621785716628.991,0.237,0.236,0.131,-2.1553271840702886,-6.578982971271569,-5.889293126613427
1621785716633.996,0.204,0.246,0.133,-2.1432570311438535,-6.5455579323983635,-5.8103728959405805
1621785716636.176,0.185702868852459,0.2512277517564403,0.13648516783762685,-2.138,-6.531,-5.776
1621785716639.0,0.162,0.258,0.141,-2.0917166304282175,-6.546369571782328,-5.926726596001691
1621785716644.005,0.099,0.279,0.157,-2.009689391194057,-6.573608805943105,-6.193856812828411
1621785716649.009,0.024,0.311,0.192,-1.9276741559461255,-6.600844053874494,-6.460947937428278
1621785716652.345,-0.03398868292682926,0.31633229268292684,0.22132760975609755,-1.873,-6.619,-6.639
1621785716654.014,-0.063,0.319,0.236,-1.8355269102990033,-6.666589791603745,-6.866832256115977
1621785716659.018,-0.147,0.325,0.283,-1.7231679401993356,-6.80928258834189,-7.5499624131682275
1621785716664.021,-0.23,0.312,0.319,-1.6108363787375415,-6.951940576864995,-8.232925928722441
1621785716668.512,-0.2820545472287275,0.2859727263856362,0.34771975019516,-1.51,-7.08,-8.846
1621785716669.025,-0.288,0.283,0.351,-1.5093972124909398,-7.111122870862527,-8.889844859869534
1621785716674.029,-0.323,0.244,0.375,-1.5035165196907465,-7.4147523254409275,-9.31758788354675
1621785716679.032,-0.293,0.204,0.379,-1.497637261415801,-7.7183077132157525,-9.745226564387533
1621785716684.035,-0.195,0.169,0.375,-1.4917580031408553,-8.021863100990577,-10.172865245228316
1621785716684.68,-0.17386090647411817,0.16345743279504318,0.37216426794165,-1.491,-8.061,-10.228
1621785716689.039,-0.031,0.126,0.353,-1.578096245620394,-8.07151626495107,-10.28894040715235
1621785716694.041,0.171,0.091,0.326,-1.67803619971004,-8.083583318231243,-10.358867433852845
1621785716699.043,0.384,0.061,0.29,-1.7779761537996859,-8.095650371511416,-10.428794460553341
1621785716700.846,0.45391460081983215,0.059198077298457934,0.2741430802264298,-1.814,-8.1,-10.454
1621785716704.046,0.578,0.056,0.246,-1.6858843817984046,-7.822383158085569,-10.116186638868745
1621785716709.049,0.716,0.052,0.201,-1.4855736040609138,-7.388324873096447,-9.588010152284264
1621785716714.051,0.796,0.077,0.164,-1.285311699299009,-6.954372492144066,-9.059962533236645
1621785716717.006,0.8125452060144502,0.09236340558484671,0.15454559656317124,-1.167,-6.698,-8.748
1621785716719.052,0.824,0.103,0.148,-1.0577347364286038,-6.583796908758518,-8.437549911614063
1621785716724.054,0.794,0.129,0.155,-0.7905955096922357,-6.304585341532325,-7.678540196715367
1621785716729.056,0.717,0.182,0.155,-0.5234562829558675,-6.025373774306133,-6.919530481816671
1621785716733.165,0.6372984280413981,0.2329432727982816,0.16568165397383325,-0.304,-5.796,-6.296
1621785716734.057,0.62,0.244,0.168,-0.28341209978393245,-5.7656977018267535,-6.26133726183461
1621785716739.058,0.506,0.307,0.176,-0.1679609265219165,-5.595770907937084,-6.0669583427768465
1621785716744.059,0.389,0.361,0.188,-0.0525153891482707,-5.425852409228956,-5.872588912560627
1621785716749.061,0.29,0.419,0.197,0.0629526917788556,-5.25590072979466,-5.678181526978227
1621785716749.323,0.28549423828125,0.422195947265625,0.197366748046875,0.069,-5.247,-5.668
1621785716754.061,0.204,0.48,0.204,0.13790961425139386,-5.1405566384116765,-5.8981874348397625
1621785716759.061,0.143,0.543,0.213,0.21062919480833447,-5.028228094827977,-6.141101778402309
1621785716764.062,0.099,0.599,0.22,0.28336297840835256,-4.915877612075609,-6.384063566172582
1621785716765.481,0.0921890625,0.6129056640625,0.2208513671875,0.304,-4.884,-6.453
1621785716769.062,0.075,0.648,0.223,0.36694232657933307,-4.805765347596815,-6.546305350316547
1621785716774.062,0.075,0.674,0.237,0.4548247132949549,-4.696531254249581,-6.676581705271746
1621785716779.062,0.08,0.702,0.257,0.5427071000105768,-4.587297160902346,-6.806858060226946
1621785716781.639,0.07948451846063684,0.7128251123266263,0.2678251123266263,0.588,-4.531,-6.874
1621785716784.061,0.079,0.723,0.278,0.6277313777938976,-4.4854213628326605,-6.835767919481343
1621785716789.061,0.066,0.735,0.29,0.7097491801544483,-4.391333015973765,-6.756845128530625
1621785716794.061,0.061,0.73,0.311,0.791766982514999,-4.297244669114869,-6.677922337579906
1621785716797.794,0.04158128175068386,0.7217843884329816,0.3319124658069559,0.853,-4.227,-6.619
1621785716799.059,0.035,0.719,0.339,0.8515118873086166,-4.246972038752777,-6.593702084246482
1621785716804.058,0.002,0.703,0.365,0.845631803273733,-4.325888956063056,-6.493740655653462
1621785716809.057,-0.049,0.681,0.382,0.8397520064084155,-4.4048020192554755,-6.393784108943065
1621785716813.947,-0.11062775932799375,0.661435631959367,0.3996079312365697,0.834,-4.482,-6.296
1621785716814.056,-0.112,0.661,0.4,0.8300293535271089,-4.48702229477471,-6.30042905727112
1621785716819.054,-0.162,0.639,0.415,0.6477713387445396,-4.717552381384241,-6.503728744388519
1621785716824.052,-0.213,0.621,0.424,0.46551332396197037,-4.948082467993773,-6.707028431505918
1621785716829.05,-0.246,0.592,0.414,0.2832553091794011,-5.178612554603305,-6.910328118623317
1621785716830.099,-0.24788869896464152,0.5875930357491698,0.411691590154327,0.245,-5.227,-6.953
1621785716834.049,-0.255,0.571,0.403,-0.006917913832199585,-5.447611609977324,-7.25530149659864
1621785716839.046,-0.239,0.541,0.377,-0.32560287226001516,-5.726693000755858,-7.637723446712018
1621785716844.044,-0.222,0.503,0.34,-0.6443656840513985,-6.005842569916855,-8.020238820861678
1621785716846.249,-0.21405861664712778,0.4897643610785463,0.31264634622899573,-0.785,-6.129,-8.189
1621785716849.042,-0.204,0.473,0.278,-0.8968991322226589,-6.296935173706649,-8.258526199619025
1621785716854.039,-0.161,0.443,0.216,-1.0971046775315212,-6.597398210020258,-8.382919753273063
1621785716859.036,-0.103,0.412,0.15,-1.2973004414477067,-6.897846566685816,-8.507307229462098
1621785716862.398,-0.061950791634089133,0.3978683053166536,0.11164254300234558,-1.432,-7.1,-8.591
1621785716864.032,-0.042,0.391,0.093,-1.4299759276620194,-7.152625880787491,-8.584016950433966
1621785716869.03,0.01,0.382,0.038,-1.4237848610397073,-7.313593612967611,-8.56265777058699
1621785716874.026,0.068,0.372,-0.017,-1.4175965161641515,-7.474490579732059,-8.541307980766323
1621785716878.544,0.1267807857701329,0.37380863956215793,-0.06673758795934323,-1.412,-7.62,-8.522
1621785716879.022,0.133,0.374,-0.072,-1.397194930889514,-7.60110873181502,-8.520845204609383
1621785716884.018,0.204,0.384,-0.11,-1.242460030850195,-7.403666999364849,-8.508775882406315
1621785716889.015,0.281,0.386,-0.145,-1.087702446843904,-7.206196322172822,-8.496704790853824
1621785716894.01,0.344,0.386,-0.173,-0.9329977920938815,-7.008793182711793,-8.484637827783324
1621785716894.688,0.3488852619233776,0.3861357017200938,-0.17584973612197027,-0.912,-6.982,-8.483
1621785716899.006,0.38,0.387,-0.194,-0.717790223539732,-6.727601243231797,-8.288790223539733
1621785716904.001,0.408,0.394,-0.213,-0.493142865785414,-6.433331770470976,-8.064142865785414
1621785716908.997,0.417,0.396,-0.223,-0.26844060618893495,-6.138990380834266,-7.839440606188934
1621785716910.83,0.4162660442836893,0.392697199276602,-0.22263302214184466,-0.186,-6.031,-7.757
1621785716913.992,0.415,0.387,-0.222,-0.08608909528203422,-5.881133642923051,-7.591853151613244
1621785716918.987,0.407,0.38,-0.22,0.07175023067963515,-5.644374653980547,-7.330954030464838
1621785716923.982,0.379,0.391,-0.222,0.22958184210924382,-5.407627236836134,-7.070067660984132
1621785716926.97,0.3568669110459433,0.3939909579667644,-0.2184108504398827,0.324,-5.266,-6.914
1621785716928.977,0.342,0.396,-0.216,0.3666667524096294,-5.2159940686044575,-6.832273888241613
1621785716933.971,0.3,0.391,-0.204,0.4728276112514942,-5.091572304014283,-6.628927869993493
1621785716938.965,0.243,0.401,-0.192,0.5789936600644585,-4.967144456717457,-6.425571910605395
1621785716943.105,0.18165470545099,0.40265798093375704,-0.18453908579809336,0.667,-4.864,-6.257
1621785716943.959,0.169,0.403,-0.183,0.6779046170608799,-4.87490461706088,-6.236725881872247
1621785716948.954,0.091,0.405,-0.168,0.7416863394924411,-4.938686339492441,-6.118141417351432
1621785716953.947,0.005,0.421,-0.155,0.8054400054478594,-5.00244000544786,-5.999609116084804
1621785716958.941,-0.07,0.422,-0.14,0.8692061409482302,-5.06620614094823,-5.8810536311496495
1621785716959.238,-0.0745818990807745,0.4225355466458048,-0.1391669274398592,0.873,-5.07,-5.874
1621785716963.934,-0.147,0.431,-0.126,0.873,-5.232746942544045,-5.9083544529878305
1621785716968.928,-0.213,0.438,-0.119,0.873,-5.405816280196161,-5.944887873100442
1621785716973.921,-0.26,0.445,-0.113,0.873,-5.57885177392989,-5.981414149058546
1621785716975.368,-0.27159428794992174,0.4455797143974961,-0.11010142801251956,0.873,-5.629,-5.992
1621785716978.913,-0.3,0.447,-0.103,0.849263179403351,-5.72592535076965,-6.1170578788841965
1621785716983.906,-0.33,0.452,-0.094,0.8158328565590519,-5.8624325023838715,-6.293186153869439
1621785716988.899,-0.349,0.454,-0.094,0.7824025337147528,-5.998939653998093,-6.469314428854682
1621785716991.498,-0.3510825508607199,0.4529587245696401,-0.09347936228482003,0.765,-6.07,-6.561
1621785716993.891,-0.353,0.452,-0.093,0.7154379920067822,-6.086026038512777,-6.652556164466513
1621785716998.883,-0.353,0.457,-0.096,0.6120515017560857,-6.119456400629769,-6.843542585079327
1621785717003.875,-0.326,0.445,-0.099,0.5086650115053893,-6.1528867627467605,-7.03452900569214
1621785717007.625,-0.3027170309520317,0.43298298371717764,-0.10951488924746956,0.431,-6.178,-7.178
1621785717008.868,-0.295,0.429,-0.113,0.4272237511353315,-6.174994414168937,-7.184088237965486
1621785717013.859,-0.267,0.419,-0.131,0.412060157432637,-6.162925431425976,-7.208535664547381
1621785717018.851,-0.246,0.398,-0.141,0.3968928549803209,-6.150853496821072,-7.232989070541931
1621785717023.753,-0.22733923592427727,0.3803213814019469,-0.1567143276427139,0.382,-6.139,-7.257
1621785717023.842,-0.227,0.38,-0.157,0.3823812904983952,-6.138944740507479,-7.255209592442318
1621785717028.833,-0.211,0.354,-0.161,0.403736692303034,-6.1358497547386905,-7.154932053533579
1621785717033.824,-0.201,0.326,-0.18,0.42509209410767274,-6.132754768969902,-7.054654514624841
1621785717038.815,-0.202,0.298,-0.19,0.44644749591231153,-6.129659783201114,-6.9543769757161025
1621785717039.879,-0.20285287929937865,0.2933091638534175,-0.19298507754782523,0.451,-6.129,-6.933
1621785717043.805,-0.206,0.276,-0.204,0.4653667322834646,-6.119503346456693,-6.866279921259842
1621785717048.796,-0.209,0.25,-0.213,0.4836304663840097,-6.1074307086614175,-6.78146190187765
1621785717053.787,-0.215,0.234,-0.222,0.5018950938824954,-6.09535748031496,-6.696639733494852
1621785717056.002,-0.21411206812175784,0.22245688558285212,-0.2255517275129686,0.51,-6.09,-6.659
1621785717058.776,-0.213,0.208,-0.23,0.48797661881398025,-6.096710248955115,-6.623556120903749
1621785717063.766,-0.218,0.185,-0.248,0.448357017384457,-6.108781846265673,-6.559793324853111
1621785717068.757,-0.22,0.164,-0.264,0.40873160094493916,-6.120855215337088,-6.496021170270762
1621785717072.124,-0.22472410080743824,0.1430789821384879,-0.2734482016148765,0.382,-6.129,-6.453
1621785717073.746,-0.227,0.133,-0.278,0.40272885334787284,-6.151741363381647,-6.445050585366593
1621785717078.735,-0.227,0.11,-0.288,0.4664847410907659,-6.221687143138413,-6.420600511911793
1621785717083.725,-0.232,0.077,-0.291,0.5302531085767943,-6.291646614263862,-6.396145652536084
1621785717088.244,-0.21931950085637386,0.04801600195742598,-0.2846597504281869,0.588,-6.355,-6.374
1621785717088.714,-0.218,0.045,-0.284,0.5991732505301424,-6.358413238412603,-6.376304665252953
1621785717093.703,-0.213,0.01,-0.281,0.7177164495607391,-6.394626173886701,-6.400756134504696
1621785717098.691,-0.202,-0.021,-0.269,0.8362422447743108,-6.430833792790064,-6.425204013935171
1621785717103.681,-0.195,-0.047,-0.255,0.9548144501666161,-6.46705558921539,-6.4496614662223575
1621785717104.362,-0.1933613136899809,-0.05055048700504136,-0.25281508491997456,0.971,-6.472,-6.453
1621785717108.669,-0.183,-0.073,-0.239,1.0129572041023465,-6.490439790337974,-6.544664465013407
1621785717113.657,-0.166,-0.099,-0.222,1.061550120434473,-6.5117959128024125,-6.6508260592931485
1621785717118.645,-0.15,-0.117,-0.206,1.1101430367665994,-6.53315203526685,-6.75698765357289
1621785717120.478,-0.1415479418530664,-0.1228796926239538,-0.20085526895404043,1.128,-6.541,-6.796
1621785717123.633,-0.127,-0.133,-0.192,1.0972603215005376,-6.602479356998924,-6.84024947350878
1621785717128.621,-0.103,-0.148,-0.182,1.0486615153856642,-6.699676969228672,-6.910206990591337
1621785717133.608,-0.061,-0.166,-0.168,1.0000746026695755,-6.796850794660849,-6.980147387239974
1621785717136.592,-0.03467666780872204,-0.1743756056972248,-0.1614191669521805,0.971,-6.855,-7.022
1621785717138.596,-0.017,-0.18,-0.157,0.9514746132517159,-6.9049949393172625,-7.026850255306899
1621785717143.583,0.038,-0.195,-0.145,0.9028823770057122,-7.029415824482189,-7.038920938196034
1621785717148.57,0.099,-0.202,-0.131,0.8542901407597084,-7.153836709647115,-7.050991621085168
1621785717152.705,0.1587132504162178,-0.21526961120360397,-0.11938909019684654,0.814,-7.257,-7.061
1621785717153.556,0.171,-0.218,-0.117,0.8347019245340203,-7.249764888619487,-7.070294741627519
1621785717158.544,0.243,-0.223,-0.101,0.9560680709198363,-7.20734865888771,-7.12478566449462
1621785717163.53,0.314,-0.23,-0.087,1.077386694953781,-7.16494903773299,-7.179255250795575
1621785717168.516,0.372,-0.225,-0.061,1.1987053189877255,-7.12254941657827,-7.2337248370965295
1621785717168.816,0.3749464303202429,-0.225,-0.059857506610518064,1.206,-7.12,-7.237
1621785717173.502,0.421,-0.225,-0.042,1.2118175095094488,-6.9088244048070075,-7.274232060860473
1621785717178.489,0.449,-0.208,-0.026,1.2180087289920742,-6.684083137587707,-7.313855865549275
1621785717183.474,0.457,-0.187,-0.028,1.224197523754679,-6.459429887705154,-7.353464152029946
1621785717184.926,0.4567087944373715,-0.18379673881108607,-0.02683517774948585,1.226,-6.394,-7.365
1621785717188.46,0.456,-0.176,-0.024,0.9978606977237595,-6.338061997999576,-7.235794183614706
1621785717193.446,0.436,-0.185,-0.031,0.6759754493377382,-6.259138211135696,-7.053495711211469
1621785717198.431,0.428,-0.201,-0.042,0.354169005546631,-6.180233746552299,-6.871241869487467
1621785717201.036,0.4149361868847642,-0.2219021009843773,-0.055586365639845245,0.186,-6.139,-6.776
1621785717203.416,0.403,-0.241,-0.068,-0.032710039259674695,-6.159245456336875,-6.620981870822027
1621785717208.401,0.361,-0.307,-0.112,-0.4907694896242288,-6.201646905458459,-6.296316760394719
1621785717213.386,0.33,-0.386,-0.166,-0.9488513740886146,-6.244050431250095,-5.971635749041246
1621785717217.142,0.31040607396522163,-0.4485498408033309,-0.21347759000734756,-1.294,-6.276,-5.727
1621785717218.37,0.304,-0.469,-0.229,-1.2783694103380325,-6.263343034712748,-5.804009246627255
1621785717223.354,0.288,-0.541,-0.276,-1.2149334546005761,-6.211975382749735,-6.116547370016675
1621785717228.339,0.29,-0.604,-0.312,-1.1514819614976504,-6.160595149310293,-6.429162043353039
1621785717233.248,0.29,-0.6571879102576663,-0.33957891642990107,-1.089,-6.11,-6.737
1621785717233.323,0.29,-0.658,-0.34,-1.0920998817429273,-6.105797007186392,-6.745582855756694
1621785717238.307,0.271,-0.689,-0.389,-1.2982268716455927,-5.826318520876922,-7.316300827799509
1621785717243.291,0.239,-0.716,-0.435,-1.5043639588829254,-5.546826344037115,-7.887046757027199
1621785717248.274,0.192,-0.737,-0.489,-1.7104505594469206,-5.267402619848995,-8.457652900330512
1621785717249.351,0.18292314474650992,-0.744131814842028,-0.5017508204751409,-1.755,-5.207,-8.581
1621785717253.258,0.15,-0.77,-0.548,-1.8241614982182122,-5.1451186594889675,-8.742862173022973
1621785717258.241,0.129,-0.796,-0.609,-1.9123690954583366,-5.066196072484646,-8.949298900598983
1621785717263.224,0.138,-0.82,-0.661,-2.000581014481765,-4.987269618621578,-9.15574574266434
1621785717265.451,0.1496213858669019,-0.8347502205233754,-0.6878185827697736,-2.04,-4.952,-9.248
1621785717268.206,0.164,-0.853,-0.721,-1.977881675916659,-4.893304173111334,-9.195978042640949
1621785717273.19,0.218,-0.883,-0.778,-1.8655127376944773,-4.787126360961999,-9.101872926333668
1621785717278.172,0.29,-0.916,-0.833,-1.7531823309980894,-4.680984957389379,-9.007800078852394
1621785717281.551,0.3395109281583848,-0.9282081740664511,-0.8560598843477408,-1.677,-4.609,-8.944
1621785717283.154,0.363,-0.934,-0.867,-1.5685706422018348,-4.561207445598605,-8.800423201152476
1621785717288.136,0.414,-0.941,-0.888,-1.2315908256880734,-4.412676396997497,-8.354211175979984
1621785717293.119,0.414,-0.939,-0.871,-0.8945449541284404,-4.264116233224657,-7.907911683979074
1621785717297.651,0.3721484095476155,-0.9308116453462727,-0.8582625594275352,-0.588,-4.129,-7.502
1621785717298.1,0.368,-0.93,-0.857,-0.5746055991992477,-4.138292365555522,-7.462040037611089
1621785717303.082,0.29,-0.902,-0.829,-0.4260587824926446,-4.241346719645727,-7.018875367769723
1621785717308.064,0.182,-0.881,-0.806,-0.2775119657860414,-4.344401073735933,-6.575710697928357
1621785717313.045,0.082,-0.846,-0.784,-0.12899426734204855,-4.447435227031454,-6.132632897570446
1621785717313.749,0.06842956572885012,-0.8392147828644251,-0.7791938045289678,-0.108,-4.462,-6.07
1621785717318.026,-0.014,-0.798,-0.75,0.13432759483686996,-4.917958500811479,-6.109059382062522
1621785717323.007,-0.099,-0.759,-0.698,0.4165635759680869,-5.449007781097848,-6.154551365863277
1621785717327.987,-0.176,-0.696,-0.641,0.6987303917851022,-5.979926921385126,-6.200032201307467
1621785717329.845,-0.19315475840439086,-0.673997157698716,-0.6122844261491718,0.804,-6.178,-6.217
1621785717332.969,-0.222,-0.637,-0.564,0.8554394502510582,-6.41209802642557,-6.493026031158507
1621785717337.948,-0.244,-0.583,-0.497,0.9374225815749154,-6.785198616525841,-6.932950607545395
1621785717342.929,-0.248,-0.538,-0.435,1.019437872605088,-7.158445563629193,-7.373047754129944
1621785717345.939,-0.24376821614200253,-0.5253046484260077,-0.4017502696871629,1.069,-7.384,-7.639
1621785717347.908,-0.241,-0.517,-0.38,1.0005975815139054,-7.4788334066667685,-7.8034594820130785
1621785717352.889,-0.194,-0.51,-0.33,0.8275602421520581,-7.718733116873265,-8.21949201171312
1621785717357.869,-0.126,-0.501,-0.284,0.654556828354246,-7.958585792532128,-8.635442974404103
1621785717362.03,-0.05412670393252918,-0.5051786800039227,-0.25558497597332547,0.51,-8.159,-8.983
1621785717362.848,-0.04,-0.506,-0.25,0.46861561342803376,-8.141053208280217,-9.03038359740181
1621785717367.828,0.059,-0.511,-0.23,0.21662793662356583,-8.031775997086141,-9.318900200327809
1621785717372.807,0.152,-0.527,-0.225,-0.03531032598798034,-7.922520214897105,-9.607360225824076
1621785717377.786,0.248,-0.55,-0.213,-0.2872485885995266,-7.813264432708068,-9.895820251320341
1621785717378.117,0.2525222167729279,-0.5506650318783718,-0.21226846493379106,-0.304,-7.806,-9.915
1621785717382.764,0.316,-0.56,-0.202,-0.3323050636560902,-7.641657334486578,-9.767698138116264
1621785717387.744,0.379,-0.572,-0.188,-0.36263850320935953,-7.465537670141576,-9.609840442481904
1621785717392.722,0.414,-0.572,-0.173,-0.3929600461298008,-7.289487079103504,-9.452044657895934
1621785717394.206,0.41698136341343794,-0.5717018636586562,-0.16763354585581167,-0.402,-7.237,-9.405
1621785717397.7,0.424,-0.571,-0.155,-0.3935286108918706,-7.111449669115415,-9.11306289842754
1621785717402.678,0.422,-0.555,-0.14,-0.38145876085240726,-6.932568301863882,-8.697117297067573
1621785717407.657,0.414,-0.557,-0.124,-0.36938654301499607,-6.753651842632506,-8.281090097747557
1621785717410.291,0.4044756253065228,-0.5543543403629231,-0.1144756253065228,-0.363,-6.659,-8.061
1621785717412.635,0.396,-0.552,-0.106,-0.328604529722509,-6.594581364988766,-7.89091731434817
1621785717417.612,0.374,-0.541,-0.086,-0.2555719230068614,-6.457799957495901,-7.529777263343251
1621785717422.59,0.34,-0.52,-0.072,-0.1825249863379683,-6.320991711700771,-7.168566351933936
1621785717426.374,0.3073064998773608,-0.5017524650478293,-0.04919058130978661,-0.127,-6.217,-6.894
1621785717427.567,0.297,-0.496,-0.042,-0.11105255647316006,-6.193041747631771,-6.856912922030605
1621785717432.544,0.241,-0.464,-0.017,-0.04451457371872723,-6.093080034005344,-6.702173427252854
1621785717437.522,0.176,-0.443,0.019,0.022036464658732074,-5.993098706582463,-6.547403570561088
1621785717442.456,0.11948101265822783,-0.40730379746835443,0.05072995780590718,0.088,-5.894,-6.394
1621785717442.498,0.119,-0.407,0.051,0.08717979558673895,-5.893255546949748,-6.394255987364648
1621785717447.475,0.079,-0.382,0.068,-0.010033501905933453,-5.805020547633149,-6.424596443270005
1621785717452.451,0.049,-0.354,0.091,-0.10722295624705758,-5.716807189393594,-6.454929457682203
1621785717457.427,0.016,-0.326,0.103,-0.20441717921849137,-5.62858950293863,-6.485263960393032
1621785717458.532,0.008673501422544885,-0.3186735014225449,0.10566418130089276,-0.226,-5.609,-6.492
1621785717462.404,-0.017,-0.293,0.115,-0.341597667638484,-5.585398809523809,-6.501392310495627
1621785717467.379,-0.031,-0.269,0.119,-0.49011807580174926,-5.555075892857143,-6.513459593658892
1621785717472.355,-0.04,-0.248,0.115,-0.6386749271137026,-5.524745535714286,-6.525529837827988
1621785717474.61,-0.035920453430169794,-0.24165403866915303,0.115,-0.706,-5.511,-6.531
1621785717477.33,-0.031,-0.234,0.115,-0.7540456153670944,-5.462954384632906,-6.5044395717865005
1621785717482.306,-0.016,-0.22,0.119,-0.8419387745805178,-5.375061225419483,-6.455850747855136
1621785717487.281,0.0,-0.208,0.112,-0.9298189962797054,-5.287181003720295,-6.407269076000303
1621785717490.688,0.003424035724801256,-0.208,0.10583673569535773,-0.99,-5.227,-6.374
1621785717492.256,0.005,-0.208,0.103,-1.009215061274696,-5.193544334937966,-6.301333905331734
1621785717497.232,0.0,-0.206,0.098,-1.0701869068047563,-5.08738523332979,-6.070755098631759
1621785717502.206,-0.019,-0.192,0.098,-1.1311378111190415,-4.981262592823192,-5.840255485869614
1621785717506.765,-0.06115331010452961,-0.1837526132404181,0.09891637630662022,-1.187,-4.884,-5.629
1621785717507.181,-0.065,-0.183,0.099,-1.187,-4.884,-5.615048275128738
1621785717512.155,-0.126,-0.164,0.101,-1.187,-4.884,-5.4482334614391394
1621785717517.13,-0.188,-0.145,0.113,-1.187,-4.884,-5.28139408485364
1621785717522.104,-0.267,-0.127,0.126,-1.187,-4.884,-5.114579271164041
1621785717522.837,-0.2765050903599786,-0.12392912465293,0.12643869647815287,-1.187,-4.884,-5.09
1621785717527.116,-0.332,-0.106,0.129,-1.1921375038568343,-4.987290867016354,-5.1613842641160135
1621785717532.139,-0.403,-0.073,0.134,-1.1981681425485962,-5.108538444924406,-5.245178401727862
1621785717536.793,-0.447,-0.054,0.133,-1.203755877815489,-5.2208813329219375,-5.32281851280469
1621785717538.662,-0.45683575452119773,-0.04000296471983397,0.136782982508153,-1.206,-5.266,-5.354
1621785717541.734,-0.473,-0.017,0.143,-1.2306328540838176,-5.401865585806057,-5.5125739981645765
1621785717546.674,-0.471,0.005,0.141,-1.2702486387274396,-5.620371397981034,-5.767600611807892
1621785717551.614,-0.454,0.038,0.134,-1.3098624655858062,-5.838866411746712,-6.022614622208627
1621785717554.624,-0.43145958098626347,0.05201161181934974,0.1321723984583457,-1.334,-5.972,-6.178
1621785717556.555,-0.417,0.061,0.131,-1.3802217428553945,-6.03963862370724,-6.238499663423291
1621785717561.494,-0.36,0.073,0.122,-1.4984498194724925,-6.212647772474145,-6.393248454806927
1621785717566.433,-0.291,0.087,0.106,-1.6166837402851724,-6.385665473349244,-6.5480048956612205
1621785717570.582,-0.2221031345792544,0.09876287946207851,0.09003609215860772,-1.716,-6.531,-6.678
1621785717571.371,-0.209,0.101,0.087,-1.718918083462133,-6.5411885625965995,-6.676071097372488
1621785717576.311,-0.131,0.115,0.059,-1.737186802760647,-6.604974260486327,-6.6639951642768605
1621785717581.248,-0.056,0.126,0.037,-1.755444687590861,-6.668722129554532,-6.651926392948414
1621785717586.186,0.01,0.138,0.016,-1.7737061839105084,-6.732482608229911,-6.639855234364241
1621785717586.536,0.01389671709680609,0.13913359042816179,0.015362355384159004,-1.775,-6.737,-6.639
1621785717591.124,0.065,0.154,0.007,-1.642399703073344,-6.731534911840333,-6.486840440186115
1621785717596.06,0.098,0.178,-0.003,-1.4997448420472634,-6.725655427329497,-6.323143213542305
1621785717600.996,0.11,0.192,-0.005,-1.357089981021183,-6.719775942818661,-6.159445986898494
1621785717602.487,0.11151036256615719,0.19683316021170302,-0.007114507592620072,-1.314,-6.718,-6.11
1621785717605.932,0.115,0.208,-0.012,-1.2399062447373659,-6.709359328832345,-6.018840919181249
1621785717610.868,0.112,0.204,-0.012,-1.133738452823834,-6.696978245227269,-5.888220487147691
1621785717615.803,0.106,0.209,-0.012,-1.0275916655184556,-6.684599611139179,-5.7576258975183325
1621785717618.434,0.11079830810329475,0.21219887206886315,-0.012,-0.971,-6.678,-5.688
1621785717620.738,0.115,0.215,-0.012,-1.002212936024255,-6.651122193979114,-5.665312819649037
1621785717625.672,0.126,0.222,-0.021,-1.0690576363580682,-6.593561479802775,-5.616726625424922
1621785717630.607,0.124,0.227,-0.037,-1.135912259210486,-6.535992221235415,-5.568133218999785
1621785717634.378,0.1209422943680095,0.23082213203998814,-0.06069721864792636,-1.187,-6.492,-5.531
1621785717635.54,0.12,0.232,-0.068,-1.1898434886499403,-6.483396624084796,-5.560309806084
1621785717640.473,0.091,0.22,-0.108,-1.2019133811230587,-6.446877462243053,-5.684722543883834
1621785717645.407,0.054,0.215,-0.134,-1.2139862604540024,-6.410349263241736,-5.8091660692951015
1621785717650.317,0.030108108108108107,0.20803153153153153,-0.1568963963963964,-1.226,-6.374,-5.933
1621785717650.339,0.03,0.208,-0.157,-1.2263137161768762,-6.374341602059265,-5.934791667943492
1621785717655.271,0.024,0.19,-0.171,-1.2959552600128703,-6.4501735053473475,-6.332522262740171
1621785717660.202,0.031,0.152,-0.187,-1.3655830141268042,-6.525990393160297,-6.73017410290197
1621785717665.133,0.056,0.103,-0.204,-1.435214215671253,-6.601811034842031,-7.127845631722489
1621785717666.251,0.06461353398346617,0.0950664818573338,-0.20808009504479974,-1.451,-6.619,-7.218
1621785717670.065,0.094,0.068,-0.222,-1.3830001839221397,-6.619,-7.429182527396735
1621785717674.995,0.131,0.014,-0.232,-1.295099256648019,-6.619,-7.702170618438195
1621785717679.925,0.169,-0.021,-0.234,-1.2072026821978696,-6.619,-7.97514519120239
1621785717682.18,0.1808920417966622,-0.034721586688456395,-0.22759659287872036,-1.167,-6.619,-8.1
1621785717684.855,0.195,-0.051,-0.22,-1.0121343031901031,-6.6767806938206125,-8.083539220946454
1621785717689.785,0.199,-0.068,-0.183,-0.7267274385663698,-6.7832665522051725,-8.05320313338341
1621785717694.713,0.182,-0.099,-0.14,-0.441433645547499,-6.889710223353211,-8.022879064277284
1621785717698.106,0.15309458254927208,-0.11620560562543329,-0.09320075269882144,-0.245,-6.963,-8.002
1621785717699.643,0.14,-0.124,-0.072,-0.1067642783765965,-7.08318398981923,-8.050266662578005
1621785717704.571,0.086,-0.129,-0.005,0.3364199720948774,-7.468494319314331,-8.205009766792905
1621785717709.498,0.061,-0.103,0.056,0.7795163980926388,-7.853728293034452,-8.359722206037933
1621785717714.029,0.07571112212038643,-0.06254441416893733,0.11392504334902157,1.187,-8.208,-8.502
1621785717714.426,0.077,-0.059,0.119,1.1816122599251397,-8.205804994784316,-8.528664324722342
1621785717719.353,0.136,-0.019,0.185,1.1147426520218446,-8.178561821194085,-8.859606967540039
1621785717724.279,0.201,0.005,0.223,1.0478862980916732,-8.15132404737068,-9.19048401546297
1621785717729.205,0.297,0.009,0.223,0.9810299441615021,-8.124086273547277,-9.5213610633859
1621785717729.944,0.3176989742827412,0.013199791883454734,0.22015014122194143,0.971,-8.12,-9.571
1621785717734.132,0.435,0.037,0.204,0.6301781095138004,-7.7146982923947895,-9.545208073152395
1621785717739.057,0.606,0.066,0.182,0.22939350097424016,-7.238089568726123,-9.514878427100754
1621785717743.982,0.775,0.073,0.168,-0.1714109759278296,-6.761457217815554,-9.484547277497354
1621785717745.857,0.829451881600476,0.07985408299866131,0.16838078238881451,-0.324,-6.58,-9.473
1621785717748.906,0.918,0.091,0.169,-0.15669554075619938,-6.2756706972747365,-8.94866437515345
1621785717753.831,1.014,0.129,0.182,0.113544899337098,-5.784099312546035,-8.101725263933218
1621785717758.755,1.045,0.176,0.218,0.3837183587036583,-5.292649766756691,-7.254996071691628
1621785717761.767,1.035822216712125,0.21332298537069178,0.24247408876766677,0.549,-4.992,-6.737
1621785717763.678,1.03,0.237,0.258,0.6480059869208805,-4.805763010039605,-6.447191213042277
1621785717768.601,0.96,0.319,0.293,0.9030789045469897,-4.32595351693224,-5.70054573086488
1621785717773.524,0.838,0.391,0.337,1.1581391728838537,-3.846167817997605,-4.953937275490468
1621785717777.671,0.7006696096423789,0.4541888299191509,0.37070070929021376,1.373,-3.442,-4.325
1621785717778.446,0.675,0.466,0.377,1.410292149667593,-3.435321536595477,-4.306329551212173
1621785717783.368,0.483,0.543,0.401,1.6470826181081204,-3.3929159232930557,-4.187779551979856
1621785717788.289,0.264,0.618,0.442,1.8838378498717967,-3.3505166203497567,-4.069247194116473
1621785717793.211,0.033,0.688,0.499,2.120628318312324,-3.3081110070473354,-3.9506971948841567
1621785717793.572,0.016267404356671462,0.6921831489108321,0.5036234803751303,2.138,-3.305,-3.942
1621785717798.131,-0.195,0.745,0.562,1.9579073681624128,-3.723973463558463,-4.467939310175374
1621785717803.051,-0.394,0.775,0.614,1.763560858748733,-4.1761076200129,-5.035505390214687
1621785717807.972,-0.541,0.787,0.642,1.569175773211708,-4.628331521238367,-5.603184127276636
1621785717809.47,-0.5681032805598293,0.7812139063973399,0.6462634373914339,1.51,-4.766,-5.776
1621785717812.891,-0.63,0.768,0.656,0.963138616599576,-5.13330138585871,-6.407258888240174
1621785717817.81,-0.66,0.717,0.63,0.1768570813999939,-5.6614101650124455,-7.314887809974495
1621785717822.729,-0.653,0.632,0.569,-0.6094244537995881,-6.18951894416618,-8.222516731708815
1621785717825.36,-0.6246507345642247,0.5929528985507246,0.5315575739527496,-1.03,-6.472,-8.708
1621785717827.648,-0.6,0.559,0.499,-1.1683571878504817,-6.683782958718063,-8.939651108482233
1621785717832.565,-0.508,0.482,0.422,-1.4657121940727311,-7.138943431301756,-9.437511883728433
1621785717837.483,-0.37,0.415,0.346,-1.763126257893039,-7.59419430318487,-9.935471538969718
1621785717841.251,-0.24970919380460682,0.38052174344718026,0.28930242255758537,-1.991,-7.943,-10.317
1621785717842.401,-0.213,0.37,0.272,-1.9682712044137762,-7.976369346386144,-10.319823003273449
1621785717847.317,-0.056,0.335,0.192,-1.8711019840477032,-8.119028615777097,-10.331891791790254
1621785717852.233,0.098,0.302,0.122,-1.7739327636816302,-8.261687885168053,-10.343960580307058
1621785717857.137,0.23566418355184743,0.2780584028605483,0.05616060786650774,-1.677,-8.404,-10.356
1621785717857.149,0.236,0.278,0.056,-1.6764531535824636,-8.403365025440795,-10.355379336848415
1621785717862.065,0.358,0.265,-0.002,-1.4517327563678846,-8.142429357600726,-10.100324781332144
1621785717866.98,0.456,0.257,-0.051,-1.2270569996771863,-7.881545524418551,-9.845320892195595
1621785717871.895,0.545,0.251,-0.091,-1.002381242986488,-7.620661691236377,-9.590317003059043
1621785717873.019,0.5605540540540541,0.2475689586645469,-0.10014944356120827,-0.951,-7.561,-9.532
1621785717876.809,0.613,0.236,-0.131,-0.8316433755689506,-7.331596567843523,-9.119980932464017
1621785717881.724,0.623,0.215,-0.159,-0.676858039119203,-7.034099151187108,-8.585661951039489
1621785717886.637,0.602,0.197,-0.182,-0.5221418993726166,-6.7367347305941685,-8.051581836634272
1621785717888.896,0.5794743143879173,0.19286262917329094,-0.18567766295707472,-0.451,-6.6,-7.806
1621785717891.551,0.553,0.188,-0.19,-0.3804091859964314,-6.532754722205131,-7.592722066695379
1621785717896.463,0.504,0.187,-0.195,-0.24981455731249616,-6.408349412416169,-7.198152987140835
1621785717901.376,0.457,0.176,-0.187,-0.11918747308189259,-6.283913185258107,-6.803485848766382
1621785717904.768,0.4210910536779324,0.17116610337972168,-0.1835472166998012,-0.029,-6.198,-6.531
1621785717906.288,0.405,0.169,-0.182,-0.03465207490267883,-6.168877444569248,-6.493447231155082
1621785717911.2,0.344,0.171,-0.176,-0.0529164653567417,-6.074769398839839,-6.3720973827145295
1621785717916.112,0.29,0.164,-0.171,-0.07118176362881014,-5.980656675539691,-6.250741502669601
1621785717920.635,0.24025587986673957,0.16215762518024962,-0.16270931331112326,-0.088,-5.894,-6.139
1621785717921.022,0.236,0.162,-0.162,-0.09470793641022483,-5.894,-6.1320725311254405
1621785717925.933,0.168,0.147,-0.162,-0.1798415949768387,-5.894,-6.044152680096647
1621785717930.843,0.103,0.14,-0.168,-0.26495409286077043,-5.894,-5.956254682281968
1621785717935.753,0.047,0.126,-0.18,-0.35006659074470214,-5.894,-5.86835668446729
1621785717936.499,0.038793117167296595,0.12463218619454944,-0.18121583449373382,-0.363,-5.894,-5.855
1621785717940.662,-0.007,0.117,-0.188,-0.3010566749272708,-5.968541967460403,-5.865236396939985
1621785717945.571,-0.056,0.096,-0.188,-0.228015715671033,-6.056438715039944,-5.8773067249526685
1621785717950.48,-0.098,0.079,-0.194,-0.15497475641479522,-6.144335462619484,-5.889377052965352
1621785717952.36,-0.10910923742724966,0.0728707655573795,-0.1978307715266378,-0.127,-6.178,-5.894
1621785717955.388,-0.127,0.063,-0.204,-0.1027482523942968,-6.165014812305608,-5.966946201459674
1621785717960.296,-0.131,0.044,-0.208,-0.0634374249376405,-6.143966495242202,-6.085188217904105
1621785717965.203,-0.131,0.033,-0.232,-0.02413441936377915,-6.12292236627352,-6.203406707110522
1621785717968.216,-0.1193334328358209,0.02563164179104478,-0.24366656716417912,0.0,-6.11,-6.276
1621785717970.11,-0.112,0.021,-0.251,0.03632044845535467,-6.070095296762867,-6.27372997197154
1621785717975.017,-0.091,0.014,-0.272,0.13041747004650875,-5.966712384883112,-6.267848908122093
1621785717979.923,-0.08,0.012,-0.29,0.22449576493054485,-5.8633500477407825,-6.26196901469184
1621785717984.069,-0.07323931326200547,0.003549141577506843,-0.3001410301069918,0.304,-5.776,-6.257
1621785717984.829,-0.072,0.002,-0.302,0.3223193813257745,-5.779788563153759,-6.230623927410534
1621785717989.735,-0.077,0.0,-0.302,0.44057443039144706,-5.8042444502642,-6.060361422211267
1621785717994.639,-0.089,-0.012,-0.302,0.5587765162602253,-5.828689384252769,-5.890175172923759
1621785717999.544,-0.099,-0.019,-0.304,0.6770080261272782,-5.853140403309045,-5.71994655924083
1621785717999.917,-0.10021710559068055,-0.019532483695922736,-0.3035435854034948,0.686,-5.855,-5.707
1621785718004.448,-0.115,-0.026,-0.298,0.7226072149538472,-5.941942135515387,-5.606044165010093
1621785718009.352,-0.133,-0.044,-0.293,0.7622283759419352,-6.036042392862096,-5.4967764319726315
1621785718014.256,-0.15,-0.051,-0.291,0.8018495369300233,-6.130142650208805,-5.387508698935171
1621785718015.76,-0.1549088554636916,-0.0583632831955374,-0.291,0.814,-6.159,-5.354
1621785718019.158,-0.166,-0.075,-0.291,0.8077798085962181,-6.238790041455408,-5.417274360831574
1621785718024.062,-0.176,-0.093,-0.293,0.7988025859544761,-6.353946138790858,-5.508594384256192
1621785718028.964,-0.19,-0.119,-0.29,0.7898289386490777,-6.469056373191141,-5.599878037880072
1621785718031.602,-0.1889234831124838,-0.1394538208628076,-0.2878469662249676,0.785,-6.531,-5.649
1621785718033.865,-0.188,-0.157,-0.286,0.7891440706709423,-6.563295171435619,-5.70916047422299
1621785718038.768,-0.19,-0.182,-0.29,0.7981229649728663,-6.633268623581648,-5.839509250123335
1621785718043.669,-0.171,-0.222,-0.278,0.8070978354711396,-6.70321071780957,-5.96979961149482
1621785718047.438,-0.15484744158238253,-0.2458442529021972,-0.278,0.814,-6.757,-6.07
1621785718048.569,-0.15,-0.253,-0.278,0.8182154555548701,-6.749998056874961,-6.080502914687558
1621785718053.469,-0.126,-0.278,-0.265,0.83647666707791,-6.719665875023132,-6.1260011874653015
1621785718058.37,-0.087,-0.3,-0.262,0.8547424279810005,-6.689326136573931,-6.171510795139103
1621785718063.269,-0.056,-0.302,-0.253,0.873,-6.659,-6.217
1621785718068.168,-0.031,-0.314,-0.237,0.9336644352238898,-6.671070984559855,-6.129098471410281
1621785718073.068,-0.012,-0.312,-0.227,0.9943439866730421,-6.683144976940044,-6.041175039718653
1621785718077.966,0.0,-0.311,-0.202,1.054996328916722,-6.695213555243634,-5.953291033610464
1621785718079.097,0.003232379623168179,-0.31261618981158407,-0.1985367361180341,1.069,-6.698,-5.933
1621785718082.864,0.014,-0.318,-0.187,1.1225598580684975,-6.749417463745758,-5.860634680654119
1621785718087.762,0.024,-0.316,-0.168,1.192198087010182,-6.816270163529775,-5.766545695772909
1621785718092.659,0.038,-0.319,-0.143,1.2618224313483493,-6.883109534094415,-5.672475470533786
1621785718094.922,0.045396030717063926,-0.31668874040091755,-0.1319059539244041,1.294,-6.914,-5.629
1621785718097.555,0.054,-0.314,-0.119,1.313636924786272,-6.957933458843862,-5.645308632449615
1621785718102.451,0.072,-0.3,-0.103,1.3501538841393783,-7.0396324187525074,-5.675636276658127
1621785718107.348,0.096,-0.284,-0.082,1.3866781272182958,-7.121347674454492,-5.705969970062653
1621785718110.743,0.11749626009773612,-0.2701314450982348,-0.06535773411788172,1.412,-7.178,-5.727
1621785718112.244,0.127,-0.264,-0.058,1.412,-7.168700807210878,-5.77909445756355
1621785718117.139,0.164,-0.236,-0.03,1.412,-7.138374064299054,-5.948986109181831
1621785718122.034,0.195,-0.206,0.007,1.412,-7.10804732138723,-6.118877760800111
1621785718126.561,0.22460071834780007,-0.19952484286141875,0.04215085303801257,1.412,-7.08,-6.276
1621785718126.928,0.227,-0.199,0.045,1.417245344204577,-7.063614101732605,-6.291248633373483
1621785718131.822,0.25,-0.175,0.086,1.4872042064300934,-6.845070045399796,-6.494624617807839
1621785718136.716,0.271,-0.152,0.12,1.55716306865561,-6.626525989066987,-6.698000602242194
1621785718141.61,0.278,-0.126,0.155,1.6271219308811267,-6.407981932734179,-6.901376586676549
1621785718142.371,0.27691106453061837,-0.12024419823326846,0.15997799071717322,1.638,-6.374,-6.933
1621785718146.502,0.271,-0.089,0.187,1.630159527965277,-6.294549883381474,-7.02290407933149
1621785718151.395,0.25,-0.061,0.215,1.620872368360081,-6.200439999382153,-7.129396842804406
1621785718156.288,0.225,-0.023,0.232,1.611585208754885,-6.106330115382834,-7.23588960627732
1621785718158.177,0.21418604302900215,-0.011413617531073728,0.23470348924274947,1.608,-6.07,-7.277
1621785718161.179,0.197,0.007,0.239,1.403221801665405,-6.157572123777596,-7.265792287846251
1621785718166.07,0.182,0.045,0.243,1.0695745647236943,-6.300254290966954,-7.247531446492299
1621785718170.961,0.171,0.066,0.248,0.7359439818319454,-6.4429293361553555,-7.2292715166308765
1621785718173.98,0.16976525212181728,0.08575596605092362,0.24367838242636045,0.53,-6.531,-7.218
1621785718175.851,0.169,0.098,0.241,0.35458258248976127,-6.619360157638513,-7.240030816783865
1621785718180.742,0.175,0.099,0.225,-0.10394261649022474,-6.850325585348891,-7.29761737114597
1621785718185.631,0.183,0.077,0.194,-0.5623075960126727,-7.081210308322387,-7.3551838034155015
1621785718189.777,0.20250102351590193,0.04732452943232314,0.15075860002995656,-0.951,-7.277,-7.404
1621785718190.521,0.206,0.042,0.143,-0.9810498670623878,-7.338418537067953,-7.411394716502813
1621785718195.41,0.243,0.007,0.089,-1.1785387374018426,-7.742063500896556,-7.459993074877882
1621785718200.299,0.298,-0.042,0.04,-1.3760374698571693,-8.145728621777035,-7.508593860137266
1621785718205.187,0.363,-0.096,-0.012,-1.5734868917331355,-8.549292957398132,-7.557182510975082
1621785718205.571,0.3694425353378952,-0.10079261775136107,-0.01679261775136107,-1.589,-8.581,-7.561
1621785718210.075,0.445,-0.157,-0.073,-1.8377114409400124,-8.460637353123067,-7.740117872603587
1621785718214.962,0.536,-0.244,-0.131,-2.1075757575757574,-8.330037878787879,-7.934469696969697
1621785718219.849,0.637,-0.339,-0.204,-2.3774535559678416,-8.199431880024738,-8.128831230674088
1621785718221.362,0.6769446859541298,-0.36748768300604606,-0.2269140058961675,-2.461,-8.159,-8.189
1621785718224.735,0.766,-0.431,-0.278,-2.314428142832841,-7.6351017583471235,-8.22660444148895
1621785718229.622,0.895,-0.511,-0.349,-2.1020708132935373,-6.876063606699349,-8.281086788426148
1621785718234.508,1.0,-0.597,-0.417,-1.8897559191500548,-6.117177133755007,-8.335558248148091
1621785718237.149,1.0281115498025888,-0.6499794592433404,-0.46024853815782896,-1.775,-5.707,-8.365
1621785718239.393,1.052,-0.695,-0.497,-1.7610666955391945,-5.422646847738662,-7.999748375920312
1621785718244.279,1.045,-0.792,-0.567,-1.7307308358596796,-4.803547670605704,-7.204515482893028
1621785718249.163,0.99,-0.845,-0.632,-1.7004071026418364,-4.184695972282373,-6.409600476396709
1621785718252.933,0.9143531117220695,-0.8542628842789303,-0.664420094976256,-1.677,-3.707,-5.796
1621785718254.047,0.892,-0.857,-0.674,-1.5960246464708978,-3.703540721601634,-5.649933734566947
1621785718258.931,0.747,-0.852,-0.681,-1.2410321038462728,-3.6883753906612617,-5.009585373023486
1621785718263.815,0.559,-0.824,-0.667,-0.8860218151437325,-3.673209301605966,-4.369205000464152
1621785718268.698,0.321,-0.794,-0.634,-0.5310825107528545,-3.658046245010366,-3.728952671968314
1621785718268.713,0.32019179041047946,-0.793926803659817,-0.6339085045747712,-0.53,-3.658,-3.727
1621785718273.581,0.056,-0.77,-0.604,-0.49945078073012583,-3.93942311084975,-3.9053580680604774
1621785718278.463,-0.175,-0.747,-0.586,-0.4688157662606973,-4.221636577477213,-4.0842170414274435
1621785718283.345,-0.384,-0.698,-0.567,-0.43817921973413393,-4.503864157600706,-4.263084959532026
1621785718284.489,-0.4224309646446967,-0.6792531879781967,-0.5613759563934589,-0.431,-4.57,-4.305
1621785718288.227,-0.548,-0.618,-0.543,-0.20325225211280684,-5.106783193511439,-4.762865399498498
1621785718293.107,-0.656,-0.522,-0.511,0.0940648391790237,-5.807535755193016,-5.360593412376559
1621785718297.989,-0.698,-0.424,-0.459,0.3915158034857444,-6.508603844844132,-5.958590564343869
1621785718300.262,-0.6938079847908745,-0.38254562737642583,-0.4296558935361217,0.53,-6.835,-6.237
1621785718302.869,-0.689,-0.335,-0.396,0.669355884447472,-7.19818490881506,-6.475376257856767
1621785718307.749,-0.656,-0.269,-0.321,0.9302272811716259,-7.878059711428306,-6.921611790568783
1621785718312.628,-0.62,-0.222,-0.246,1.1910334241570424,-8.55776445180667,-7.367735703006471
1621785718316.032,-0.5830307168942919,-0.21223452899094503,-0.18880224123267797,1.373,-9.032,-7.679
1621785718317.508,-0.567,-0.208,-0.164,1.3573617749554712,-9.154109254239913,-7.7267574537288
1621785718322.386,-0.497,-0.199,-0.072,1.3056826918609152,-9.557639340199799,-7.884579803299001
1621785718327.265,-0.414,-0.19,0.023,1.2539932626035777,-9.96125021296368,-8.042433748935181
1621785718331.795,-0.32763720534507784,-0.19835768980531507,0.09264741504429208,1.206,-10.336,-8.189
1621785718332.143,-0.321,-0.199,0.098,1.1834622309682816,-10.329724778034306,-8.210653934952044
1621785718337.021,-0.223,-0.213,0.159,0.8676805863303221,-10.241801261291972,-8.514051985682633
1621785718341.898,-0.141,-0.223,0.208,0.5519621612408385,-10.153895346855291,-8.817389296062725
1621785718346.775,-0.063,-0.237,0.246,0.23624373615135497,-10.065989432418613,-9.120726606442815
1621785718347.551,-0.04405843180452634,-0.23652248147406368,0.2507751852593631,0.186,-10.052,-9.169
1621785718351.651,0.056,-0.234,0.276,-0.13542078916372197,-9.768577134089641,-9.363153772239787
1621785718356.527,0.215,-0.25,0.283,-0.5177073027090693,-9.431484005951273,-9.594073399045316
1621785718361.404,0.384,-0.253,0.278,-0.9000512367491165,-9.094340245490049,-9.825027710619304
1621785718363.304,0.4389510216346154,-0.2565075120192308,0.2737130408653846,-1.049,-8.963,-9.915
1621785718366.279,0.525,-0.262,0.267,-1.1360806361607143,-8.740670479910714,-9.701926339285714
1621785718371.153,0.63,-0.258,0.262,-1.2787425285218255,-8.376433934771825,-9.352853422619047
1621785718376.027,0.717,-0.248,0.243,-1.4214044208829364,-8.012197389632936,-9.003780505952381
1621785718379.054,0.7542536057692307,-0.25234625400641025,0.22871945112179487,-1.51,-7.786,-8.787
1621785718380.902,0.777,-0.255,0.22,-1.4582391156040684,-7.584590300173653,-8.602843928305631
1621785718385.776,0.806,-0.26,0.195,-1.3217394412056562,-7.053448709997519,-8.117202229595634
1621785718390.649,0.848,-0.258,0.162,-1.1852602797072687,-6.522386938724882,-7.631633512155792
1621785718394.8,0.8616323912607737,-0.25118380436961313,0.14921963319302464,-1.069,-6.07,-7.218
1621785718395.521,0.864,-0.25,0.147,-1.023207824832912,-6.043532122753423,-7.1057175864903
1621785718400.395,0.799,-0.241,0.147,-0.7136260486609703,-5.864593856126041,-6.346623071316699
1621785718405.267,0.66,-0.223,0.171,-0.4041683285003178,-5.6857272938731835,-5.58783274148278
1621785718410.138,0.504,-0.188,0.22,-0.09478814334672092,-5.506905546854405,-4.82923252748616
1621785718410.544,0.49225,-0.18483333333333332,0.22291666666666668,-0.069,-5.492,-4.766
1621785718415.01,0.363,-0.15,0.255,-0.08545793972109762,-5.553007880000621,-4.445921448182792
1621785718419.881,0.229,-0.082,0.295,-0.10340845704003598,-5.619548590751857,-4.096814835497231
1621785718424.751,0.096,-0.023,0.333,-0.1213544759334233,-5.686072626304931,-3.747795709432733
1621785718426.283,0.058251854822538605,-0.012619260076198114,0.3402350611590134,-0.127,-5.707,-3.638
1621785718429.621,-0.024,0.01,0.356,-0.28928135908773567,-5.584387417578155,-3.779492374524862
1621785718434.491,-0.131,0.04,0.363,-0.5260272282988132,-5.405512760840897,-3.985910014738965
1621785718439.361,-0.206,0.059,0.365,-0.7627849662555272,-5.226629136606935,-4.192338003258087
1621785718442.019,-0.24149099754250464,0.06282210742765434,0.3611778925723456,-0.892,-5.129,-4.305
1621785718444.229,-0.271,0.066,0.358,-0.9512919628721324,-5.083477260733244,-4.321579269239127
1621785718449.098,-0.332,0.084,0.342,-1.0819216154968492,-4.983183404215689,-4.3581060441436685
1621785718453.967,-0.398,0.087,0.335,-1.2125578182721262,-4.8828845186725855,-4.394634650606898
1621785718457.748,-0.4547118635565588,0.09554562327564585,0.3311156257837974,-1.314,-4.805,-4.423
1621785718458.834,-0.471,0.098,0.33,-1.3234616256501825,-4.838219284217064,-4.387087260305877
1621785718463.701,-0.546,0.117,0.33,-1.3658666407887587,-4.987101125688999,-4.226133918174055
1621785718468.568,-0.623,0.138,0.335,-1.408273783091375,-5.1359904355251915,-4.065172502134928
1621785718473.436,-0.703,0.164,0.34,-1.4506873068861115,-5.2849021504541565,-3.904186864373884
1621785718473.472,-0.7036047865134715,0.16422863880387337,0.3400516281170037,-1.451,-5.286,-3.903
1621785718478.302,-0.785,0.195,0.347,-1.451,-5.4346264469145265,-3.944554741280184
1621785718483.221,-0.873,0.22,0.344,-1.451,-5.585987428133384,-3.98687403602913
1621785718488.206,-0.955,0.244,0.344,-1.451,-5.7393842851667305,-4.029762545036412
1621785718489.396,-0.9717130400705398,0.2466263348682277,0.3444775154305868,-1.451,-5.776,-4.04
1621785718493.19,-1.025,0.255,0.346,-1.4418114254525607,-6.007127990539434,-4.259583371236241
1621785718498.175,-1.082,0.258,0.351,-1.429737969617029,-6.310821841171655,-4.548108008126384
1621785718503.159,-1.121,0.264,0.353,-1.4176674702083143,-6.614441326298554,-4.836561993996179
1621785718505.499,-1.1238164944414515,0.26446941574024196,0.35346941574024193,-1.412,-6.757,-4.972
1621785718508.144,-1.127,0.265,0.354,-1.4615067566551925,-6.9341820764501625,-5.233864686518256
1621785718513.128,-1.103,0.267,0.347,-1.55479002510259,-7.26803798457769,-5.727284080147911
1621785718518.239,-1.044,0.286,0.34,-1.6504540412163482,-7.610414463300614,-6.233296375907527
1621785718521.741,-0.9788891058180398,0.2810991800078095,0.3301983600156189,-1.716,-7.845,-6.58
1621785718523.241,-0.951,0.279,0.326,-1.7624111435089362,-7.904220619117402,-6.731114683265097
1621785718528.243,-0.833,0.26,0.314,-1.9171753863818344,-8.10169979302322,-7.235027058059253
1621785718533.245,-0.688,0.257,0.293,-2.071947183151788,-8.299188605701682,-7.738964028342222
1621785718537.901,-0.5251119679812574,0.24862290121046465,0.26600712612260835,-2.216,-8.483,-8.208
1621785718538.247,-0.513,0.248,0.264,-2.2193629305135953,-8.484263776435046,-8.206543444108762
1621785718543.249,-0.325,0.229,0.23,-2.2679522960725076,-8.502523474320242,-8.185498368580062
1621785718548.251,-0.148,0.223,0.199,-2.3165416616314203,-8.520783172205439,-8.16445329305136
1621785718553.254,0.01,0.202,0.173,-2.365140513595166,-8.539046435045318,-8.14340410876133
1621785718554.063,0.031026892478891115,0.1997355654253502,0.16992683879154669,-2.373,-8.542,-8.14
1621785718558.256,0.14,0.188,0.154,-2.2738935045317223,-8.297606495468278,-7.8346378398791545
1621785718563.258,0.234,0.166,0.129,-2.1556696978851964,-8.006070302114804,-7.470372341389728
1621785718568.26,0.304,0.152,0.106,-2.037445891238671,-7.714534108761329,-7.106106842900302
1621785718570.225,0.3189259223111458,0.14571540113214912,0.0965731016982237,-1.991,-7.6,-6.963
1621785718573.263,0.342,0.136,0.082,-1.9005949881425315,-7.369570593477636,-6.7472308656707405
1621785718578.265,0.349,0.131,0.073,-1.7517387731673792,-6.9901574551002215,-6.391956572964972
1621785718583.267,0.36,0.129,0.079,-1.6028752926604535,-6.610725797924565,-6.036664939655303
1621785718586.388,0.3606238044114776,0.1314952176459106,0.08336663088034355,-1.51,-6.374,-5.815
1621785718588.27,0.361,0.133,0.086,-1.5477275693311583,-6.353506011721346,-5.643712177511933
1621785718593.272,0.354,0.145,0.082,-1.647995106035889,-6.299039695486678,-5.18848518216422
1621785718598.275,0.328,0.145,0.073,-1.7482822185970637,-6.244562745453447,-4.73316931001148
1621785718602.551,0.27328966762653134,0.16722607252672167,0.05248362535994924,-1.834,-6.198,-4.344
1621785718603.277,0.264,0.171,0.049,-1.8331014427071533,-6.186094115869779,-4.341394183850745
1621785718608.28,0.169,0.19,0.012,-1.8269100385225472,-6.104058010423748,-4.323439111715387
1621785718613.282,0.065,0.199,-0.028,-1.8207198428884357,-6.0220379182717725,-4.305487544376463
1621785718618.285,-0.033,0.206,-0.068,-1.8145284387038296,-5.940001812825742,-4.2875324722411055
1621785718618.712,-0.03863394992434965,0.2039512909366001,-0.0702194348186832,-1.814,-5.933,-4.286
1621785718623.287,-0.099,0.182,-0.094,-1.814,-6.046785041082648,-4.638393970517158
1621785718628.291,-0.143,0.166,-0.101,-1.814,-6.171232116964717,-5.0238084219429675
1621785718633.293,-0.178,0.141,-0.127,-1.814,-6.2956306186563555,-5.409072438376027
1621785718634.876,-0.1817969939488581,0.12676127269178214,-0.1355432363849307,-1.814,-6.335,-5.531
1621785718638.296,-0.19,0.096,-0.154,-1.955112426750438,-6.355733160152238,-5.790376064761674
1621785718643.3,-0.178,0.047,-0.199,-2.16159311001027,-6.3860706518455865,-6.169904277170301
1621785718648.302,-0.141,0.002,-0.246,-2.367983129946233,-6.416394822690751,-6.549265843049598
1621785718651.041,-0.11253093890298652,-0.023184169431973455,-0.2739215791528401,-2.481,-6.433,-6.757
1621785718653.305,-0.089,-0.044,-0.297,-2.3175713573758605,-6.562118430590794,-6.697902410293584
1621785718658.308,-0.04,-0.077,-0.332,-1.956399873142443,-6.847465567234505,-6.567298840159478
1621785718663.312,0.003,-0.112,-0.354,-1.5951755164914825,-7.1328544762595145,-6.436676150779268
1621785718667.207,0.024024892620070286,-0.1197869972666927,-0.3571147989066771,-1.314,-7.355,-6.335
1621785718668.314,0.03,-0.122,-0.358,-1.2058943887412419,-7.414769600144963,-6.320896291374728
1621785718673.318,0.049,-0.129,-0.335,-0.7171778660304421,-7.684971958806475,-6.2571372010147375
1621785718678.321,0.038,-0.119,-0.288,-0.22858055991785453,-7.955108404807925,-6.193393663928485
1621785718683.324,-0.005,-0.133,-0.223,0.26001674619473314,-8.225244850809375,-6.129650126842232
1621785718683.375,-0.005520154206519618,-0.13326517665430412,-0.2223778547725942,0.265,-8.228,-6.129
1621785718688.327,-0.056,-0.159,-0.162,0.47511987315010573,-8.25801712473573,-6.732711763817577
1621785718693.331,-0.113,-0.157,-0.117,0.6874566596194502,-8.288350951374207,-7.34279311386288
1621785718698.334,-0.131,-0.124,-0.075,0.8997416490486257,-8.318677378435519,-7.95272564180006
1621785718699.542,-0.12182451688463791,-0.10999531524497365,-0.063651376146789,0.951,-8.326,-8.1
1621785718703.337,-0.093,-0.066,-0.028,1.073083131947801,-8.388215442242629,-8.629652972450458
1621785718708.341,-0.003,-0.012,0.031,1.2340673030449492,-8.47025545251329,-9.328076607056548
1621785718713.344,0.11,0.038,0.101,1.3950122039632673,-8.552275450096664,-10.026329869502174
1621785718715.706,0.17844628220140515,0.06113012295081967,0.12507420960187354,1.471,-8.591,-10.356
1621785718718.348,0.255,0.087,0.152,1.1151922879410343,-8.331294692484292,-10.529082391855969
1621785718723.351,0.421,0.115,0.166,0.44135738883518605,-7.839460216288061,-10.856868867810537
1621785718728.355,0.588,0.131,0.162,-0.23257615393910092,-7.347553739729338,-11.18470332890285
1621785718731.87,0.7060394300214718,0.12748692172555143,0.15005553386687487,-0.706,-7.002,-11.415
1621785718733.358,0.756,0.126,0.145,-0.67258981136065,-6.868451284529761,-11.247120705018803
1621785718738.362,0.922,0.108,0.141,-0.5602155684100829,-6.419263883644712,-10.682463352010995
1621785718743.366,1.063,0.113,0.143,-0.4478468079322167,-5.970098397547235,-10.117833547295765
1621785718748.035,1.1479043274625553,0.1316602917500122,0.16445933551251404,-0.343,-5.551,-9.591
1621785718748.37,1.154,0.133,0.166,-0.3161703110842646,-5.523133615221988,-9.522681742675928
1621785718753.373,1.194,0.143,0.187,0.08426230745998187,-5.107228329809725,-8.503032996073694
1621785718758.377,1.197,0.175,0.208,0.4847730897009967,-4.691241860465116,-7.483185215946843
1621785718763.381,1.154,0.22,0.23,0.8853034128662036,-4.275235095137421,-6.46328767743884
1621785718764.202,1.1402213114754098,0.23049804839968774,0.2355770882123341,0.951,-4.207,-6.296
1621785718768.385,1.07,0.284,0.264,1.2987513742071881,-4.1335168227121715,-5.7606595288432505
1621785718773.389,0.953,0.342,0.288,1.7147378435517968,-4.045614919963757,-5.120275596496527
1621785718778.393,0.801,0.387,0.316,2.1307446088794926,-3.9577087284808217,-4.479860419812746
1621785718780.369,0.7287410714285715,0.4008200136612022,0.33060972872755656,2.295,-3.923,-4.227
1621785718783.397,0.618,0.422,0.353,2.3096082899207246,-4.0698320422801055,-4.219508569271423
1621785718788.401,0.421,0.454,0.398,2.333748539071348,-4.312472495281238,-4.207128954322386
1621785718793.406,0.213,0.471,0.436,2.3578946772366933,-4.555172140430351,-4.194746319365799
1621785718796.537,0.09911680327868853,0.49290061475409835,0.462280737704918,2.373,-4.707,-4.187
1621785718798.41,0.031,0.506,0.478,2.1333391670693405,-4.825150821454457,-4.340364399613433
1621785718803.414,-0.126,0.52,0.492,1.4929626721430296,-5.140851171780623,-4.750155834742692
1621785718808.417,-0.265,0.513,0.48,0.8527423894660544,-5.45647451075139,-5.159847306112588
1621785718812.705,-0.3532268714947574,0.4984382833455255,0.44745028041940993,0.304,-5.727,-5.511
1621785718813.423,-0.368,0.496,0.442,0.23560465116279067,-5.802368121413471,-5.556744941105406
1621785718818.427,-0.447,0.476,0.396,-0.24104651162790708,-6.327612941709454,-5.8755440954394444
1621785718823.431,-0.515,0.466,0.347,-0.7176976744186048,-6.852857762005437,-6.194343249773483
1621785718828.435,-0.548,0.447,0.3,-1.194372093023256,-7.378128209000303,-6.5131579583207495
1621785718828.872,-0.5493970731707317,0.44656341463414634,0.29528487804878045,-1.236,-7.424,-6.541
1621785718833.44,-0.564,0.442,0.246,-1.4269990939293264,-7.592960736937481,-7.039688462700091
1621785718838.444,-0.532,0.443,0.178,-1.6362405919661733,-7.778058985200846,-7.5860068710359405
1621785718843.448,-0.48,0.433,0.106,-1.8454718816067652,-7.9631482029598315,-8.132298625792812
1621785718845.039,-0.4606079512195122,0.4263240487804878,0.08215731707317073,-1.912,-8.022,-8.306
1621785718848.453,-0.419,0.412,0.031,-1.8478190602729798,-8.077947200748882,-8.589747312477352
1621785718853.458,-0.346,0.389,-0.038,-1.753720980794782,-8.159973487136128,-9.005759874380963
1621785718858.462,-0.276,0.363,-0.099,-1.6596458509481822,-8.241979768087933,-9.421670974755406
1621785718861.209,-0.2244079800985318,0.34763216428466903,-0.12699141505292424,-1.608,-8.287,-9.65
1621785718863.467,-0.182,0.335,-0.15,-1.4999143918347628,-8.225276694045176,-9.700691312356565
1621785718868.472,-0.065,0.321,-0.183,-1.2603474151467569,-8.088469712525667,-9.813046367314893
1621785718873.477,0.063,0.297,-0.215,-1.0207687522647664,-7.9516560574948665,-9.925406903007609
1621785718877.379,0.1744841951219512,0.2767301463414634,-0.23137180487804876,-0.834,-7.845,-10.013
1621785718878.482,0.206,0.271,-0.236,-0.796482448326363,-7.780128742469765,-9.933394576721573
1621785718883.487,0.328,0.236,-0.251,-0.6262417827970951,-7.485767155345522,-9.572174837316746
1621785718888.491,0.41,0.215,-0.26,-0.4560426373560007,-7.191477360228285,-9.211043195989914
1621785718893.496,0.442,0.182,-0.265,-0.28580197182673284,-6.8971157731040424,-8.849823456585087
1621785718893.549,0.4421587495122903,0.18170366757705814,-0.2649153335934452,-0.284,-6.894,-8.846
1621785718898.502,0.457,0.154,-0.257,-0.26623662439613527,-6.674714190821256,-8.323205480072463
1621785718903.506,0.454,0.131,-0.258,-0.24828937198067633,-6.45315845410628,-7.7949992753623185
1621785718908.511,0.435,0.119,-0.253,-0.2303394927536232,-6.231570289855073,-7.266715760869565
1621785718909.721,0.425573811265545,0.11682472567666423,-0.25082472567666425,-0.226,-6.178,-7.139
1621785718913.517,0.396,0.11,-0.244,-0.24430812891538983,-6.106645241150275,-6.855928160615896
1621785718918.522,0.351,0.11,-0.239,-0.2684457996829949,-6.012570216620122,-6.4827226356706165
1621785718923.527,0.312,0.113,-0.241,-0.2925846478979546,-5.918490603064382,-6.109498905577779
1621785718925.894,0.2940287804878049,0.10401439024390244,-0.24431048780487805,-0.304,-5.874,-5.933
1621785718928.532,0.274,0.094,-0.248,-0.3199825215461941,-5.792456522723499,-5.79551769731182
1621785718933.538,0.237,0.077,-0.257,-0.3503130726155797,-5.637708813185817,-5.5346130590312885
1621785718938.543,0.185,0.059,-0.272,-0.3806362277934584,-5.482998837788477,-5.273772040511373
1621785718942.069,0.13427584020291694,0.048432466708941024,-0.2804540266328472,-0.402,-5.374,-5.09
1621785718943.548,0.113,0.044,-0.284,-0.3284932313125368,-5.367691583284285,-5.0057049244653715
1621785718948.554,0.031,0.028,-0.291,-0.07970109113958435,-5.34634001901571,-4.720398514963553
1621785718953.559,-0.061,0.023,-0.288,0.16905464753022148,-5.324991578756735,-4.43513384947405
1621785718958.246,-0.15090282926829268,0.019254048780487806,-0.2814445853658537,0.402,-5.305,-4.168
1621785718958.564,-0.157,0.019,-0.281,0.4108619549961516,-5.30423366686286,-4.163185855933355
1621785718963.569,-0.255,0.012,-0.265,0.5504003108917764,-5.292167157151265,-4.087383423129745
1621785718968.576,-0.353,0.0,-0.248,0.6899863117067355,-5.28009652736904,-4.011555107831152
1621785718973.581,-0.454,0.0,-0.232,0.8295246676023603,-5.268030017657446,-3.9357526750275427
1621785718974.423,-0.47099263414634146,0.0008412195121951221,-0.22998107317073171,0.853,-5.266,-3.923
1621785718978.586,-0.555,0.005,-0.22,0.8882564559216385,-5.359416740872662,-3.9531095280498665
1621785718983.593,-0.642,0.023,-0.204,0.9306630393769715,-5.471778710174019,-3.989325369394932
1621785718988.598,-0.724,0.044,-0.187,0.9730510134778212,-5.58409137147773,-4.025525318079599
1621785718990.599,-0.7491846378931968,0.04320048768593026,-0.1794046330163375,0.99,-5.629,-4.04
1621785718993.604,-0.787,0.042,-0.168,0.9717928994082841,-5.749204021253472,-4.209437507547397
1621785718998.609,-0.834,0.052,-0.148,0.9414674556213017,-5.949413838908344,-4.491649800748702
1621785719003.616,-0.869,0.061,-0.131,0.9111286982248521,-6.149711553556333,-4.773985992029948
1621785719006.773,-0.8702614994390517,0.05658475196331886,-0.12784625140237063,0.892,-6.276,-4.952
1621785719008.621,-0.871,0.054,-0.126,0.8337279217544866,-6.344326868217288,-5.094366685282176
1621785719013.627,-0.857,0.042,-0.127,0.6758929557906812,-6.529396102817985,-5.4799791707545324
1621785719018.634,-0.812,0.016,-0.143,0.5180195010037281,-6.7145104674505305,-5.865685689704618
1621785719022.948,-0.749939512195122,-0.01244439024390244,-0.16282487804878049,0.382,-6.874,-6.198
1621785719023.639,-0.74,-0.017,-0.166,0.3811884141095498,-6.891214163886918,-6.234008784507871
1621785719028.645,-0.661,-0.07,-0.187,0.3753080011471179,-7.01594081777429,-6.494913422788402
1621785719033.652,-0.571,-0.127,-0.211,0.3694264410668196,-7.140691802635352,-6.755868956877425
1621785719038.657,-0.485,-0.176,-0.225,0.36354746200172067,-7.265388042805609,-7.016709975397341
1621785719039.123,-0.476901945487347,-0.18056097323126433,-0.225837729777171,0.363,-7.277,-7.041
1621785719043.664,-0.398,-0.225,-0.234,0.46490934750124524,-7.3676796673358185,-6.983167147148054
1621785719048.67,-0.321,-0.244,-0.223,0.5772507056284244,-7.467641812446229,-6.919414200111693
