time,gyro_x,gyro_y,gyro_z,acc_x,acc_y,acc_z
1621786134515.227,,,,2.501,-5.894,-7.767
1621786134533.94,,,,1.677,-5.551,-8.12
1621786134552.155,0.529,1.768,1.916,0.5400006034150726,-5.109418936962383,-7.969613390679163
1621786134552.956,0.5311561588696759,1.7628791226845197,1.9162695198587094,0.49,-5.09,-7.963
1621786134558.099,0.545,1.73,1.918,0.3411904617484267,-5.014131094093563,-7.769733944954129
1621786134564.073,0.548,1.691,1.92,0.16834224227260092,-4.926006331033436,-7.5452477064220185
1621786134570.077,0.531,1.646,1.909,-0.005374845199282219,-4.837438585184623,-7.3196330275229355
1621786134572.276,0.5226139335303405,1.627404809132494,1.9097292231712748,-0.069,-4.805,-7.237
1621786134576.108,0.508,1.595,1.911,-0.13011343591784946,-4.782155680503551,-7.076308761148914
1621786134582.169,0.466,1.566,1.906,-0.22677514336538582,-4.746023348965654,-6.8221471469977235
1621786134588.26,0.415,1.524,1.911,-0.3239157596188533,-4.709712000398064,-6.56672629339835
1621786134591.902,0.37989462348436503,1.5019847638800257,1.9098099872367582,-0.382,-4.688,-6.414
1621786134594.381,0.356,1.487,1.909,-0.41244071843578384,-4.693253044331839,-6.4113061311118775
1621786134600.011,0.293,1.466,1.906,-0.4815723874459449,-4.705182845621203,-6.405188284296819
1621786134605.647,0.227,1.44,1.897,-0.5507790040591091,-4.717125580346484,-6.399063804950521
1621786134610.307,0.1848853941334256,1.409446266332093,1.8870906809725707,-0.608,-4.727,-6.394
1621786134611.29,0.176,1.403,1.885,-0.6006265135922589,-4.753910534334822,-6.426723209751143
1621786134616.938,0.134,1.382,1.88,-0.5582678757584667,-4.90850410307129,-6.614708989334687
1621786134622.593,0.106,1.363,1.866,-0.5158561385688701,-5.063291465077117,-6.802930421533773
1621786134628.253,0.098,1.328,1.855,-0.47340778113389104,-5.218212477613537,-6.99131437277806
1621786134628.574,0.09845313576843556,1.327093728463129,1.8542070124052377,-0.471,-5.227,-7.002
1621786134633.921,0.106,1.312,1.841,-0.39952534899829495,-5.338442108908781,-7.276521006500426
1621786134639.593,0.138,1.288,1.822,-0.32370367114237,-5.456662031116795,-7.567738144714407
1621786134645.272,0.195,1.26,1.806,-0.24779061434356353,-5.5750244298806475,-7.859306252664108
1621786134646.902,0.21622231767030325,1.2511095696246026,1.8005510265441114,-0.226,-5.609,-7.943
1621786134650.956,0.269,1.229,1.787,-0.2041794470180655,-5.57880388122702,-8.01882091137157
1621786134656.648,0.34,1.194,1.777,-0.1735426284561371,-5.536407475742331,-8.125276119303928
1621786134662.344,0.4,1.154,1.758,-0.14288347027357076,-5.493980155833124,-8.231808951776683
1621786134665.295,0.4196587057010786,1.1374453004622496,1.7497226502311247,-0.127,-5.472,-8.287
1621786134668.048,0.438,1.122,1.742,-0.115365,-5.4384375,-8.215250833333334
1621786134673.757,0.469,1.091,1.724,-0.09123865079365079,-5.368842261904762,-8.06647167989418
1621786134679.472,0.494,1.063,1.714,-0.06708753968253969,-5.299175595238095,-7.917539828042329
1621786134683.752,0.5059696167961082,1.0383126653580268,1.714,-0.049,-5.247,-7.806
1621786134685.193,0.51,1.03,1.714,-0.03071313506815366,-5.220231142397638,-7.780787471328008
1621786134690.921,0.524,1.007,1.716,0.04196654275092937,-5.11384046507949,-7.680582298505102
1621786134696.653,0.532,0.986,1.726,0.11470198265179678,-5.007368161565029,-7.5803002451949695
1621786134702.272,0.5290627898072915,0.986,1.730895350321181,0.186,-4.903,-7.482
1621786134702.392,0.529,0.986,1.731,0.18822343667892802,-4.9012290068313185,-7.4802936416184975
1621786134708.137,0.513,0.983,1.731,0.2945642669469259,-4.816527299001576,-7.39868323699422
1621786134713.889,0.473,0.988,1.735,0.4010361534419338,-4.731721203363111,-7.31697225433526
1621786134719.646,0.426,0.991,1.745,0.5076029427220179,-4.646839516552811,-7.235188439306358
1621786134720.856,0.41508416281926386,0.9939388792409674,1.7468892795120505,0.53,-4.629,-7.218
1621786134725.41,0.374,1.005,1.754,0.6616274384017177,-4.6575721897829325,-7.272946518813333
1621786134731.18,0.326,1.026,1.765,0.8284039826137048,-4.693774148359561,-7.342565669922233
1621786134736.955,0.284,1.052,1.772,0.9953287161896782,-4.730008274200729,-7.412246681155246
1621786134739.504,0.26812770809578107,1.0621406309388066,1.7702364120106424,1.069,-4.746,-7.443
1621786134742.736,0.248,1.075,1.768,1.1282530631418244,-4.791778605634355,-7.5463041742239385
1621786134748.525,0.222,1.094,1.778,1.2343750799222306,-4.873767918890353,-7.731321567911062
1621786134754.318,0.206,1.115,1.785,1.3405776583112594,-4.955819473622402,-7.916479415947911
1621786134758.214,0.19860954866958572,1.1210467329067026,1.793734169754126,1.412,-5.011,-8.041
1621786134760.117,0.195,1.124,1.798,1.4020639756481468,-5.02894567663549,-8.09179538979876
1621786134765.924,0.202,1.141,1.799,1.371740871307221,-5.083712916108387,-8.246814525255942
1621786134771.735,0.229,1.162,1.799,1.3413973696876667,-5.138516995564112,-8.401937936596724
1621786134776.982,0.2669157355288583,1.1764440897252793,1.8008055112156598,1.314,-5.188,-8.542
1621786134777.547,0.271,1.178,1.801,1.3089837811887741,-5.182683408804868,-8.543171452297232
1621786134783.366,0.311,1.201,1.812,1.257339479181534,-5.127946633623542,-8.555232097676168
1621786134789.189,0.349,1.203,1.813,1.2056583410102373,-5.073170816519832,-8.567301345512579
1621786134795.019,0.375,1.216,1.82,1.1539143646767267,-5.018328398489705,-8.579385268129387
1621786134795.798,0.3774032635983264,1.2184032635983264,1.8218692050209206,1.147,-5.011,-8.581
1621786134800.854,0.393,1.234,1.834,1.126107791401521,-4.950734013658233,-8.517787676548192
1621786134806.696,0.412,1.246,1.847,1.1019670960732577,-4.881097392519012,-8.444746598375499
1621786134812.543,0.417,1.257,1.861,1.0778062238087847,-4.811402568679187,-8.371644472036836
1621786134814.674,0.41627179444398094,1.262097438892133,1.8697384666722283,1.069,-4.786,-8.345
1621786134818.396,0.415,1.271,1.885,1.0342138068841047,-4.766739847879334,-8.293115508572903
1621786134824.256,0.401,1.285,1.911,0.979443521980147,-4.736415057367538,-8.211424236173778
1621786134830.12,0.382,1.292,1.932,0.92463672811654,-4.706070052855485,-8.129678509733145
1621786134833.612,0.3730766127355155,1.2884306450942062,1.9444927421702782,0.892,-4.688,-8.081
1621786134835.99,0.367,1.286,1.953,0.8638374113292896,-4.682993317569651,-8.096896216716356
1621786134841.866,0.351,1.292,1.967,0.7942463246633084,-4.6706215688290325,-8.13617651896782
1621786134847.75,0.34,1.279,1.979,0.7245598206024468,-4.6582328569959905,-8.17551067903773
1621786134852.61,0.33422100111972797,1.2748721436569486,1.9946858541035957,0.667,-4.648,-8.208
1621786134853.637,0.333,1.274,1.998,0.6532603604873113,-4.648,-8.230737756370019
1621786134859.532,0.333,1.274,2.016,0.5743832003177003,-4.648,-8.361271723395806
1621786134865.432,0.337,1.281,2.03,0.49544070662686873,-4.648,-8.491913810993967
1621786134871.337,0.34,1.276,2.032,0.41642961273875556,-4.648,-8.622669425193118
1621786134871.668,0.34100792864222,1.2761679881070367,2.0312720515361744,0.412,-4.648,-8.63
1621786134877.249,0.358,1.279,2.019,0.31188534218590397,-4.716883554647599,-8.6644417773238
1621786134883.167,0.393,1.285,2.004,0.20572701736465782,-4.789925434116445,-8.700962717058223
1621786134889.09,0.422,1.285,2.0,0.0994767236976507,-4.863030592441267,-8.737515296220632
1621786134890.789,0.4311712861908488,1.2812741649849677,1.9974205757588237,0.069,-4.884,-8.748
1621786134895.018,0.454,1.272,1.991,-0.03044654200134933,-4.894804613210789,-8.70676606795066
1621786134900.954,0.482,1.272,1.974,-0.1700345354328704,-4.909970492763216,-8.648888119454663
1621786134906.895,0.51,1.255,1.957,-0.309737349949718,-4.925148847333783,-8.59096256221597
1621786134909.968,0.5224035311024431,1.2441469102853624,1.9466637240812976,-0.382,-4.933,-8.561
1621786134912.841,0.534,1.234,1.937,-0.45232223194914933,-4.916875157005291,-8.489334031134625
1621786134918.794,0.559,1.211,1.916,-0.5980281277356982,-4.883464887907738,-8.340843946256612
1621786134924.752,0.564,1.19,1.888,-0.7438595135690633,-4.8500258440223805,-8.192225973432802
1621786134929.211,0.5729716320766302,1.1720567358467395,1.8685614638339678,-0.853,-4.825,-8.081
1621786134930.716,0.576,1.166,1.862,-0.915694122260027,-4.798955426822327,-8.031250186564804
1621786134936.686,0.579,1.141,1.838,-1.1643655531804555,-4.69565162343001,-7.833921364516006
1621786134942.663,0.572,1.103,1.805,-1.4133318956248972,-4.5922253070413985,-7.636358520635964
1621786134948.513,0.5553726426647074,1.057030247367132,1.7639206465833945,-1.657,-4.491,-7.443
1621786134948.644,0.555,1.056,1.763,-1.6596381944355367,-4.488506458523069,-7.440230929078105
1621786134954.631,0.532,1.011,1.728,-1.7801157403250427,-4.374634731076592,-7.313776690311574
1621786134960.625,0.51,0.974,1.695,-1.9007308457009455,-4.260632986569863,-7.187178067958799
1621786134966.35,0.473,0.929,1.656,-2.015936915558178,-4.151743698610808,-7.066256814479406
1621786134967.546,0.4642270885752057,0.9183471789841785,1.6505691500703654,-2.04,-4.129,-7.041
1621786134972.075,0.431,0.878,1.63,-2.1673232669869593,-4.097658888126286,-7.000109643102265
1621786134977.801,0.38,0.822,1.6,-2.3282978723404257,-4.0580343698854335,-6.948412029459901
1621786134983.525,0.318,0.768,1.546,-2.4892107069320524,-4.018425056755188,-6.896734253735283
1621786134986.043,0.29116582785976286,0.7482042992408087,1.5292836304700161,-2.56,-4.001,-6.874
1621786134989.249,0.257,0.723,1.508,-2.54283783926497,-4.074155877072553,-6.969345337416834
1621786134994.974,0.204,0.682,1.478,-2.512191123666702,-4.204791371844968,-7.139604868518323
1621786135000.698,0.162,0.642,1.445,-2.4815509425493714,-4.335399012567325,-7.3098280969479354
1621786135004.537,0.13316032585515652,0.6245620574938155,1.4134775654695897,-2.461,-4.423,-7.424
1621786135006.422,0.119,0.616,1.398,-2.47109121153313,-4.437983920155253,-7.507889566583495
1621786135012.147,0.084,0.602,1.361,-2.501738643114579,-4.483490712503466,-7.762665689730286
1621786135017.871,0.054,0.579,1.306,-2.5323821537486633,-4.5289916828389245,-8.017409217526767
1621786135023.03,0.03236508681370248,0.549251994368841,1.2474054434537776,-2.56,-4.57,-8.247
1621786135023.594,0.03,0.546,1.241,-2.570460216246188,-4.5840587746049355,-8.248799279179373
1621786135029.318,0.007,0.506,1.161,-2.676629147028925,-4.726752293820217,-8.267061573395646
1621786135035.042,-0.009,0.489,1.086,-2.7827935495795213,-4.869439726985887,-8.285323088703182
1621786135040.765,0.0,0.482,1.028,-2.8889398392015524,-5.0121028159531065,-8.303581488375777
1621786135041.523,0.003708095197475049,0.48027838437260084,1.0208486735477267,-2.903,-5.031,-8.306
1621786135046.489,0.028,0.469,0.974,-2.892526438086688,-5.159905377394611,-8.203412803823456
1621786135052.211,0.075,0.442,0.92,-2.880458748663243,-5.308430785683165,-8.085211333060482
1621786135057.934,0.117,0.421,0.864,-2.8683884847444645,-5.456987880068125,-7.966984645445784
1621786135060.015,0.1297236084452975,0.4068222648752399,0.8443692898272553,-2.864,-5.511,-7.924
1621786135063.658,0.152,0.382,0.81,-2.834839691027926,-5.5458741532976825,-7.796522162804516
1621786135069.38,0.18,0.36,0.75,-2.7890395193767743,-5.600648682907506,-7.596301142140358
1621786135075.102,0.188,0.351,0.705,-2.743237393543276,-5.655425549613785,-7.396071578530402
1621786135078.505,0.1892032632623991,0.3467885785816031,0.6839428929080157,-2.716,-5.688,-7.277
1621786135080.758,0.19,0.344,0.67,-2.7185110533690673,-5.706456242262641,-7.236320935421117
1621786135086.316,0.187,0.335,0.634,-2.7247050212904895,-5.7519819064850966,-7.135978655094073
1621786135091.869,0.182,0.33,0.607,-2.7308935475532943,-5.797467574516713,-7.035724529636633
1621786135096.451,0.182,0.31679065675449786,0.585534817226059,-2.736,-5.835,-6.953
1621786135097.419,0.182,0.314,0.581,-2.7338923372587507,-5.859913654454258,-6.936030612801222
1621786135102.968,0.178,0.3,0.571,-2.721810353287537,-6.002728900883219,-6.838755152109912
1621786135108.511,0.171,0.283,0.562,-2.7097416584887144,-6.145387062479555,-6.741586686293752
1621786135114.052,0.154,0.274,0.574,-2.6976772162250575,-6.2879949569294515,-6.644452458837641
1621786135114.363,0.15248360077587728,0.27343837065773235,0.5745054664080409,-2.697,-6.296,-6.639
1621786135119.59,0.127,0.264,0.583,-2.645244059000273,-6.4135473914231085,-6.561512291723573
1621786135125.124,0.093,0.255,0.604,-2.590449481016116,-6.5379960939633985,-6.4794752116907945
1621786135130.654,0.054,0.257,0.628,-2.535693580988801,-6.662356951652554,-6.397496039333515
1621786135132.239,0.04339356206120016,0.257,0.6331598887269837,-2.52,-6.698,-6.374
1621786135136.183,0.017,0.257,0.646,-2.465847186307105,-6.756573451545377,-6.458655214875015
1621786135141.707,-0.023,0.265,0.672,-2.3900030784386157,-6.838608915158232,-6.577219677379633
1621786135147.227,-0.047,0.281,0.688,-2.314212603811791,-6.920586367305614,-6.695700296898302
1621786135150.083,-0.05890188445545431,0.2882446253207113,0.6967970450322922,-2.275,-6.963,-6.757
1621786135152.746,-0.07,0.295,0.705,-2.2456943005181347,-6.9804937083641745,-6.843421909696521
1621786135158.26,-0.082,0.309,0.724,-2.185016887353675,-7.016714409079694,-7.022358362803958
1621786135163.771,-0.084,0.321,0.74,-2.124371713682595,-7.052915864791513,-7.201199742303369
1621786135167.894,-0.08624524706403722,0.33447148238422336,0.7542198980722358,-2.079,-7.08,-7.335
1621786135169.28,-0.087,0.339,0.759,-2.080559572539216,-7.06245480893382,-7.361824647674514
1621786135174.785,-0.082,0.361,0.775,-2.0867539078596744,-6.992768536578666,-7.4683672151863965
1621786135180.286,-0.077,0.358,0.796,-2.092943847696492,-6.923131713414467,-7.57483418037966
1621786135185.668,-0.059382791688865205,0.3609362013851891,0.8116597407210088,-2.099,-6.855,-7.679
1621786135185.785,-0.059,0.361,0.812,-2.099,-6.853166513557152,-7.678606633817717
1621786135191.218,-0.038,0.361,0.822,-2.099,-6.767984034853294,-7.660331120204889
1621786135196.647,-0.014,0.356,0.84,-2.099,-6.682866627693336,-7.642069567396025
1621786135202.073,0.009,0.354,0.853,-2.099,-6.597795153387896,-7.623817869272313
1621786135203.208,0.012560045045045045,0.35630355855855855,0.8544659009009009,-2.099,-6.58,-7.62
1621786135207.493,0.026,0.365,0.86,-2.1036545929120782,-6.464860070069651,-7.550181106318831
1621786135212.909,0.035,0.361,0.864,-2.1095378752983542,-6.319326242619656,-7.461931870524685
1621786135218.322,0.045,0.37,0.876,-2.1154179752383344,-6.173871138841199,-7.373730371424982
1621786135220.699,0.04587921614665643,0.3743960807332822,0.8738019596333589,-2.118,-6.11,-7.335
1621786135223.729,0.047,0.38,0.871,-2.152039377020276,-6.0264645900675875,-7.314680575962386
1621786135229.132,0.045,0.384,0.876,-2.2127375844842785,-5.877506233995215,-7.27844746232316
1621786135234.532,0.033,0.387,0.873,-2.2734001371339017,-5.728635377747925,-7.242235632425171
1621786135238.146,0.022279985516429804,0.3957100117679008,0.8783600072417851,-2.314,-5.629,-7.218
1621786135239.926,0.017,0.4,0.881,-2.3240236802603707,-5.616930670706901,-7.2059306707069
1621786135245.316,-0.005,0.405,0.89,-2.3543751806180997,-5.580384986602696,-7.169384986602696
1621786135250.703,-0.019,0.415,0.894,-2.3847101833536746,-5.54385916698231,-7.13285916698231
1621786135255.549,-0.025303016557042413,0.41860172374688137,0.8921991381265594,-2.412,-5.511,-7.1
1621786135256.085,-0.026,0.419,0.892,-2.4114134152859434,-5.518594728403049,-7.098178500098455
1621786135261.462,-0.026,0.433,0.895,-2.405527792624265,-5.594798053391094,-7.079902092885876
1621786135266.836,-0.021,0.431,0.892,-2.399645376803848,-5.67095985822386,-7.061635643759319
1621786135272.204,-0.01,0.428,0.895,-2.3937693746659536,-5.747038622746069,-7.043389110804805
1621786135272.907,-0.008296527240453325,0.4272137818032861,0.8946068909016431,-2.393,-5.757,-7.041
1621786135277.568,0.003,0.422,0.892,-2.3138515750585182,-5.90210544572605,-6.959159451761189
1621786135282.929,0.033,0.426,0.897,-2.222821765983248,-6.068993429030711,-6.865033390676556
1621786135288.285,0.073,0.431,0.894,-2.1318748695676697,-6.235729405792606,-6.770993062410108
1621786135290.221,0.08493950177935942,0.4335326215895611,0.8914673784104389,-2.099,-6.296,-6.737
1621786135293.636,0.106,0.438,0.887,-2.0272149461362288,-6.3270475301835045,-6.702195125399384
1621786135298.984,0.169,0.45,0.883,-1.914800619221308,-6.375667500777562,-6.647691209319422
1621786135304.327,0.222,0.482,0.876,-1.802488930358809,-6.424243079707072,-6.593237057143665
1621786135307.49,0.2539974388291791,0.5027390807226161,0.8688894580379602,-1.736,-6.453,-6.561
1621786135309.665,0.276,0.517,0.864,-1.7731239901352156,-6.399713184227684,-6.529937069478697
1621786135315.0,0.319,0.545,0.84,-1.864181733140573,-6.269011253791422,-6.453745896759929
1621786135320.33,0.354,0.569,0.806,-1.955156135725827,-6.138428948039799,-6.377624457862064
1621786135324.715,0.37705753977350875,0.6052332767869424,0.7714136903397368,-2.03,-6.031,-6.315
1621786135325.655,0.382,0.613,0.764,-2.0337750998308914,-6.014367676107376,-6.287644204123976
1621786135330.977,0.421,0.649,0.731,-2.055150009237022,-5.920194162202106,-6.132753556253464
1621786135336.294,0.438,0.686,0.698,-2.0765043271895296,-5.826111370063522,-5.978012121815004
1621786135341.606,0.442,0.721,0.675,-2.0978390342338247,-5.732114979607498,-5.8234127954070685
1621786135341.895,0.44140119540229883,0.7225242298850575,0.6732035862068966,-2.099,-5.727,-5.815
1621786135346.916,0.431,0.749,0.642,-2.3202469186816947,-5.580478861800203,-5.71448649919494
1621786135352.219,0.41,0.777,0.599,-2.5539192089026947,-5.425729000726693,-5.608328094498511
1621786135357.519,0.377,0.792,0.562,-2.787462404354455,-5.271064632877845,-5.502228338154202
1621786135359.029,0.3635989765812281,0.7931405126313849,0.5505948736861517,-2.854,-5.227,-5.472
1621786135362.815,0.33,0.796,0.522,-3.0288836178479754,-5.175883519658863,-5.555308987109172
1621786135368.232,0.278,0.794,0.478,-3.2791136889649466,-5.102744133200544,-5.674510625464645
1621786135373.646,0.22,0.789,0.442,-3.5292084274312323,-5.029644302927438,-5.793647795654431
1621786135376.434,0.1947573078311079,0.7735452905088416,0.4255149765427643,-3.658,-4.992,-5.855
1621786135379.058,0.171,0.759,0.41,-3.752332089500091,-5.000712199348735,-5.987485514234204
1621786135384.467,0.126,0.728,0.374,-3.946780121029167,-5.018670775509063,-6.260579724120582
1621786135389.873,0.075,0.691,0.328,-4.14112283202661,-5.036619624613922,-6.5335260156806845
1621786135393.903,0.041447671529879396,0.6522284204345273,0.3004125299245675,-4.286,-5.05,-6.737
1621786135395.278,0.03,0.639,0.291,-4.313038266662934,-5.078614841978557,-6.822844525935672
1621786135400.679,-0.007,0.564,0.246,-4.419242196903955,-5.191011421213224,-7.160034263639671
1621786135406.078,-0.038,0.483,0.202,-4.525407720516194,-5.303367354365535,-7.497102063096604
1621786135411.346,-0.0555724562276614,0.3883039858842691,0.15514011672623626,-4.629,-5.413,-7.826
1621786135411.474,-0.056,0.386,0.154,-4.627483595064498,-5.416393508132361,-7.833795499158721
1621786135416.869,-0.061,0.283,0.101,-4.563658833426809,-5.55922464946719,-8.161904346606843
1621786135422.26,-0.049,0.175,0.049,-4.499877397644419,-5.701958833426809,-8.489790465507571
1621786135427.649,-0.017,0.066,0.007,-4.43612195737521,-5.844634842961301,-8.817542947279865
1621786135428.758,-0.00855691038484203,0.04664267258963782,-0.0006193735551425581,-4.423,-5.874,-8.885
1621786135433.035,0.024,-0.028,-0.03,-4.280569235954109,-5.912621122547849,-8.911567396402342
1621786135438.419,0.072,-0.106,-0.075,-4.10126648224341,-5.961240349374411,-8.945012469633353
1621786135443.801,0.119,-0.199,-0.108,-3.9220287728364203,-6.0098419389718165,-8.97844541024813
1621786135446.144,0.13773392954421645,-0.2273187307063737,-0.12542691120392227,-3.844,-6.031,-8.993
1621786135449.179,0.162,-0.264,-0.148,-3.6795119032552908,-6.013869464951135,-8.876407480840891
1621786135454.554,0.201,-0.311,-0.187,-3.3881942346902902,-5.983530324122899,-8.669915573367081
1621786135459.929,0.232,-0.349,-0.215,-3.09687656612529,-5.953191183294663,-8.463423665893272
1621786135463.506,0.24465630114566286,-0.37564484451718494,-0.22632405891980362,-2.903,-5.933,-8.326
1621786135465.299,0.251,-0.389,-0.232,-2.7782765166450742,-5.933,-8.232715935334873
1621786135470.667,0.274,-0.405,-0.255,-2.4048703036106573,-5.933,-7.95343533487298
1621786135476.034,0.293,-0.405,-0.265,-2.0315320227567173,-5.933,-7.674205542725174
1621786135480.843,0.3055539217917786,-0.3906526608093959,-0.2712769608958893,-1.697,-5.933,-7.424
1621786135481.397,0.307,-0.389,-0.272,-1.6627856064773674,-5.93424823325293,-7.3982351854202815
1621786135486.757,0.316,-0.368,-0.272,-1.3317247824185745,-5.94632622402776,-7.1489330681449506
1621786135492.116,0.33,-0.344,-0.269,-1.0007393536738465,-5.95840146417841,-6.899687726573851
1621786135497.471,0.325,-0.304,-0.262,-0.6699951899341261,-5.970467902331683,-6.650624067256287
1621786135498.151,0.32423803009575924,-0.2981582307341541,-0.2588251253989968,-0.628,-5.972,-6.619
1621786135502.825,0.319,-0.258,-0.237,-0.41303650923676627,-5.98795326535224,-6.531662632054686
1621786135508.175,0.304,-0.209,-0.22,-0.16698219027173605,-6.006213900344613,-6.431693393028643
1621786135513.523,0.284,-0.157,-0.195,0.07897107508050394,-6.024467035760691,-6.331765211005028
1621786135515.437,0.27791220938199424,-0.1419595761202211,-0.1856892614077559,0.167,-6.031,-6.296
1621786135518.868,0.267,-0.115,-0.169,0.22347288883857824,-6.060230685419968,-6.292023035997284
1621786135524.211,0.248,-0.07,-0.136,0.311419175911252,-6.105752179080824,-6.285829635499208
1621786135529.551,0.227,-0.028,-0.106,0.3993172402082862,-6.1512487123613315,-6.279639630971247
1621786135532.691,0.21758664226898444,-0.013291628545288198,-0.0889382891125343,0.451,-6.178,-6.276
1621786135534.888,0.211,-0.003,-0.077,0.4273679053481674,-6.195406435308071,-6.308398839442028
1621786135540.247,0.199,0.024,-0.049,0.3697228214830293,-6.237865448692608,-6.387428389902298
1621786135545.602,0.197,0.063,-0.019,0.31212238097927375,-6.280291579601288,-6.466396735754222
1621786135549.983,0.2002741538180823,0.0875561536356172,-0.0009921540005473975,0.265,-6.315,-6.531
1621786135550.954,0.201,0.093,0.003,0.22474947359495784,-6.30842274917683,-6.5502820259174985
1621786135556.306,0.201,0.119,0.016,0.0029466105167955114,-6.272178426578862,-6.6565367494312
1621786135561.654,0.209,0.141,0.035,-0.21870447832907025,-6.235958905077513,-6.7627187654565235
1621786135567.0,0.215,0.162,0.047,-0.44026450263555805,-6.199754264234134,-6.868857156988821
1621786135567.259,0.2156786056923569,0.162,0.047436246516515145,-0.451,-6.198,-6.874
1621786135572.344,0.229,0.162,0.056,-0.6505211116142178,-6.142888555580711,-6.95209910572787
1621786135577.685,0.239,0.18,0.07,-0.8600910827484718,-6.0850014291374235,-7.034131664591351
1621786135583.024,0.248,0.182,0.068,-1.0695748386914194,-6.027138116934571,-7.116130476001811
1621786135584.513,0.24883696994648002,0.18283696994648002,0.0705109098394401,-1.128,-6.011,-7.139
1621786135588.361,0.251,0.185,0.077,-1.2046056338028168,-5.98486921529175,-7.134756539235413
1621786135593.695,0.251,0.176,0.075,-1.3107901210077366,-5.948648850851589,-7.128874599710942
1621786135599.028,0.25,0.182,0.084,-1.4169551676254712,-5.912435117748746,-7.122993737070309
1621786135601.743,0.2464337746827324,0.17537701012507445,0.08501892151921932,-1.471,-5.894,-7.12
1621786135604.357,0.243,0.169,0.086,-1.4948507236095347,-5.8850369892167995,-7.12
1621786135609.684,0.227,0.175,0.094,-1.5434565692395006,-5.866771098183882,-7.12
1621786135615.01,0.216,0.168,0.089,-1.5920512769580022,-5.848509392735528,-7.12
1621786135618.95,0.2056356713610716,0.15467443460709207,0.09418216431946419,-1.628,-5.835,-7.12
1621786135620.332,0.202,0.15,0.096,-1.6335508675695263,-5.836608947121602,-7.127883840895849
1621786135625.652,0.188,0.141,0.093,-1.654917932612372,-5.842802299307934,-7.158231266608876
1621786135630.971,0.18,0.134,0.091,-1.6762800949281644,-5.848994230413961,-7.188571729028407
1621786135636.13,0.16252834175470832,0.12041093247588425,0.091,-1.697,-5.855,-7.218
1621786135636.286,0.162,0.12,0.091,-1.6977092321703,-5.855527377767659,-7.220045862029711
1621786135641.6,0.155,0.11,0.087,-1.7218686322499859,-5.873492059878195,-7.289736439182651
1621786135646.911,0.155,0.101,0.086,-1.7460124935966759,-5.891445187546246,-7.359382193067335
1621786135652.22,0.154,0.091,0.079,-1.7701485855768682,-5.909392537993056,-7.429005535317889
1621786135653.287,0.15540785901624257,0.08778203653430267,0.07618428196751484,-1.775,-5.913,-7.443
1621786135657.526,0.161,0.075,0.065,-1.7799481304149567,-5.913,-7.447948130414956
1621786135662.831,0.166,0.061,0.049,-1.786141130870953,-5.913,-7.454141130870953
1621786135668.132,0.176,0.047,0.037,-1.792329286365709,-5.913,-7.460329286365709
1621786135670.42,0.17988587357169183,0.03491061555473646,0.028364725396240326,-1.795,-5.913,-7.463
1621786135673.431,0.185,0.019,0.017,-1.791480057081698,-5.902792165536925,-7.4094968676418125
1621786135678.729,0.195,0.007,0.007,-1.7852864074206207,-5.8848305815198,-7.315353392793435
1621786135684.024,0.201,0.002,-0.01,-1.779096468069925,-5.866879757402783,-7.221266314662861
1621786135687.528,0.19702776752767528,-0.003958348708487085,-0.020592619926199263,-1.775,-5.855,-7.159
1621786135689.317,0.195,-0.007,-0.026,-1.759606262863023,-5.842643122570318,-7.131249385433341
1621786135694.607,0.182,-0.017,-0.044,-1.7140826520695174,-5.806100360164647,-7.049183012234164
1621786135699.894,0.171,-0.031,-0.052,-1.6685842528012804,-5.7695778355819805,-6.967162088383261
1621786135704.61,0.15581016698274666,-0.03904167630325177,-0.06450927424950276,-1.628,-5.737,-6.894
1621786135705.172,0.154,-0.04,-0.066,-1.6234207347175837,-5.737,-6.888752228836939
1621786135710.38,0.129,-0.044,-0.072,-1.5809879337882968,-5.737,-6.840124858428924
1621786135715.584,0.106,-0.049,-0.08,-1.538584971685785,-5.737,-6.79153168288079
1621786135720.787,0.091,-0.065,-0.082,-1.4961899666037464,-5.737,-6.742947625961958
1621786135721.424,0.08842665915175427,-0.06598032032314123,-0.08261270020196328,-1.491,-5.737,-6.737
1621786135725.985,0.07,-0.073,-0.087,-1.474966747639897,-5.7581965031201365,-6.720966747639897
1621786135731.179,0.058,-0.08,-0.091,-1.4567089909377864,-5.782333876387334,-6.702708990937786
1621786135736.372,0.04,-0.089,-0.094,-1.4384538088934788,-5.806467845869638,-6.684453808893479
1621786135738.208,0.03433894796273643,-0.09324578902794768,-0.09293855274301308,-1.432,-5.815,-6.678
1621786135741.561,0.024,-0.101,-0.091,-1.412377711686494,-5.846435706787964,-6.682004548635409
1621786135746.746,0.01,-0.11,-0.094,-1.382034173081409,-5.89504729414509,-6.688197107534407
1621786135751.928,-0.005,-0.119,-0.094,-1.351709208070912,-5.94362912584558,-6.694385875903896
1621786135754.954,-0.015517607127704707,-0.1195843115070947,-0.0934156884929053,-1.334,-5.972,-6.698
1621786135757.107,-0.023,-0.12,-0.093,-1.3024427402862986,-5.996086561495765,-6.708046801051709
1621786135762.283,-0.03,-0.122,-0.089,-1.2265700408997955,-6.05399756061934,-6.732202191060473
1621786135767.456,-0.037,-0.131,-0.084,-1.1507402862985685,-6.111875781478235,-6.756343908851885
1621786135771.668,-0.039444549404874366,-0.12774060079350086,-0.084,-1.089,-6.159,-6.776
1621786135772.625,-0.04,-0.127,-0.084,-1.0766067387772427,-6.16795068866088,-6.782770392705024
1621786135777.791,-0.038,-0.134,-0.079,-1.0097084205441957,-6.216266140718081,-6.819316696184189
1621786135782.954,-0.042,-0.136,-0.075,-0.9428480408659123,-6.264554192707952,-6.855842273971399
1621786135788.114,-0.035,-0.14,-0.077,-0.8760287612886228,-6.31281256129155,-6.89234539892566
1621786135788.348,-0.034773190018466786,-0.13972782802216016,-0.07690927600738671,-0.873,-6.315,-6.894
1621786135793.27,-0.03,-0.134,-0.075,-0.8295329999120002,-6.355805755184654,-6.894
1621786135798.424,-0.021,-0.126,-0.072,-0.7840178052858525,-6.398534305241853,-6.894
1621786135803.573,-0.016,-0.117,-0.066,-0.7385478865389692,-6.4412203514123965,-6.894
1621786135804.994,-0.014067912358911127,-0.11506791235891113,-0.06461993739922224,-0.726,-6.453,-6.894
1621786135808.721,-0.009,-0.11,-0.061,-0.6948679178365598,-6.45728630116743,-6.885201802866854
1621786135813.828,-0.003,-0.098,-0.058,-0.6522096645485443,-6.463159538938969,-6.873146209546328
1621786135818.932,0.0,-0.086,-0.049,-0.6095758829614304,-6.469029407418354,-6.861097532141274
1621786135821.515,-0.001012537084888506,-0.0794185089482247,-0.04292477749066896,-0.588,-6.472,-6.855
1621786135824.034,-0.002,-0.073,-0.037,-0.576061413398208,-6.478122352103483,-6.845969530647363
1621786135829.13,0.0,-0.047,-0.035,-0.5519100160208865,-6.490507684091853,-6.827701165964517
1621786135834.223,0.0,-0.033,-0.023,-0.5277725034118554,-6.502885895686227,-6.809443303862814
1621786135837.973,0.007365846640771112,-0.022687814702920445,-0.014897568695151776,-0.51,-6.512,-6.796
1621786135839.314,0.01,-0.019,-0.012,-0.5148180628856017,-6.508733516687728,-6.796
1621786135844.399,0.01,-0.017,-0.005,-0.5330868802497584,-6.496347877796774,-6.796
1621786135849.481,0.014,-0.002,0.005,-0.5513451720805768,-6.483969374860626,-6.796
1621786135854.395,0.018836601307189543,0.015411764705882356,0.006934640522875817,-0.569,-6.472,-6.796
1621786135854.561,0.019,0.016,0.007,-0.569993070561061,-6.470814395350571,-6.796597869011252
1621786135859.636,0.019,0.03,0.017,-0.6003503613739661,-6.434571507339245,-6.814874197153714
1621786135864.707,0.021,0.033,0.028,-0.6306842858207287,-6.398356515907906,-6.833136457790031
1621786135869.776,0.017,0.056,0.035,-0.661005066686536,-6.362157216302809,-6.851390805454139
1621786135870.778,0.016802101913898665,0.056,0.035395796172202676,-0.667,-6.355,-6.855
1621786135874.84,0.016,0.056,0.037,-0.6816607822931136,-6.350030243290471,-6.845308974416417
1621786135879.9,0.012,0.068,0.045,-0.6999228758755619,-6.34383970309303,-6.833237421031408
1621786135884.958,0.007,0.068,0.051,-0.7181788013202502,-6.337651253789746,-6.821169944890004
1621786135887.125,0.004855727883268107,0.07314625308015654,0.05400198096342465,-0.726,-6.335,-6.816
1621786135890.011,0.002,0.08,0.058,-0.7329022053209169,-6.328097794679083,-6.812460407527735
1621786135895.061,-0.002,0.08,0.061,-0.7449800428188582,-6.316019957181142,-6.806266644708278
1621786135900.107,-0.007,0.082,0.065,-0.7570479541269295,-6.3039520458730705,-6.8000779722426
1621786135903.432,-0.008978355607205113,0.08002164439279488,0.06697835560720512,-0.765,-6.296,-6.796
1621786135905.149,-0.01,0.079,0.068,-0.7722844726650455,-6.300117310636765,-6.800117310636765
1621786135910.189,-0.012,0.08,0.073,-0.7936666216337926,-6.312202873097362,-6.812202873097362
1621786135915.22,-0.017,0.08,0.068,-0.8150104476267676,-6.324266774745564,-6.824266774745564
1621786135919.696,-0.017,0.09246302500606944,0.07245108035931051,-0.834,-6.335,-6.835
1621786135920.248,-0.017,0.094,0.073,-0.835973988830852,-6.338335360438336,-6.837688708924781
1621786135925.273,-0.023,0.094,0.07,-0.853943311306128,-6.3686973191034575,-6.862164165399726
1621786135930.294,-0.017,0.099,0.072,-0.8718986648201947,-6.399035675041018,-6.886620595186127
1621786135935.311,-0.017,0.096,0.073,-0.8898400493730526,-6.42935042825102,-6.911057998283985
1621786135935.915,-0.01663860349612894,0.09624093100258072,0.07263860349612894,-0.892,-6.433,-6.914
1621786135940.325,-0.014,0.098,0.07,-0.9187087224829127,-6.427821778294129,-6.932532582947327
1621786135945.334,-0.007,0.096,0.065,-0.9490460340691341,-6.421940054619249,-6.953582962415317
1621786135950.34,0.002,0.101,0.066,-0.979365601943359,-6.4160617710517975,-6.974621029919882
1621786135952.096,0.002,0.09819227015420652,0.06424516884637907,-0.99,-6.414,-6.982
1621786135955.343,0.002,0.093,0.061,-0.99,-6.394085604525243,-6.9721433800175445
1621786135960.341,0.01,0.093,0.059,-0.99,-6.363432408723797,-6.956971596237031
1621786135965.336,0.009,0.084,0.056,-0.99,-6.332798678120936,-6.941809446746725
1621786135968.238,0.007837059140047939,0.08109264785011985,0.05716294085995206,-0.99,-6.315,-6.933
1621786135970.327,0.007,0.079,0.058,-0.9951887564813973,-6.312535340671337,-6.910169471481852
1621786135975.315,0.002,0.072,0.061,-1.0075790654659025,-6.306649943903697,-6.855652111950029
1621786135980.299,-0.005,0.066,0.052,-1.0199596713059826,-6.300769156129658,-6.801177446253677
1621786135984.341,-0.008246592803216001,0.070869889204824,0.051188351799195994,-1.03,-6.296,-6.757
1621786135985.279,-0.009,0.072,0.051,-1.0345542080787817,-6.2948322543387745,-6.75927710403939
1621786135990.255,-0.019,0.072,0.052,-1.0587133217835325,-6.288637609799094,-6.771356660891766
1621786135995.228,-0.019,0.063,0.049,-1.082859396370931,-6.282446308622839,-6.783429698185466
1621786136000.197,-0.023,0.063,0.049,-1.1069853195951491,-6.276260174462782,-6.795492659797575
1621786136000.406,-0.02321045385258396,0.06291581845896642,0.04891581845896642,-1.108,-6.276,-6.796
1621786136005.162,-0.028,0.061,0.047,-1.1195612484022157,-6.270367596932254,-6.83098018747337
1621786136010.124,-0.028,0.054,0.047,-1.1316227859273238,-6.264491463266175,-6.867474070241646
1621786136015.096,-0.028,0.049,0.038,-1.1437086554263802,-6.2586034755615065,-6.904041572828534
1621786136016.45,-0.026637279473192787,0.049,0.03772745589463856,-1.147,-6.257,-6.914
1621786136020.064,-0.023,0.049,0.037,-1.147,-6.252492044156833,-6.918282558051009
1621786136025.031,-0.019,0.038,0.03,-1.147,-6.2462963837076515,-6.924168435477731
1621786136029.992,-0.019,0.028,0.026,-1.147,-6.24010833650552,-6.930047080319756
1621786136032.484,-0.020005417651694248,0.028,0.020972911741528762,-1.147,-6.237,-6.933
1621786136034.949,-0.021,0.028,0.016,-1.1409902478481166,-6.233918075819547,-6.9209804956962335
1621786136039.905,-0.017,0.024,0.014,-1.128907652157988,-6.227721872901532,-6.896815304315976
1621786136044.855,-0.012,0.021,0.01,-1.1168399365118125,-6.221533300775288,-6.872679873023626
1621786136048.481,-0.015664807777722944,0.018068153777821647,0.007801115333366235,-1.108,-6.217,-6.855
1621786136049.802,-0.017,0.017,0.007,-1.101544144640235,-6.217,-6.846888797112091
1621786136054.746,-0.021,0.009,0.002,-1.0773827092511015,-6.217,-6.816532121879589
1621786136059.686,-0.024,0.007,0.0,-1.0532415565345081,-6.217,-6.786200930004894
1621786136064.442,-0.03074448511227619,0.005073004253635375,0.0019269957463646256,-1.03,-6.217,-6.757
1621786136064.622,-0.031,0.005,0.002,-1.03,-6.217226335239906,-6.757
1621786136069.555,-0.04,0.002,0.0,-1.03,-6.2234229524788,-6.757
1621786136074.483,-0.054,-0.002,0.0,-1.03,-6.2296134359713555,-6.757
1621786136079.409,-0.059,-0.002,-0.003,-1.03,-6.235801465965375,-6.757
1621786136080.363,-0.06074455632161103,-0.0035507167303209164,-0.0024184812261296563,-1.03,-6.237,-6.757
1621786136084.331,-0.068,-0.01,0.0,-1.0447361732208442,-6.251736173220844,-6.761745547308407
1621786136089.25,-0.077,-0.01,-0.005,-1.0630038418391652,-6.2700038418391655,-6.767628355846511
1621786136094.164,-0.079,-0.01,-0.005,-1.0812533769766262,-6.288253376976627,-6.773505324789083
1621786136096.25,-0.08112421063099796,-0.014673263388195516,-0.005,-1.089,-6.296,-6.776
1621786136099.074,-0.084,-0.021,-0.005,-1.1028848858862095,-6.29243977284969,-6.793445113036519
1621786136103.981,-0.086,-0.026,-0.012,-1.1270114806322042,-6.286253466504563,-6.823758014127641
1621786136108.886,-0.087,-0.028,-0.019,-1.1511284722756583,-6.2800696224934205,-6.854058849782237
1621786136112.114,-0.08831086105190106,-0.03389887473355475,-0.020310861051901056,-1.167,-6.276,-6.874
1621786136113.811,-0.089,-0.037,-0.021,-1.1691355494792468,-6.273971227994715,-6.8824354204430245
1621786136118.734,-0.087,-0.042,-0.026,-1.1753305170665767,-6.268086008786752,-6.906905542412978
1621786136123.652,-0.084,-0.049,-0.03,-1.1815196473009923,-6.262206335064057,-6.93135260683892
1621786136128.007,-0.08222780785852665,-0.05520267249515672,-0.03265828821221003,-1.187,-6.257,-6.953
1621786136128.567,-0.082,-0.056,-0.033,-1.1862939183987684,-6.255587836797536,-6.954729899923018
1621786136133.48,-0.079,-0.052,-0.04,-1.1800971516551193,-6.243194303310238,-6.969911978444958
1621786136138.388,-0.079,-0.058,-0.045,-1.1739068514241724,-6.230813702848344,-6.985078214010778
1621786136143.292,-0.077,-0.063,-0.052,-1.1677214780600462,-6.218442956120092,-7.000232378752886
1621786136143.864,-0.0764165546092933,-0.06416689078141341,-0.05223337815628268,-1.167,-6.217,-7.002
1621786136148.194,-0.072,-0.073,-0.054,-1.1401766230960355,-6.211799549375762,-7.002
1621786136153.092,-0.072,-0.075,-0.058,-1.1098354758561089,-6.205917082053736,-7.002
1621786136157.986,-0.068,-0.068,-0.059,-1.079518526520471,-6.200039306162132,-7.002
1621786136159.684,-0.06730578429904677,-0.06938843140190648,-0.059,-1.069,-6.198,-7.002
1621786136162.878,-0.066,-0.072,-0.059,-1.061108428330575,-6.198,-6.997953040169525
1621786136167.765,-0.07,-0.072,-0.061,-1.0490333946884038,-6.198,-6.991760715224823
1621786136172.649,-0.068,-0.077,-0.059,-1.036965599913381,-6.198,-6.985572102519683
1621786136175.468,-0.07031020857300055,-0.07295713499724904,-0.060155104286500276,-1.03,-6.198,-6.982
1621786136177.53,-0.072,-0.07,-0.061,-1.0247621705426357,-6.195381085271318,-6.9782025736434115
1621786136182.407,-0.066,-0.073,-0.061,-1.012373953488372,-6.189186976744186,-6.96922111627907
1621786136187.282,-0.066,-0.066,-0.056,-0.9999906976744186,-6.182995348837209,-6.960243255813954
1621786136191.215,-0.06761519951874875,-0.06357720072187688,-0.05842279927812312,-0.99,-6.178,-6.953
1621786136192.152,-0.068,-0.063,-0.059,-0.9911929628248166,-6.1768666853164245,-6.953596481412409
1621786136197.018,-0.063,-0.059,-0.056,-0.997388101454681,-6.170981303618053,-6.956694050727341
1621786136201.882,-0.066,-0.059,-0.056,-1.0035807534502053,-6.165098284222305,-6.959790376725103
1621786136206.742,-0.063,-0.051,-0.052,-1.0097681213477558,-6.159220284719632,-6.962884060673878
1621786136206.924,-0.06343886655554466,-0.05110971663888616,-0.05196342778703794,-1.01,-6.159,-6.963
1621786136211.722,-0.075,-0.054,-0.051,-1.01,-6.159,-6.986627473950305
1621786136216.593,-0.075,-0.051,-0.051,-1.01,-6.159,-7.01061563598249
1621786136221.461,-0.077,-0.054,-0.047,-1.01,-6.159,-7.034588168197793
1621786136222.763,-0.075929277719219,-0.05266159714902374,-0.046196958289414246,-1.01,-6.159,-7.041
1621786136226.325,-0.073,-0.049,-0.044,-1.01,-6.167848887299193,-7.0589246691445195
1621786136231.186,-0.072,-0.044,-0.044,-1.01,-6.179924980171998,-7.083386498297124
1621786136236.043,-0.065,-0.049,-0.04,-1.01,-6.191990762483866,-7.1078274419544965
1621786136238.462,-0.062010560193100674,-0.048003520064366895,-0.041992959871266215,-1.01,-6.198,-7.12
1621786136240.898,-0.059,-0.047,-0.044,-1.01,-6.194889650872819,-7.12
1621786136245.749,-0.058,-0.047,-0.038,-1.01,-6.188695760598504,-7.12
1621786136250.596,-0.049,-0.044,-0.037,-1.01,-6.18250716957606,-7.12
1621786136254.126,-0.04389982363315697,-0.044,-0.034085613504661126,-1.01,-6.178,-7.12
1621786136255.441,-0.042,-0.044,-0.033,-1.01,-6.176401331000437,-7.116634381053553
1621786136260.281,-0.044,-0.04,-0.03,-1.01,-6.170516887458602,-7.104246078860214
1621786136265.118,-0.035,-0.042,-0.031,-1.01,-6.164636302568268,-7.091865900143723
1621786136269.754,-0.031164613209452637,-0.03720576651181579,-0.030041153302363156,-1.01,-6.159,-7.08
1621786136269.953,-0.031,-0.037,-0.03,-1.0107528220061686,-6.158374774944029,-7.079502371894228
1621786136274.783,-0.031,-0.031,-0.028,-1.0290274607424108,-6.143197532603761,-7.067422525949932
1621786136279.611,-0.026,-0.031,-0.024,-1.0472947098147887,-6.128026427441955,-7.0553475646987
1621786136284.435,-0.024,-0.031,-0.021,-1.0655462558514552,-6.112868363784385,-7.043282983420225
1621786136285.348,-0.025325752203424173,-0.031,-0.021,-1.069,-6.11,-7.041
1621786136289.255,-0.031,-0.031,-0.021,-1.0740224398204814,-6.104977560179519,-7.036228682170543
1621786136294.073,-0.028,-0.026,-0.019,-1.0802161441170008,-6.098783855882999,-7.030344663088849
1621786136298.887,-0.026,-0.033,-0.017,-1.0864045130715878,-6.0925954869284125,-7.024465712581992
1621786136300.906,-0.027679017358643792,-0.0321604913206781,-0.017839508679321898,-1.089,-6.09,-7.022
1621786136303.697,-0.03,-0.031,-0.019,-1.096012173256582,-6.082987826743418,-7.022
1621786136308.505,-0.028,-0.024,-0.014,-1.1080914881570254,-6.070908511842974,-7.022
1621786136313.309,-0.03,-0.031,-0.012,-1.120161602340285,-6.0588383976597155,-7.022
1621786136316.429,-0.03065,-0.02775,-0.012,-1.128,-6.051,-7.022
1621786136318.109,-0.031,-0.026,-0.012,-1.1343991141654712,-6.055229922922939,-7.019830808757468
1621786136322.906,-0.035,-0.024,-0.014,-1.1526720678404236,-6.067308655013162,-7.013636587172738
1621786136327.7,-0.037,-0.028,-0.012,-1.1709329319231436,-6.07937939567801,-7.007446463754866
1621786136331.918,-0.041402007745617614,-0.0200763860578883,-0.013760803098247044,-1.187,-6.09,-7.002
1621786136332.491,-0.042,-0.019,-0.014,-1.1884457448824868,-6.090741407632044,-7.0034457448824865
1621786136337.278,-0.04,-0.033,-0.01,-1.200524213419257,-6.0969354940611575,-7.015524213419257
1621786136342.061,-0.042,-0.033,-0.016,-1.2125922100075814,-6.103124210260298,-7.027592210007581
1621786136346.842,-0.042,-0.023,-0.014,-1.2246552786201668,-6.109310399292394,-7.039655278620167
1621786136347.375,-0.04144214453644077,-0.023111571092711846,-0.014557855463559236,-1.226,-6.11,-7.041
1621786136351.619,-0.037,-0.024,-0.019,-1.2557258217746532,-6.11,-7.057239106339857
1621786136356.393,-0.038,-0.03,-0.023,-1.2891658749762493,-6.11,-7.07550728355184
1621786136361.163,-0.035,-0.033,-0.028,-1.3225768573057193,-6.11,-7.0937595794540504
1621786136362.794,-0.03431574903969271,-0.03676338028169014,-0.02971062740076825,-1.334,-6.11,-7.1
1621786136365.93,-0.033,-0.044,-0.033,-1.3419505308765416,-6.101845609357394,-7.104077195321303
1621786136370.693,-0.028,-0.047,-0.037,-1.3540264247964577,-6.089460077131839,-7.1102699614340805
1621786136375.454,-0.024,-0.051,-0.042,-1.366096748083607,-6.077080258375788,-7.116459870812106
1621786136378.177,-0.02342746406570842,-0.05672535934291581,-0.044862679671457906,-1.373,-6.07,-7.12
1621786136380.21,-0.023,-0.061,-0.047,-1.3756490003022157,-6.06483444941068,-7.114701999395568
1621786136384.964,-0.017,-0.068,-0.049,-1.3818437862857689,-6.05275461674275,-7.102312427428463
1621786136389.714,-0.017,-0.072,-0.056,-1.3880331641985717,-6.040685329812785,-7.089933671602857
1621786136393.526,-0.01860602787635653,-0.0744090418145348,-0.058409041814534796,-1.393,-6.031,-7.08
1621786136394.461,-0.019,-0.075,-0.059,-1.3905576705405966,-6.029778835270298,-7.0776187287770815
1621786136399.205,-0.019,-0.075,-0.063,-1.378166196374767,-6.023583098187383,-7.065537041465398
1621786136403.945,-0.024,-0.084,-0.065,-1.3657855628357805,-6.0173927814178905,-7.053465923764886
1621786136408.681,-0.033,-0.084,-0.065,-1.3534157699236373,-6.011207884961819,-7.041405375675547
1621786136408.84,-0.03313449538445671,-0.084,-0.06510087153834253,-1.353,-6.011,-7.041
1621786136413.415,-0.037,-0.084,-0.068,-1.3179715933600678,-6.011,-7.041
1621786136418.145,-0.035,-0.084,-0.068,-1.2817561949801088,-6.011,-7.041
1621786136422.871,-0.044,-0.086,-0.068,-1.2455707050534421,-6.011,-7.041
1621786136424.121,-0.04294154736678898,-0.08441232105018347,-0.068,-1.236,-6.011,-7.041
1621786136427.595,-0.04,-0.08,-0.068,-1.2113882669485418,-6.020115456685725,-7.049887570268583
1621786136432.314,-0.042,-0.07,-0.065,-1.1779551242012203,-6.032498102147696,-7.061960649594004
1621786136437.032,-0.049,-0.077,-0.063,-1.1445289002066015,-6.044878185108666,-7.07403123048095
1621786136439.365,-0.04701999481999482,-0.07947500647500648,-0.063,-1.128,-6.051,-7.08
1621786136441.745,-0.045,-0.082,-0.063,-1.1218967028380633,-6.053973401181456,-7.089233193142417
1621786136446.454,-0.051,-0.075,-0.059,-1.1098215776293823,-6.05985615448825,-7.107500690252986
1621786136451.161,-0.051,-0.07,-0.058,-1.0977520868113522,-6.0657361628354955,-7.125759663541801
1621786136454.574,-0.051,-0.06492005813953489,-0.05654858803986711,-1.089,-6.07,-7.139
1621786136455.864,-0.051,-0.063,-0.056,-1.089,-6.07,-7.1407003201776265
1621786136460.563,-0.045,-0.063,-0.049,-1.089,-6.07,-7.146893746078226
1621786136465.26,-0.045,-0.061,-0.049,-1.089,-6.07,-7.153084597686354
1621786136469.748,-0.04021823951721985,-0.06291270419311205,-0.049,-1.089,-6.07,-7.159
1621786136469.953,-0.04,-0.063,-0.049,-1.0887293766631723,-6.070798338843642,-7.1592570921699865
1621786136474.643,-0.038,-0.058,-0.044,-1.0825327796145472,-6.089078300137086,-7.16514385936618
1621786136479.33,-0.031,-0.045,-0.044,-1.076340375776147,-6.1073458914603656,-7.17102664301266
1621786136484.012,-0.024,-0.044,-0.038,-1.0701547455850333,-6.125593500524151,-7.176902991694218
1621786136484.886,-0.022132888286220925,-0.045306978199645354,-0.03781328882862209,-1.069,-6.129,-7.178
1621786136488.693,-0.014,-0.051,-0.037,-1.0541274449581326,-6.129,-7.163379522162232
1621786136493.369,-0.017,-0.033,-0.033,-1.0358614981733536,-6.129,-7.1454231676958395
1621786136498.041,-0.007,-0.035,-0.031,-1.0176098574245902,-6.129,-7.127480876790275
1621786136499.989,-0.0053314512756168966,-0.033331451275616895,-0.02891431409452112,-1.01,-6.129,-7.12
1621786136502.711,-0.003,-0.031,-0.026,-1.01,-6.118341300191204,-7.112773762841495
1621786136507.377,-0.002,-0.03,-0.024,-1.01,-6.1000697896749525,-7.100386298084714
1621786136512.041,-0.003,-0.026,-0.016,-1.01,-6.0818059273422564,-7.088004018537123
1621786136515.056,-0.00429424094744013,-0.021470156683959546,-0.016,-1.01,-6.07,-7.08
1621786136516.7,-0.005,-0.019,-0.016,-1.01,-6.061470412471582,-7.069283338746346
1621786136521.356,-0.002,-0.026,-0.012,-1.01,-6.037314225397856,-7.038933257551153
1621786136526.009,-0.003,-0.023,-0.007,-1.01,-6.013173238064307,-7.008602273465411
1621786136530.09,-0.009144942758113644,-0.023877848965444808,-0.005244302069110388,-1.01,-5.992,-6.982
1621786136530.658,-0.01,-0.024,-0.005,-1.0107571614583333,-5.991242838541667,-6.981280696614584
1621786136535.304,-0.012,-0.014,-0.003,-1.0169518229166667,-5.985048177083334,-6.975395768229167
1621786136539.947,-0.023,-0.007,0.0,-1.023142578125,-5.978857421875,-6.96951455078125
1621786136544.586,-0.035,-0.007,0.005,-1.0293277994791667,-5.972672200520834,-6.963638590494792
1621786136545.09,-0.0357612301858971,-0.006238769814102902,0.005217494338827742,-1.03,-5.972,-6.963
1621786136549.222,-0.042,0.0,0.007,-1.051537427396724,-5.982768713698363,-6.968246296417151
1621786136553.855,-0.047,0.0,0.019,-1.0756874959211644,-5.994843747960583,-6.974129005416694
1621786136558.484,-0.052,0.0,0.019,-1.099815930300855,-6.006907965150428,-6.980006444560465
1621786136560.054,-0.05505446197688532,0.005430154625573909,0.020357538656393476,-1.108,-6.011,-6.982
1621786136563.11,-0.061,0.016,0.023,-1.115982635141764,-6.023076294188822,-7.014135223519409
1621786136567.733,-0.061,0.009,0.026,-1.1280573432747965,-6.041343160338795,-7.062743663952386
1621786136572.352,-0.052,0.014,0.031,-1.1401224860198176,-6.05959555577357,-7.111313597566958
1621786136574.985,-0.053140847305230866,0.012859152694769133,0.02814788173692283,-1.147,-6.07,-7.139
1621786136576.968,-0.054,0.012,0.026,-1.1444704040652405,-6.062144938939431,-7.152047389558233
1621786136581.581,-0.042,0.009,0.026,-1.1385855585607736,-6.043870945004508,-7.182400803212851
1621786136586.189,-0.038,0.012,0.03,-1.1327072535038112,-6.025617260880256,-7.212720481927711
1621786136589.879,-0.03559713831478538,0.010398092209856916,0.028398092209856916,-1.128,-6.011,-7.237
1621786136590.796,-0.035,0.01,0.028,-1.1267656714701193,-6.013468657059761,-7.229779178100199
1621786136595.398,-0.044,0.012,0.026,-1.1205710248278808,-6.025857950344238,-7.193540495243103
1621786136599.997,-0.037,0.01,0.024,-1.1143803217272712,-6.038239356545458,-7.157324882104537
1621786136604.593,-0.04,0.002,0.035,-1.10819389079676,-6.050612218406481,-7.121134261161044
1621786136604.737,-0.03993726407570844,0.002219575735020469,0.035,-1.108,-6.051,-7.12
1621786136609.185,-0.038,0.009,0.035,-1.108,-6.056701408218727,-7.113998517664498
1621786136613.774,-0.049,0.017,0.037,-1.108,-6.062583381371984,-7.107806966976859
1621786136618.36,-0.042,0.014,0.037,-1.108,-6.068461912212798,-7.101619039776002
1621786136619.56,-0.04147620823786434,0.014785687643203496,0.037,-1.108,-6.07,-7.1
1621786136622.942,-0.04,0.017,0.037,-1.1260665334896238,-6.0610810784038565,-7.1089189215961435
1621786136627.521,-0.037,0.023,0.037,-1.1505291311023427,-6.049004606164666,-7.120995393835334
1621786136632.097,-0.028,0.023,0.038,-1.1749747734064158,-6.036936504267719,-7.133063495732281
1621786136634.348,-0.027015115099076004,0.022015115099076003,0.037507557549538,-1.187,-6.031,-7.139
1621786136636.668,-0.026,0.021,0.037,-1.183854821360605,-6.021721723013784,-7.142145178639395
1621786136641.238,-0.016,0.021,0.033,-1.1776594515878138,-6.003445382184051,-7.148340548412186
1621786136645.803,-0.012,0.024,0.033,-1.1714710321203397,-5.985189544755002,-7.15452896787966
1621786136649.101,-0.013445585874799357,0.020386035313001604,0.031554414125200644,-1.167,-5.972,-7.159
1621786136650.366,-0.014,0.019,0.031,-1.1652809078240096,-5.966928678080828,-7.147224218594466
1621786136654.924,-0.012,0.021,0.037,-1.159086070741257,-5.948653908686708,-7.10478958457761
1621786136659.479,-0.016,0.017,0.028,-1.1528955471497777,-5.9303918640918445,-7.062384497975978
1621786136663.817,-0.01885827658319481,0.016047241138935065,0.03085827658319481,-1.147,-5.913,-7.022
1621786136664.032,-0.019,0.016,0.031,-1.147,-5.913585985566531,-7.02141401443347
1621786136668.581,-0.033,0.021,0.035,-1.147,-5.9259794805281185,-7.009020519471882
1621786136673.126,-0.042,0.024,0.035,-1.147,-5.938361668163225,-6.996638331836776
1621786136677.668,-0.047,0.024,0.035,-1.147,-5.950735874156108,-6.984264125843892
1621786136678.499,-0.047915644501829134,0.023816871099634172,0.03536625780073166,-1.147,-5.953,-6.982
1621786136682.206,-0.052,0.023,0.037,-1.161930435652145,-5.9676773774207525,-7.0019916002799905
1621786136686.741,-0.058,0.03,0.033,-1.1801952434918836,-5.985632612246259,-7.026447868404387
1621786136691.274,-0.058,0.031,0.033,-1.198452184927169,-6.0035801139962,-7.050893603546548
1621786136693.148,-0.05717226505634335,0.031,0.034655469887313314,-1.206,-6.011,-7.061
1621786136695.802,-0.056,0.031,0.037,-1.2148988957383184,-6.018264404684341,-7.078797791476637
1621786136700.328,-0.056,0.026,0.031,-1.2300739237207436,-6.030652182629178,-7.109147847441488
1621786136704.849,-0.049,0.026,0.03,-1.245233398486443,-6.043027264070566,-7.139466796972886
1621786136707.762,-0.045776973364309255,0.026,0.0287107893457237,-1.255,-6.051,-7.159
1621786136709.368,-0.044,0.026,0.028,-1.2614986939048893,-6.051,-7.161092799732083
1621786136713.883,-0.033,0.017,0.021,-1.2797697253851306,-6.051,-7.16697669122572
1621786136718.395,-0.035,0.012,0.023,-1.298027913596785,-6.051,-7.172856446751507
1621786136722.342,-0.022744978071362824,0.015501434836753479,0.016872489035681414,-1.314,-6.051,-7.178
1621786136722.904,-0.021,0.016,0.016,-1.311720103404284,-6.048720103404284,-7.1742130531122
1621786136727.408,-0.021,0.014,0.016,-1.2934492378969986,-6.030449237896999,-7.1438648358289125
1621786136731.91,-0.016,0.005,0.012,-1.2751862955751023,-6.012186295575103,-7.1135297790908485
1621786136736.409,-0.019,0.012,0.009,-1.2569352380312897,-5.99393523803129,-7.083214463170617
1621786136736.886,-0.018787747121442537,0.011469367803606344,0.009318379317836193,-1.255,-5.992,-7.08
1621786136740.904,-0.017,0.007,0.012,-1.2414301603594204,-5.9756608053307305,-7.05839903077622
1621786136745.395,-0.023,0.012,0.007,-1.2262632384862608,-5.957398593279375,-7.034255767386293
1621786136749.884,-0.031,0.014,0.01,-1.2111029127193793,-5.939144323478437,-7.010123003920644
1621786136751.395,-0.033358869650441034,0.014,0.01,-1.206,-5.933,-7.002
1621786136754.368,-0.038,0.014,0.01,-1.193882560296846,-5.9288923933209645,-7.006107606679035
1621786136758.851,-0.047,0.03,0.007,-1.1756093776353516,-5.922698094113678,-7.012301905886321
1621786136763.328,-0.054,0.03,0.007,-1.1573620678023275,-5.916512565356721,-7.018487434643279
1621786136765.87,-0.05911276595744681,0.028863829787234042,0.005863829787234043,-1.147,-5.913,-7.022
1621786136767.803,-0.063,0.028,0.005,-1.152355747602699,-5.9183557476027,-7.024543980111282
1621786136772.275,-0.065,0.017,0.005,-1.1647469600365303,-5.93074696003653,-7.030429806017352
1621786136776.743,-0.07,0.033,0.007,-1.1771273486783136,-5.943127348678313,-7.036310490622199
1621786136780.306,-0.07,0.029009297238173366,0.00939442165709598,-1.187,-5.953,-7.041
1621786136781.207,-0.07,0.028,0.01,-1.1894401857910528,-5.954188808462308,-7.042251377328745
1621786136785.669,-0.068,0.033,0.005,-1.2015227746605415,-5.9600751979115465,-7.048447576748996
1621786136790.127,-0.066,0.035,0.007,-1.213594785645268,-5.965956434032311,-7.054638351612958
1621786136794.581,-0.077,0.037,0.009,-1.2256562187452322,-5.971832516824601,-7.060823701920632
1621786136794.708,-0.07694296682204552,0.03702851658897724,0.008885933644091033,-1.226,-5.972,-7.061
1621786136799.033,-0.075,0.038,0.005,-1.2142596394038778,-5.989761058337724,-7.078761058337723
1621786136803.481,-0.077,0.038,0.01,-1.2021852600812277,-6.0080274270566045,-7.097027427056604
1621786136807.926,-0.079,0.047,0.012,-1.1901188335853994,-6.026281764575934,-7.1152817645759345
1621786136809.075,-0.0792587135788895,0.0451890049477735,0.012517427157779,-1.187,-6.031,-7.12
1621786136812.367,-0.08,0.04,0.014,-1.1982550422458436,-6.039958094848733,-7.133322294903244
1621786136816.805,-0.08,0.044,0.014,-1.2134281479967293,-6.05203464840556,-7.151282297628781
1621786136821.24,-0.079,0.042,0.017,-1.2285912373943855,-6.064103229762878,-7.169230444262742
1621786136823.407,-0.07557656069204914,0.04004374896688523,0.016510937241721306,-1.236,-6.07,-7.178
1621786136825.671,-0.072,0.038,0.016,-1.236,-6.073166521538698,-7.190507760077857
1621786136830.098,-0.073,0.037,0.021,-1.236,-6.079358534378255,-7.214966210794106
1621786136834.523,-0.063,0.04,0.019,-1.236,-6.085547815397224,-7.239413870819034
1621786136837.706,-0.055080291567728756,0.03784007951847148,0.02187989397537136,-1.236,-6.09,-7.257
1621786136838.944,-0.052,0.037,0.023,-1.2376491056910568,-6.086614993581515,-7.248494086435601
1621786136843.363,-0.042,0.028,0.017,-1.2435352845528456,-6.074532836970475,-7.21813379546427
1621786136847.777,-0.037,0.024,0.019,-1.2494149593495933,-6.062464030808729,-7.18780705177578
1621786136851.97,-0.024642552720429513,0.023049427132340733,0.017098854264681464,-1.255,-6.051,-7.159
1621786136852.188,-0.024,0.023,0.017,-1.2542491677820102,-6.049498335564021,-7.156594272281135
1621786136856.596,-0.017,0.014,0.014,-1.2390685678986924,-6.0191371357973855,-7.107954391022341
1621786136861.0,-0.021,0.031,0.014,-1.223901420776279,-5.988802841552559,-7.05935761350767
1621786136865.4,-0.014,0.023,0.016,-1.208748567212327,-5.958497134424655,-7.010806633721129
1621786136866.198,-0.015632776513680006,0.02227432154947555,0.01618141961263111,-1.206,-5.953,-7.002
1621786136869.799,-0.023,0.019,0.017,-1.201179655652832,-5.942851906637541,-6.964705756892964
1621786136874.193,-0.026,0.037,0.017,-1.1952978551402673,-5.930469168716352,-6.919199195032594
1621786136878.583,-0.044,0.04,0.019,-1.1894216102788147,-5.918098126902768,-6.873735616367671
1621786136880.392,-0.04606142547154064,0.04,0.020649140377232516,-1.187,-5.913,-6.855
1621786136882.971,-0.049,0.04,0.023,-1.1941042992394848,-5.913,-6.855
1621786136887.355,-0.066,0.047,0.026,-1.2061815406901548,-5.913,-6.855
1621786136891.737,-0.075,0.045,0.024,-1.2182534016245021,-5.913,-6.855
1621786136894.549,-0.07821229361892013,0.048854752342704144,0.02785475234270415,-1.226,-5.913,-6.855
1621786136896.114,-0.08,0.051,0.03,-1.2314291986448178,-5.921753197815114,-6.8712875959344535
1621786136900.488,-0.093,0.052,0.03,-1.246603851206527,-5.946218453986034,-6.916811553619581
1621786136904.859,-0.098,0.063,0.031,-1.2617674929129503,-5.970665957961695,-6.9623024787388506
1621786136908.673,-0.098,0.05863310599284437,0.03624027280858676,-1.275,-5.992,-7.002
1621786136909.226,-0.098,0.058,0.037,-1.2773160311958405,-5.995061871750433,-7.007377902946273
1621786136913.59,-0.096,0.061,0.03,-1.295593760831889,-6.019225649913345,-7.049819410745234
1621786136917.951,-0.096,0.07,0.03,-1.313858197573657,-6.043371854419411,-7.092230051993067
1621786136922.308,-0.098,0.063,0.031,-1.3321072963604854,-6.0674977816291165,-7.134605077989602
1621786136922.76,-0.0967547931382442,0.06248116380760175,0.030273629330642447,-1.334,-6.07,-7.139
1621786136926.663,-0.086,0.058,0.024,-1.3448311126552592,-6.075554416746287,-7.149831112655259
1621786136931.013,-0.082,0.051,0.024,-1.3569020411708503,-6.081744636497872,-7.16190204117085
1621786136935.36,-0.072,0.044,0.017,-1.3689655172413793,-6.087931034482758,-7.173965517241379
1621786136936.814,-0.06965722475130669,0.04165722475130669,0.016665317821615244,-1.373,-6.09,-7.178
1621786136939.704,-0.065,0.037,0.016,-1.373,-6.085876554390609,-7.1660420077327665
1621786136944.045,-0.059,0.037,0.016,-1.373,-6.079683374551535,-7.14808178619945
1621786136948.382,-0.054,0.033,0.014,-1.373,-6.073495419554844,-7.130136716709046
1621786136950.832,-0.050042981072555205,0.0318694231635872,0.012869423163587202,-1.373,-6.07,-7.12
1621786136952.716,-0.047,0.031,0.012,-1.3677448402304873,-6.07,-7.11461009254409
1621786136957.046,-0.049,0.033,0.009,-1.3556675746464117,-6.07,-7.102223153483499
1621786136961.374,-0.051,0.035,0.009,-1.343595075955998,-6.07,-7.089841103544614
1621786136964.814,-0.05338719150618399,0.03181707799175468,0.007408538995877336,-1.334,-6.07,-7.08
1621786136965.697,-0.054,0.031,0.007,-1.3352029863287063,-6.072532602797277,-7.078797013671294
1621786136970.017,-0.051,0.035,0.009,-1.3410882069774364,-6.084922541005129,-7.072911793022564
1621786136974.335,-0.047,0.037,0.007,-1.346970434295517,-6.0973061774642465,-7.067029565704483
1621786136978.648,-0.044,0.026,0.01,-1.3528460097677104,-6.109675810037285,-7.061153990232289
1621786136978.761,-0.04413110205006229,0.026104881640049836,0.009973779589987542,-1.353,-6.11,-7.061
1621786136982.959,-0.049,0.03,0.009,-1.3472671264125782,-6.118750175475539,-7.054965396223767
1621786136987.266,-0.049,0.024,0.009,-1.3413852214501298,-6.127727819891907,-7.048773917315926
1621786136991.569,-0.047,0.017,0.009,-1.335508984347582,-6.1366968133642175,-7.042588404576402
1621786136992.674,-0.04751382187659647,0.016743089061701768,0.009770732814894703,-1.334,-6.139,-7.041
1621786136995.87,-0.049,0.016,0.012,-1.320412479769193,-6.139,-7.049981581169517
1621786137000.167,-0.047,0.021,0.01,-1.302144940539019,-6.139,-7.06205673421997
1621786137004.46,-0.051,0.002,0.019,-1.2838940081626908,-6.139,-7.074120909858561
1621786137006.552,-0.051,0.006876508081038015,0.019,-1.275,-6.139,-7.08
1621786137008.75,-0.051,0.012,0.019,-1.2688080063486464,-6.131220315668813,-7.09254275637069
1621786137013.037,-0.054,0.016,0.019,-1.2567307644828498,-6.116046345119478,-7.117006912970638
1621786137017.321,-0.051,0.012,0.028,-1.244662463627546,-6.10088360814743,-7.141452958292919
1621786137020.396,-0.051,0.013436883235411557,0.026563116764588442,-1.236,-6.09,-7.159
1621786137021.601,-0.051,0.014,0.026,-1.2394031750521515,-6.0831063889969235,-7.159
1621786137025.877,-0.049,0.014,0.03,-1.2514783792384117,-6.058646360004243,-7.159
1621786137030.151,-0.045,0.012,0.03,-1.2635480677438744,-6.03419750380087,-7.159
1621786137034.206,-0.042150943396226416,0.010100628930817611,0.02620125786163522,-1.275,-6.011,-7.159
1621786137034.421,-0.042,0.01,0.026,-1.2756083596270429,-6.009471301449995,-7.1568629418229515
1621786137038.688,-0.04,0.003,0.026,-1.2876912114014252,-5.979109263657957,-7.114418052256532
1621786137042.951,-0.038,0.01,0.024,-1.2997623107739213,-5.948776757542454,-7.072014446768533
1621786137047.211,-0.035,0.003,0.021,-1.3118251143333215,-5.918465097316269,-7.029639982982948
1621786137047.979,-0.03536084188793944,0.0028195790560302807,0.020278316224121122,-1.314,-5.913,-7.022
1621786137051.468,-0.037,0.002,0.017,-1.3089202907565713,-5.903094566975314,-6.994569570085486
1621786137055.721,-0.045,0.002,0.019,-1.3027283843105195,-5.891020349405513,-6.961133275276805
1621786137059.971,-0.051,0.002,0.019,-1.2965407432420424,-5.8789544493219825,-6.927720013507029
1621786137061.716,-0.05428719245803633,0.008163485858818119,0.018178201885490918,-1.294,-5.874,-6.914
1621786137064.218,-0.059,0.017,0.017,-1.2868781339653237,-5.870530372957465,-6.917469627042534
1621786137068.461,-0.066,0.014,0.014,-1.2748005666530051,-5.864646429907874,-6.923353570092125
1621786137072.701,-0.063,0.014,0.017,-1.262731338762273,-5.858766549653415,-6.929233450346585
1621786137075.417,-0.0706940810327935,0.017205867096997292,0.01379413290300271,-1.255,-5.855,-6.933
1621786137076.937,-0.075,0.019,0.012,-1.2572243658449445,-5.850551268310111,-6.936336548767417
1621786137081.17,-0.075,0.012,0.017,-1.2634187209717755,-5.83816255805645,-6.945628081457663
1621786137085.4,-0.084,0.014,0.016,-1.2696087888531618,-5.825782422293677,-6.954913183279743
1621786137089.084,-0.08228610369697315,0.015713896303026862,0.010858311090919417,-1.275,-5.815,-6.963
1621786137089.699,-0.082,0.016,0.01,-1.2779594228220266,-5.812799403542596,-6.962620586817689
1621786137094.725,-0.089,0.014,0.014,-1.302145860947102,-5.794814616218821,-6.959519761417038
1621786137099.752,-0.094,0.009,0.005,-1.326335823593204,-5.776827208097361,-6.956418484154717
1621786137104.778,-0.11,0.01,0.007,-1.3505222617182793,-5.758842420773587,-6.953317658754067
1621786137105.293,-0.11020489653162344,0.010204896531623434,0.006795103468376567,-1.353,-5.757,-6.953
1621786137109.804,-0.112,0.012,0.005,-1.353,-5.7678343431913515,-6.961056306475621
1621786137114.831,-0.12,0.003,0.005,-1.353,-5.779908270812347,-6.970034355219438
1621786137119.857,-0.127,0.005,0.0,-1.353,-5.791979266587482,-6.979010223872743
1621786137121.531,-0.13068152089027724,0.005669367434595861,0.0006693674345958611,-1.353,-5.796,-6.982
1621786137124.859,-0.138,0.007,0.002,-1.3571301680124834,-5.81623782326117,-6.994183995636827
1621786137129.846,-0.14,0.01,0.0,-1.363319511566955,-5.84656560667808,-7.012442559122517
1621786137134.833,-0.143,0.014,-0.003,-1.3695088551214265,-5.87689339009499,-7.030701122608209
1621786137137.646,-0.14412767310986052,0.010053144115488133,-0.004127673109860534,-1.373,-5.894,-7.041
1621786137139.822,-0.145,0.007,-0.005,-1.3702992136721057,-5.894,-7.059500386346076
1621786137144.809,-0.145,0.014,-0.005,-1.3641094950229535,-5.894,-7.101899959092768
1621786137149.796,-0.138,0.005,-0.009,-1.3579200793903308,-5.894,-7.1442974561762345
1621786137153.76,-0.138,0.013743672590199246,-0.011384637979145249,-1.353,-5.894,-7.178
1621786137154.783,-0.138,0.016,-0.012,-1.354269870133806,-5.888984012971466,-7.180539740267612
1621786137159.769,-0.136,0.007,-0.019,-1.3604595020533103,-5.864534966889424,-7.192919004106621
1621786137164.757,-0.14,0.01,-0.024,-1.3666515585458623,-5.840076343743844,-7.2053031170917246
1621786137169.742,-0.141,0.005,-0.021,-1.3728396751072116,-5.815633283326514,-7.217679350214423
1621786137169.871,-0.14118131518386132,0.005,-0.021181315183861335,-1.373,-5.815,-7.218
1621786137174.728,-0.148,0.005,-0.028,-1.3907899602897935,-5.809271029737186,-7.170660614144109
1621786137179.715,-0.152,0.005,-0.026,-1.4090565491527478,-5.803388568916912,-7.122052911576586
1621786137184.7,-0.157,0.009,-0.026,-1.4273150898784444,-5.7975086998696534,-7.073466625238716
1621786137185.979,-0.157,0.008487051451510255,-0.02728237137122436,-1.432,-5.796,-7.061
1621786137189.687,-0.157,0.007,-0.031,-1.4409809867483396,-5.78701901325166,-7.056394365770082
1621786137194.672,-0.169,0.005,-0.03,-1.4530551748188132,-5.774944825181187,-7.050202474451891
1621786137199.656,-0.18,0.0,-0.033,-1.465126406283167,-5.762873593716833,-7.044012099341966
1621786137202.081,-0.18243181706899084,0.0009727268275963375,-0.030568182931009158,-1.471,-5.757,-7.041
1621786137204.642,-0.185,0.002,-0.028,-1.4678185609219805,-5.752227841382971,-7.0472038062021385
1621786137209.627,-0.194,0.007,-0.03,-1.461626127833801,-5.742939191750701,-7.059279050724088
1621786137214.611,-0.201,0.007,-0.03,-1.4554346045947382,-5.733651906892107,-7.071352521040261
1621786137218.181,-0.20171613282397885,0.008432265647957684,-0.03501292976785189,-1.451,-5.727,-7.08
1621786137219.596,-0.202,0.009,-0.037,-1.4475720784932213,-5.727,-7.092129568408602
1621786137224.58,-0.199,0.003,-0.037,-1.4354980589002457,-5.727,-7.134853022352977
1621786137229.565,-0.201,0.003,-0.042,-1.4234222650207757,-5.727,-7.17758275454187
1621786137234.28,-0.19910758904512274,0.00016138356768409176,-0.04862343834207045,-1.412,-5.727,-7.218
1621786137234.548,-0.199,0.0,-0.049,-1.4103682765941314,-5.728798225794223,-7.219298718629161
1621786137239.531,-0.195,0.002,-0.054,-1.3800372431571764,-5.7622242626431115,-7.243439745242247
1621786137244.516,-0.18,0.003,-0.063,-1.349692834938206,-5.795665039047691,-7.267591417089999
1621786137249.499,-0.178,0.009,-0.066,-1.3193618015012512,-5.829091075896581,-7.291732443703086
1621786137250.38,-0.17676256736893678,0.008646447819696227,-0.06670710436060755,-1.314,-5.835,-7.296
1621786137254.482,-0.171,0.007,-0.07,-1.251574080252343,-5.894877923023263,-7.291158806223652
1621786137259.465,-0.161,0.01,-0.075,-1.175739331533772,-5.967617375875769,-7.28527774407813
1621786137264.447,-0.155,0.014,-0.072,-1.0999231597464438,-6.040339010039125,-7.279398122592582
1621786137266.479,-0.150922097011269,0.016038951494365506,-0.07036883880450759,-1.069,-6.07,-7.277
1621786137269.43,-0.145,0.019,-0.068,-1.0618504239151867,-6.073666449274263,-7.284149576084814
1621786137274.413,-0.138,0.026,-0.065,-1.0497771222301426,-6.079857886035824,-7.296222877769857
1621786137279.394,-0.131,0.035,-0.058,-1.0377091441311634,-6.08604659275325,-7.308290855868837
1621786137282.576,-0.12972288094071535,0.036277119059284664,-0.058,-1.03,-6.09,-7.316
1621786137284.377,-0.129,0.037,-0.058,-1.0190311490084814,-6.09,-7.3302147354686005
1621786137289.358,-0.117,0.038,-0.052,-0.9886954437178535,-6.09,-7.369527333141149
1621786137294.34,-0.103,0.047,-0.052,-0.9583523039342123,-6.09,-7.408849565309745
1621786137298.667,-0.0943148093697932,0.04873703812604136,-0.04505184749583455,-0.932,-6.09,-7.443
1621786137299.322,-0.093,0.049,-0.044,-0.9280101667652995,-6.086783705861823,-7.442226460903476
1621786137304.302,-0.086,0.051,-0.04,-0.8976767272120302,-6.062331239283167,-7.436345487928863
1621786137309.284,-0.07,0.051,-0.033,-0.8673313910259328,-6.037869182561721,-7.430462208464212
1621786137314.265,-0.059,0.052,-0.03,-0.8369920031562494,-6.013411920911671,-7.42458008224458
1621786137314.756,-0.05761941871293437,0.0525916776944567,-0.03,-0.834,-6.011,-7.424
1621786137319.246,-0.045,0.058,-0.03,-0.7818099277649629,-5.97834631844118,-7.404742700619158
1621786137324.226,-0.028,0.061,-0.021,-0.7239243808425397,-5.9421291580672575,-7.3833838624499215
1621786137329.206,-0.023,0.073,-0.017,-0.6660388339201165,-5.905911997693335,-7.362025024280685
1621786137330.844,-0.018396235663170276,0.0749730418586413,-0.01667115969022645,-0.647,-5.894,-7.355
1621786137334.187,-0.009,0.079,-0.016,-0.591927073215153,-5.885894927756192,-7.31011036911122
1621786137339.166,0.0,0.087,-0.007,-0.5099028806459447,-5.873823442812045,-7.24325291403594
1621786137344.146,0.009,0.087,0.002,-0.42786260016998545,-5.861749590213696,-7.176382345798932
1621786137346.93,0.012913177762525738,0.0937083047357584,0.00479512697323267,-0.382,-5.855,-7.139
1621786137349.126,0.016,0.099,0.007,-0.3740824670298818,-5.824148923254367,-7.110879107037166
1621786137354.105,0.012,0.115,0.021,-0.35613136448484667,-5.754201523682333,-7.04712174282549
1621786137359.084,0.009,0.127,0.033,-0.33818026193981154,-5.6842541241103,-6.983364378613813
1621786137363.017,0.00031067961165048494,0.13568932038834952,0.03852956751985878,-0.324,-5.629,-6.933
1621786137364.063,-0.002,0.138,0.04,-0.31762606464542187,-5.621325261511834,-6.930463433889504
1621786137369.042,-0.019,0.152,0.051,-0.2872829186087115,-5.584789636692122,-6.918388100262651
1621786137374.021,-0.035,0.157,0.063,-0.2569397725720012,-5.54825401187241,-6.906312766635796
1621786137378.999,-0.056,0.168,0.065,-0.22660257792217653,-5.511725553008335,-6.894239801418009
1621786137379.098,-0.05647670426679745,0.1681986267778323,0.06515890142226582,-0.226,-5.511,-6.894
1621786137383.977,-0.08,0.178,0.073,-0.24359884003400947,-5.552873102149885,-6.900068565528969
1621786137388.955,-0.103,0.185,0.084,-0.26155432406170287,-5.595594771043362,-6.906260111745414
1621786137393.933,-0.126,0.215,0.087,-0.2795098080893963,-5.6383164399368395,-6.912451657961861
1621786137395.178,-0.13250223159546815,0.21800102996713913,0.087,-0.284,-5.649,-6.914
1621786137398.911,-0.152,0.227,0.087,-0.33182768464528667,-5.7239919521379985,-6.93907470845481
1621786137403.888,-0.175,0.248,0.093,-0.39559584548104954,-5.823977951895044,-6.972506559766764
1621786137408.865,-0.197,0.262,0.089,-0.4593640063168124,-5.92396395165209,-7.005938411078717
1621786137411.256,-0.20804767042667974,0.27256733692986757,0.08467699852869054,-0.49,-5.972,-7.022
1621786137413.843,-0.22,0.284,0.08,-0.5342525855392045,-6.03041341291175,-7.080252494418881
1621786137418.819,-0.229,0.295,0.065,-0.6193749145746958,-6.142774887238599,-7.192304433003782
1621786137423.796,-0.236,0.302,0.049,-0.7045097726547906,-6.255152899904323,-7.304372864367397
1621786137427.332,-0.2267618486900206,0.30555313511922283,0.0376299676184869,-0.765,-6.335,-7.384
1621786137428.772,-0.223,0.307,0.033,-0.7781677778959039,-6.360439788588005,-7.396361587412482
1621786137433.748,-0.201,0.309,0.007,-0.8236722962197955,-6.4483532797715775,-7.439080114818584
1621786137438.725,-0.178,0.305,-0.01,-0.8691857448779673,-6.536284024117977,-7.481807025803806
1621786137443.407,-0.15541779107992737,0.29088611942495457,-0.025054805946715077,-0.912,-6.619,-7.522
1621786137443.701,-0.154,0.29,-0.026,-0.9148712387028177,-6.619365762892079,-7.515361403508773
1621786137448.676,-0.133,0.276,-0.044,-0.9634676691729324,-6.625556390977444,-7.403001503759398
1621786137453.652,-0.119,0.265,-0.066,-1.0120736386420597,-6.631748234221918,-7.29061954887218
1621786137458.627,-0.103,0.246,-0.08,-1.0606676843624212,-6.637938558517506,-7.178265162907268
1621786137459.48,-0.09939935224261458,0.24274227107665128,-0.08308626950633036,-1.069,-6.639,-7.159
1621786137463.602,-0.082,0.227,-0.098,-1.0487372506722166,-6.601295896820454,-7.050761009919942
1621786137468.577,-0.068,0.204,-0.101,-1.0242824980631047,-6.555791483737676,-6.920129293451016
1621786137473.552,-0.075,0.176,-0.119,-0.9998265453385389,-6.5102848375286735,-6.789491166238777
1621786137475.551,-0.08143047170274383,0.17117714622294214,-0.11940190448142149,-0.99,-6.492,-6.737
1621786137478.526,-0.091,0.164,-0.12,-0.9446489282513254,-6.477561699606544,-6.7116404211038025
1621786137483.501,-0.108,0.141,-0.127,-0.8688045179029882,-6.453415315903809,-6.6692294651131
1621786137488.475,-0.122,0.145,-0.133,-0.7929749950628162,-6.429273671897549,-6.626826833973901
1621786137491.622,-0.13844697453010746,0.13740908867841195,-0.14059091132158807,-0.745,-6.414,-6.6
1621786137493.45,-0.148,0.133,-0.145,-0.7205416020907406,-6.425148479047011,-6.624572157899535
1621786137498.423,-0.173,0.127,-0.148,-0.6539972498252652,-6.45548032333546,-6.691426018780199
1621786137503.397,-0.188,0.127,-0.157,-0.5874430972133589,-6.485816634758562,-6.758289725590299
1621786137507.69,-0.20526460481099656,0.12872646048109965,-0.1664955326460481,-0.53,-6.512,-6.816
1621786137508.37,-0.208,0.129,-0.168,-0.5229303307957637,-6.514878667699928,-6.831324672167267
1621786137513.343,-0.211,0.117,-0.175,-0.4712425734299737,-6.535925179681208,-6.943366397714668
1621786137518.317,-0.211,0.126,-0.187,-0.41954466578535504,-6.556975824710155,-7.055430125662883
1621786137523.29,-0.208,0.126,-0.195,-0.36785437084985795,-6.5780233699533515,-7.167477351810487
1621786137523.757,-0.20715457893444636,0.1258121286520992,-0.19584542106555364,-0.363,-6.58,-7.178
1621786137528.262,-0.199,0.124,-0.204,-0.28588532263457034,-6.590936263335461,-7.216697547187016
1621786137533.235,-0.188,0.126,-0.213,-0.20075493146104978,-6.60300930062916,-7.259417525303182
1621786137538.207,-0.166,0.12,-0.218,-0.11564543630892674,-6.615079374487097,-7.302127017415883
1621786137539.822,-0.1630771761009377,0.11967524178899307,-0.21735048357798614,-0.088,-6.619,-7.316
1621786137543.18,-0.157,0.119,-0.216,-0.014211100641356889,-6.615028359524605,-7.283181707650688
1621786137548.151,-0.147,0.129,-0.216,0.09502372412535334,-6.609148864707134,-7.234598513632633
1621786137553.123,-0.136,0.141,-0.216,0.2042853734156053,-6.60326792607678,-7.186003389160764
1621786137555.886,-0.12822008347655292,0.14322283329241345,-0.2143328750306899,0.265,-6.6,-7.159
1621786137558.095,-0.122,0.145,-0.213,0.2878311190830876,-6.587896756148725,-7.132042775058523
1621786137563.066,-0.108,0.148,-0.204,0.33920870701973066,-6.560660444471468,-7.07138008086827
1621786137568.036,-0.094,0.152,-0.201,0.39057620162344575,-6.533429483476727,-7.010729304107257
1621786137571.947,-0.08849376411666503,0.15042678974761858,-0.19628036924285575,0.431,-6.512,-6.963
1621786137573.008,-0.087,0.15,-0.195,0.4323215149073328,-6.509356970185334,-6.941591458501208
1621786137577.979,-0.089,0.155,-0.185,0.4385128092074255,-6.496974381585149,-6.841292490839707
1621786137582.95,-0.096,0.159,-0.183,0.44470410350751827,-6.484591792984964,-6.740993523178204
1621786137587.92,-0.115,0.161,-0.166,0.4508941815030484,-6.472211636993904,-6.640714259650617
1621786137588.005,-0.11544446627695633,0.161,-0.16581195657513387,0.451,-6.472,-6.639
1621786137592.89,-0.141,0.161,-0.155,0.40628137257883057,-6.46013587435765,-6.639
1621786137597.86,-0.159,0.157,-0.15,0.3607827561042357,-6.448064812843981,-6.639
1621786137602.83,-0.176,0.155,-0.147,0.3152863745552954,-6.435994344269772,-6.639
1621786137604.063,-0.17872879107923564,0.15375964041852924,-0.14650385616741168,0.304,-6.433,-6.639
1621786137607.8,-0.187,0.15,-0.145,0.2627926964668664,-6.419264232155622,-6.670894918553895
1621786137612.769,-0.183,0.148,-0.143,0.20800127758597087,-6.40100042586199,-6.713304095879785
1621786137617.738,-0.185,0.143,-0.143,0.15320985870507536,-6.382736619568358,-6.755713273205676
1621786137620.115,-0.18356521098393672,0.13726084393574692,-0.143,0.127,-6.374,-6.776
1621786137622.708,-0.182,0.131,-0.143,0.11116921930371565,-6.361399990874386,-6.769699995437193
1621786137627.676,-0.18,0.113,-0.152,0.08083868956181843,-6.337259365161447,-6.757629682580723
1621786137632.646,-0.178,0.099,-0.147,0.05049623568419291,-6.313109248809868,-6.745554624404934
1621786137636.167,-0.17587380215243992,0.08553408029878619,-0.14912619784756007,0.029,-6.296,-6.737
1621786137637.614,-0.175,0.08,-0.15,0.037834831546125186,-6.288878043957715,-6.726362141607727
1621786137642.582,-0.169,0.07,-0.145,0.06816720663168302,-6.264426435470378,-6.689839485892463
1621786137647.55,-0.164,0.054,-0.15,0.09849958171724085,-6.23997482698304,-6.6533168301772
1621786137652.218,-0.1611811882647796,0.04272475305911839,-0.14342277261781905,0.127,-6.217,-6.619
1621786137652.518,-0.161,0.042,-0.143,0.12408306962025317,-6.215541534810126,-6.617354552093476
1621786137657.486,-0.162,0.033,-0.141,0.0757863924050633,-6.191393196202531,-6.5901102726387535
1621786137662.453,-0.171,0.012,-0.143,0.027501582278481013,-6.1672507911392405,-6.5628726874391425
1621786137667.42,-0.178,0.0,-0.145,-0.020785601265822795,-6.143107199367089,-6.5356337633885095
1621786137668.265,-0.17834016413582976,-0.002381148950808394,-0.14465983586417022,-0.029,-6.139,-6.531
1621786137672.388,-0.18,-0.014,-0.143,-0.06446117679280595,-6.209665388536389,-6.510956726160588
1621786137677.355,-0.194,-0.03,-0.145,-0.10718131190943535,-6.29479609257315,-6.4868105628337975
1621786137682.322,-0.194,-0.047,-0.148,-0.14990144702606475,-6.379926796609912,-6.462664399507007
1621786137684.31,-0.1931995084787417,-0.04980172032440403,-0.15040147456377487,-0.167,-6.414,-6.453
1621786137687.289,-0.192,-0.054,-0.154,-0.1851964209629314,-6.47768747337026,-6.467482865664374
1621786137692.254,-0.19,-0.082,-0.162,-0.21552279505752026,-6.58382978270132,-6.491620183821292
1621786137697.221,-0.166,-0.106,-0.168,-0.2458625905411163,-6.690019066893907,-6.515768184308235
1621786137700.354,-0.14391873555872375,-0.13060483752027924,-0.1743089326975075,-0.265,-6.757,-6.531
1621786137702.187,-0.131,-0.145,-0.178,-0.27619778413587387,-6.78727972240823,-6.513060692761916
1621786137707.153,-0.086,-0.182,-0.188,-0.30653530772508675,-6.869314862726,-6.464458741705728
1621786137712.119,-0.04,-0.223,-0.204,-0.3368713398672917,-6.951345970049309,-6.415859180008522
1621786137716.396,0.004794610807887102,-0.2652103063382013,-0.2117529134090574,-0.363,-7.022,-6.374
1621786137717.084,0.012,-0.272,-0.213,-0.36844727549467277,-7.020284322678844,-6.353411872146118
1621786137722.05,0.058,-0.316,-0.222,-0.40776701674277016,-7.007900152207002,-6.204801826484018
1621786137727.014,0.099,-0.367,-0.229,-0.4470693607305936,-6.995521461187215,-6.056257534246575
1621786137731.979,0.15,-0.414,-0.236,-0.4863813698630137,-6.983139726027398,-5.907676712328767
1621786137732.436,0.15294556719280128,-0.4178660569405517,-0.2373807346216256,-0.49,-6.982,-5.894
1621786137736.944,0.182,-0.456,-0.251,-0.465264567983925,-6.957264567983925,-5.684310996772819
1621786137741.908,0.209,-0.494,-0.246,-0.4380281312793034,-6.930028131279304,-5.45342029470864
1621786137746.874,0.236,-0.524,-0.251,-0.4107796383121233,-6.902779638312124,-5.222427388418681
1621786137748.474,0.2437378984651712,-0.5372189098780008,-0.251,-0.402,-6.894,-5.148
1621786137751.837,0.26,-0.565,-0.251,0.01549560795895688,-6.641112153089653,-5.532574055749235
1621786137756.801,0.278,-0.592,-0.237,0.6317972049263935,-6.26780239621234,-6.100277284698647
1621786137761.765,0.264,-0.6,-0.213,1.248068491482333,-5.894510999132248,-6.667952593359416
1621786137764.511,0.2606802105366718,-0.546883368586748,-0.16098996507452407,1.589,-5.688,-6.982
1621786137766.728,0.258,-0.504,-0.119,1.2606827741650548,-5.353044515175974,-7.3292639233662795
1621786137771.692,0.279,-0.424,0.0,0.5255934849154014,-4.603092426480666,-8.10677411936707
1621786137776.655,0.157,-0.541,-0.044,-0.2093873414251557,-3.8532509937103088,-8.884169593226018
1621786137780.542,-0.048983028335301076,-0.5919083530106257,-0.18419377213695393,-0.785,-3.266,-9.493
1621786137781.618,-0.106,-0.606,-0.223,-0.6619028160648198,-3.52857152865563,-9.466017956411156
1621786137786.581,-0.302,-0.548,-0.251,-0.09406922127964179,-4.739784736289009,-9.341552795504043
1621786137791.543,-0.377,-0.405,-0.176,0.47362471252988925,-5.950700041121552,-9.217118247308061
1621786137796.505,-0.304,-0.279,-0.11,1.0413186463394206,-7.161615345954097,-9.092683699112078
1621786137796.572,-0.3023496482857002,-0.2774984504894486,-0.10959417580795908,1.049,-7.178,-9.091
1621786137801.468,-0.182,-0.168,-0.08,0.3391022680537997,-6.87253625991988,-10.040381304169014
1621786137806.43,-0.099,-0.063,-0.094,-0.38035327717780376,-6.562959863520739,-11.002544744177545
1621786137811.393,-0.033,0.017,-0.152,-1.0999858189517293,-6.253307306819393,-11.964944890405325
1621786137812.6,-0.009155905511811023,0.01627007874015748,-0.1692748031496063,-1.275,-6.178,-12.199
1621786137816.354,0.065,0.014,-0.223,-1.3644688804265042,-6.313608591012947,-11.709965910129474
1621786137821.316,0.201,-0.073,-0.297,-1.4827288651942117,-6.492856054836253,-11.06356054836253
1621786137826.277,0.356,-0.175,-0.344,-1.60097139375476,-6.672077060167555,-10.417250601675553
1621786137828.628,0.4346621062992126,-0.21717426181102362,-0.3586899114173228,-1.657,-6.757,-10.111
1621786137831.238,0.522,-0.264,-0.375,-1.642667809210426,-6.57328737260637,-9.793085949758543
1621786137836.199,0.654,-0.33,-0.391,-1.6154271285590238,-6.224111375165668,-9.188838124400165
1621786137841.159,0.719,-0.363,-0.386,-1.5881918102463324,-5.875004113157534,-8.584709245464103
1621786137844.654,0.7105460853304463,-0.3580685497760937,-0.3627517346587274,-1.569,-5.629,-8.159
1621786137846.12,0.707,-0.356,-0.353,-1.6443941794910863,-5.518653664482706,-8.002904769160445
1621786137851.081,0.618,-0.319,-0.309,-1.8995165320737466,-5.145258570775559,-7.474702422672559
1621786137856.04,0.487,-0.3,-0.272,-2.154538442785311,-4.772010483010818,-6.946708029864392
1621786137860.677,0.3430569881889764,-0.2915877460629921,-0.25237140748031495,-2.393,-4.423,-6.453
1621786137861.001,0.333,-0.291,-0.251,-2.388227346155018,-4.4400480813191505,-6.459532064372581
1621786137865.96,0.188,-0.284,-0.232,-2.3151737328172146,-4.700998064555457,-6.559516458898473
1621786137870.919,0.063,-0.283,-0.197,-2.242120119479411,-4.961948047791765,-6.659500853424365
1621786137875.879,-0.023,-0.304,-0.154,-2.1690521198451647,-5.222949419366637,-6.759504937669542
1621786137876.697,-0.031083842063804646,-0.3086193383221741,-0.14608113430484443,-2.157,-5.266,-6.776
1621786137880.838,-0.072,-0.332,-0.106,-2.0683356448318957,-5.4484986435821625,-7.032170192337001
1621786137885.797,-0.103,-0.36,-0.068,-1.962148565854848,-5.667064467948913,-7.338967263084098
1621786137890.756,-0.127,-0.367,-0.019,-1.855966714420703,-5.885619532416863,-7.645749230347183
1621786137892.716,-0.13767132729421033,-0.36620953131154,-0.0075382040173296565,-1.814,-5.972,-7.767
1621786137895.715,-0.154,-0.365,0.01,-1.7314263546985749,-6.089587866778447,-7.836841201127963
1621786137900.674,-0.183,-0.342,0.037,-1.5948881030409268,-6.284023290907705,-7.952325935523207
1621786137905.632,-0.22,-0.321,0.066,-1.458376739577776,-6.478420425272464,-8.06778792774941
1621786137908.733,-0.2393879751821942,-0.3047391175891274,0.08914048650778018,-1.373,-6.6,-8.14
1621786137910.59,-0.251,-0.295,0.103,-1.3616355376688314,-6.60220331412543,-8.233234976676119
1621786137915.548,-0.293,-0.274,0.14,-1.331296441964694,-6.608085383700722,-8.482139394493736
1621786137920.505,-0.305,-0.257,0.169,-1.3009648160004879,-6.61396600506113,-8.730982529955183
1621786137924.748,-0.3127023832972228,-0.25186507780185147,0.18440476659444555,-1.275,-6.619,-8.944
1621786137925.463,-0.314,-0.251,0.187,-1.2946845587450644,-6.597574629937345,-8.965871731938961
1621786137930.42,-0.291,-0.232,0.201,-1.4311856792231352,-6.449001981797948,-9.117539643581262
1621786137935.377,-0.25,-0.237,0.195,-1.5676867997012058,-6.300429333658552,-9.269207555223561
1621786137940.334,-0.199,-0.234,0.192,-1.7041879201792764,-6.151856685519155,-9.420875466865862
1621786137940.763,-0.1953655437352246,-0.23425960401891255,0.19165386130811662,-1.716,-6.139,-9.434
1621786137945.291,-0.157,-0.237,0.188,-1.7660513653204044,-6.030979539252009,-9.289784201619174
1621786137950.248,-0.126,-0.25,0.187,-1.8208442116818369,-5.91272605162451,-9.131906508713351
1621786137955.204,-0.099,-0.257,0.187,-1.8756262635502905,-5.7944958605863786,-8.974059918583908
1621786137956.776,-0.09138669623059867,-0.25922054693274205,0.18351056910569105,-1.893,-5.757,-8.924
1621786137960.159,-0.075,-0.264,0.176,-1.8370074258180598,-5.734180384861699,-8.733413955048642
1621786137965.116,-0.086,-0.274,0.183,-1.754964182245128,-5.700743893141411,-8.454157329755116
1621786137970.072,-0.12,-0.281,0.195,-1.6729371016437435,-5.667313988594431,-8.174955719557195
1621786137972.787,-0.1347914778325123,-0.281,0.20266965517241378,-1.628,-5.649,-8.022
1621786137975.028,-0.147,-0.281,0.209,-1.581239796229638,-5.657120035385272,-7.97397979073882
1621786137979.983,-0.154,-0.283,0.222,-1.477851808919529,-5.675073637972058,-7.867805899579038
1621786137984.938,-0.175,-0.283,0.236,-1.3744587273503752,-5.693028125190653,-7.761626776889757
1621786137988.794,-0.18667274339771384,-0.2721054394954671,0.2523418407567994,-1.294,-5.707,-7.679
1621786137989.893,-0.19,-0.269,0.257,-1.296746922525436,-5.7043217505377,-7.662793157099928
1621786137994.848,-0.194,-0.258,0.269,-1.3091300395076042,-5.692248211480086,-7.589732766905136
1621786137999.803,-0.188,-0.236,0.276,-1.3215137666458197,-5.680174077520326,-7.516668776789664
1621786138004.757,-0.176,-0.22,0.276,-1.3338950531598457,-5.66810232316915,-7.44361918635691
1621786138004.799,-0.17591523335468925,-0.2197796067221921,0.2761271499679661,-1.334,-5.668,-7.443
1621786138009.711,-0.166,-0.194,0.291,-1.3278612924879478,-5.61981114603039,-7.355830353328858
1621786138014.666,-0.159,-0.162,0.298,-1.3216685787514493,-5.571198343198877,-7.26789381827058
1621786138019.619,-0.145,-0.141,0.305,-1.31547861109416,-5.522607097089156,-7.179996277537072
1621786138020.802,-0.1411782334384858,-0.1390891167192429,0.30547772082018926,-1.314,-5.511,-7.159
1621786138024.572,-0.129,-0.133,0.307,-1.3418021971315228,-5.416284040280745,-7.055095178516936
1621786138029.526,-0.117,-0.129,0.305,-1.3783346658529143,-5.29182596887397,-6.9185628166005495
1621786138034.479,-0.096,-0.127,0.311,-1.4148617332926456,-5.167386298443699,-6.782050640830027
1621786138036.803,-0.08849438202247191,-0.12324719101123595,0.3077162921348315,-1.432,-5.109,-6.718
1621786138039.433,-0.08,-0.119,0.304,-1.4351236570626296,-5.020386781223294,-6.608343196801368
1621786138044.386,-0.065,-0.106,0.307,-1.441005921132951,-4.853516237333659,-6.401844768648517
1621786138049.338,-0.058,-0.093,0.312,-1.446887025393725,-4.686678595409596,-6.195387055915029
1621786138052.801,-0.05660163643533123,-0.083910636829653,0.3099024546529968,-1.451,-4.57,-6.051
1621786138054.291,-0.056,-0.08,0.309,-1.4684174500946219,-4.53982217202857,-5.966893275746291
1621786138059.243,-0.068,-0.08,0.316,-1.5263034308039802,-4.4395277455588795,-5.687368994566876
1621786138064.195,-0.086,-0.063,0.323,-1.584192265429461,-4.3392283743361215,-5.407830932177522
1621786138068.798,-0.11016821969136716,-0.058352265443967856,0.34066139131292217,-1.638,-4.246,-5.148
1621786138069.147,-0.112,-0.058,0.342,-1.6405518246615485,-4.247723026908226,-5.135829759306461
1621786138074.099,-0.143,-0.04,0.356,-1.6767738060715212,-4.2721806040995745,-4.963078771043514
1621786138079.051,-0.182,-0.028,0.367,-1.7129940017399532,-4.296636975533815,-4.790336299394069
1621786138084.002,-0.216,-0.021,0.379,-1.7492070544422227,-4.321088523939621,-4.6176278941986295
1621786138084.794,-0.22047801222638533,-0.018760993886807336,0.38011950305659636,-1.755,-4.325,-4.59
1621786138088.954,-0.244,-0.007,0.386,-1.7804937941773658,-4.455070378455948,-4.556701983115277
1621786138093.905,-0.283,0.007,0.403,-1.8108335038089858,-4.609864815351969,-4.517074607269896
1621786138098.855,-0.319,0.016,0.412,-1.8411672289818786,-4.7646287192953,-4.477455047860403
1621786138100.786,-0.3244601311701761,0.02341017801666749,0.41668011243157943,-1.853,-4.825,-4.462
1621786138103.806,-0.333,0.035,0.424,-1.9029839895093166,-4.928551736757037,-4.587808758500808
1621786138108.757,-0.333,0.042,0.428,-1.9849302552529657,-5.098319660882559,-4.794065963221615
1621786138113.706,-0.316,0.061,0.419,-2.066840154310634,-5.268012244213351,-5.000231633679973
1621786138116.797,-0.29231827131325067,0.05788398306753298,0.4202464067729868,-2.118,-5.374,-5.129
1621786138118.666,-0.278,0.056,0.421,-2.1088312091151993,-5.468509075274101,-5.209638340345812
1621786138123.588,-0.241,0.075,0.387,-2.0846845305733854,-5.717405607935874,-5.422005282393047
1621786138128.509,-0.18,0.113,0.37,-2.0605414452873068,-5.966265102423144,-5.6343406222167625
1621786138132.696,-0.10682575907918238,0.12406122246477476,0.35978964080174636,-2.04,-6.178,-5.815
1621786138133.43,-0.094,0.126,0.358,-2.0182491819396864,-6.215128784969198,-5.819525647919131
1621786138138.351,-0.007,0.147,0.339,-1.872397139477363,-6.464099150446285,-5.849872782019572
1621786138143.272,0.093,0.185,0.309,-1.7265523328161245,-6.713057164364832,-5.880218410581783
1621786138148.191,0.223,0.229,0.278,-1.5807654125635628,-6.961916365815065,-5.910551994838155
1621786138148.588,0.23373293959998015,0.23093677105563554,0.27614392773834934,-1.569,-6.982,-5.913
1621786138153.11,0.356,0.253,0.255,-1.5411082019606035,-6.945854506622415,-5.781794705141206
1621786138158.03,0.503,0.257,0.227,-1.510763467625457,-6.906530208045235,-5.639050597707508
1621786138162.948,0.656,0.26,0.197,-1.4804307796318492,-6.867221520543315,-5.49636315724778
1621786138164.477,0.6995189596982331,0.26124339884852094,0.18953960690887434,-1.471,-6.855,-5.452
1621786138167.867,0.796,0.264,0.173,-1.500236071620687,-6.56413309767156,-5.280424805963268
1621786138172.784,0.916,0.251,0.159,-1.5426425881810497,-6.142234688388535,-5.031557365711212
1621786138177.701,1.005,0.246,0.148,-1.5850491047414126,-5.72033627910551,-4.782689925459156
1621786138180.362,1.0353018268467036,0.24870552025416998,0.14421227164416203,-1.608,-5.492,-4.648
1621786138182.619,1.061,0.251,0.141,-1.4407462952714751,-5.089283772981615,-4.947692492160118
1621786138187.535,1.079,0.257,0.175,-1.0764212629896084,-4.212055955235812,-5.600505995203837
1621786138192.452,1.0,0.281,0.243,-0.7120238578368074,-3.3346538768984813,-6.253449179118244
1621786138196.244,0.9027899860917942,0.33114802304788393,0.28003238625074506,-0.431,-2.658,-6.757
1621786138197.367,0.874,0.346,0.291,-0.19517511109744282,-2.6468948687589378,-7.031657481586271
1621786138202.283,0.756,0.485,0.314,0.8371227069334031,-2.5982833638306704,-8.23394075315609
1621786138207.198,0.586,0.639,0.435,1.8692154598434643,-2.549681515538265,-9.435985192133225
1621786138212.112,0.271,0.642,0.616,2.9011031476327402,-2.5010893238817213,-10.637790798517676
1621786138212.121,0.2705019372143851,0.6417592390224518,0.6163106000397377,2.903,-2.501,-10.64
1621786138217.027,0.0,0.511,0.785,1.86627344603221,-4.27709742966575,-10.84926174032087
1621786138221.94,-0.108,0.38,0.941,0.8281023365276643,-6.055669640522374,-11.05881506206642
1621786138226.853,-0.127,0.232,1.038,-0.21012036424605096,-7.834330236421529,-11.26837879743428
1621786138227.993,-0.11818356191612006,0.1788693599681972,1.038,-0.451,-8.247,-11.317
1621786138231.766,-0.089,0.003,1.038,-0.9079924615384616,-8.069861923076923,-12.01889476923077
1621786138236.678,0.052,-0.227,0.988,-1.5028958153846155,-7.839267230769231,-12.932606892307692
1621786138241.591,0.323,-0.401,0.925,-2.0979470153846154,-7.608615230769231,-13.846546092307692
1621786138243.862,0.4825421327367636,-0.43984504101416855,0.8944788963460104,-2.373,-7.502,-14.269
1621786138246.502,0.668,-0.485,0.859,-2.3665105027468725,-7.467722142714249,-13.474286182540048
1621786138251.413,0.984,-0.475,0.775,-2.354437745256452,-7.403953218534078,-11.995837726790084
1621786138256.325,1.216,-0.421,0.653,-2.3423631872951387,-7.340174784174323,-10.517168782604681
1621786138259.727,1.2839012529832936,-0.3821992840095465,0.5428336813842483,-2.334,-7.296,-9.493
1621786138261.235,1.314,-0.365,0.494,-2.144709285681304,-7.212145449508243,-9.19466034076742
1621786138266.146,1.29,-0.305,0.363,-1.5282963476012377,-6.939078542734451,-8.223136584014407
1621786138271.055,1.183,-0.182,0.311,-0.9121285650521003,-6.666120238260147,-7.251999215034401
1621786138275.589,1.0241386512830712,-0.02036781380545058,0.31746528744778196,-0.343,-6.414,-6.355
1621786138275.964,1.011,-0.007,0.318,-0.34926736057647895,-6.394512056169741,-6.318341853231916
1621786138280.873,0.768,0.159,0.325,-0.43131021156037325,-6.139405228959443,-5.838468573892157
1621786138285.781,0.476,0.318,0.291,-0.5133367412927663,-5.88434915160287,-5.358690758476273
1621786138290.689,0.164,0.454,0.243,-0.5953632710251593,-5.629293074246297,-4.878912943060389
1621786138291.445,0.11500999850768542,0.4717165099736358,0.23699179226981046,-0.608,-5.59,-4.805
1621786138295.597,-0.154,0.569,0.204,-0.7441946711843523,-5.880199414754351,-5.406089943015555
1621786138300.504,-0.449,0.665,0.194,-0.9051600184814415,-6.223179423995072,-6.116504312336362
1621786138305.411,-0.681,0.719,0.188,-1.0661253657785306,-6.566159433235793,-6.826918681657169
1621786138307.297,-0.7394400099527245,0.7309186862403583,0.18415526250311023,-1.128,-6.698,-7.1
1621786138310.317,-0.833,0.75,0.178,-1.342937408531419,-6.82871548072035,-7.92602275353165
1621786138315.222,-0.894,0.775,0.152,-1.6920608198665905,-7.041036987968512,-9.267733735923468
1621786138320.129,-0.846,0.757,0.11,-2.0413232480396837,-7.253443039144702,-10.609978971854638
1621786138323.145,-0.7746571414347587,0.7422394085727088,0.07678866928859462,-2.256,-7.384,-11.435
1621786138325.033,-0.73,0.733,0.056,-2.2489688082725885,-7.299864044753348,-11.626629767757247
1621786138329.938,-0.565,0.696,-0.014,-2.2307011666075915,-7.081271586863721,-12.12450040838971
1621786138334.843,-0.37,0.661,-0.082,-2.212433524942594,-6.8626791289740945,-12.622371049022176
1621786138338.987,-0.20011631728327442,0.6407153811681522,-0.13524712443360054,-2.197,-6.678,-13.043
1621786138339.746,-0.169,0.637,-0.145,-2.1401128530028366,-6.643254269946972,-12.918921799852015
1621786138344.65,0.017,0.597,-0.197,-1.7725878499198422,-6.418776066715995,-12.117302395486496
1621786138349.553,0.15,0.562,-0.223,-1.4051177395486496,-6.194331391046985,-11.315802719200889
1621786138354.455,0.251,0.545,-0.239,-1.0377208194598595,-5.969931418793933,-10.514462680355162
1621786138354.825,0.2540176277263221,0.5439438302957873,-0.2391508813863161,-1.01,-5.953,-10.454
1621786138359.358,0.291,0.531,-0.241,-0.7741195189639223,-5.6664510175763185,-9.533092830712304
1621786138364.26,0.3,0.532,-0.23,-0.5190301572617946,-5.356566975023127,-8.537191766882517
1621786138369.162,0.295,0.536,-0.218,-0.263940795559667,-5.046682932469936,-7.541290703052729
1621786138370.66,0.28155007473841553,0.5375284005979074,-0.2137204783258595,-0.186,-4.952,-7.237
1621786138374.062,0.251,0.541,-0.204,-0.16923570238756247,-4.804560151767537,-6.813379094947251
1621786138378.964,0.182,0.536,-0.187,-0.1450799555802332,-4.592113455487692,-6.202981954469739
1621786138383.863,0.075,0.522,-0.161,-0.12093984823246345,-4.379804306249614,-5.592980011104942
1621786138386.489,0.011225012456402589,0.5118174389636273,-0.1459941205779771,-0.108,-4.266,-5.266
1621786138388.763,-0.044,0.503,-0.133,-0.16015713558459188,-4.25752266942289,-5.202635546025331
1621786138393.663,-0.164,0.483,-0.106,-0.27255201086034275,-4.239254631843636,-5.066089705814294
1621786138398.562,-0.286,0.449,-0.075,-0.3849188868148651,-4.220991145118245,-4.92957788130756
1621786138402.315,-0.366453593859037,0.4244808094905792,-0.0550781577110956,-0.471,-4.207,-4.825
1621786138403.46,-0.391,0.417,-0.049,-0.5142791691742666,-4.246009150810919,-4.860462864373563
1621786138408.358,-0.478,0.391,-0.023,-0.6994106600003086,-4.412875160100612,-5.012159236455103
1621786138413.256,-0.541,0.346,-0.005,-0.8845513787941917,-4.57974948690647,-5.163863169914974
1621786138418.136,-0.5858340145548798,0.30714385405243744,0.0019741800418702025,-1.069,-4.746,-5.315
1621786138418.154,-0.586,0.307,0.002,-1.0694591732781773,-4.746347235513846,-5.315964035439756
1621786138423.05,-0.595,0.265,0.003,-1.1938951316642483,-4.840448059765999,-5.577217639613497
1621786138427.947,-0.572,0.209,-0.003,-1.3183559102275184,-4.934567653505387,-5.838523353811008
1621786138432.843,-0.52,0.15,-0.031,-1.4427918686135894,-5.02866847775754,-6.09977695798475
1621786138433.953,-0.5023183404807021,0.13730547521691433,-0.04052089358731425,-1.471,-5.05,-6.159
1621786138437.739,-0.442,0.094,-0.073,-1.3654040391563476,-5.031323163388198,-6.255257542537751
1621786138442.635,-0.342,0.033,-0.113,-1.2288537813050058,-5.007171417101566,-6.379731927245777
1621786138447.529,-0.229,-0.016,-0.157,-1.0923579964796344,-4.9830293054998,-6.504156656270265
1621786138449.765,-0.17783288436595832,-0.036558216102963184,-0.16979177890851044,-1.03,-4.972,-6.561
1621786138452.423,-0.117,-0.061,-0.185,-0.8519354480032122,-4.972,-6.394369243598851
1621786138457.318,-0.017,-0.094,-0.209,-0.5240336967600457,-4.972,-6.087522562312753
1621786138462.211,0.061,-0.115,-0.222,-0.19627913333539249,-4.972,-5.780813617691571
1621786138465.574,0.09810715354684227,-0.12736905118228076,-0.21925132195949318,0.029,-4.972,-5.57
1621786138467.105,0.115,-0.133,-0.218,0.07559680533885345,-4.959600018537686,-5.434181453045587
1621786138471.998,0.15,-0.145,-0.22,0.22451933326124232,-4.919969907157092,-5.0001078893300175
1621786138476.89,0.176,-0.161,-0.22,0.37340470857213476,-4.880349682542135,-4.566142616594318
1621786138481.378,0.1906785108294241,-0.16833925541471206,-0.21633037229264399,0.51,-4.844,-4.168
1621786138481.782,0.192,-0.169,-0.216,0.5248057817400844,-4.840010877458631,-4.151455369972652
1621786138486.673,0.201,-0.169,-0.206,0.7040317825744349,-4.79172200676751,-3.9511803742216594
1621786138491.565,0.202,-0.168,-0.197,0.8832846216838429,-4.74342590503855,-3.7508753882047556
1621786138496.456,0.201,-0.162,-0.18,1.0625106225181935,-4.69513703434743,-3.550600392453763
1621786138497.179,0.20306969893654203,-0.1615564930850267,-0.17630410904188926,1.089,-4.688,-3.521
1621786138501.346,0.215,-0.159,-0.155,0.9673890820852846,-4.6465837004064845,-3.48459586405156
1621786138506.236,0.225,-0.161,-0.119,0.8246736681040479,-4.597979969397691,-3.4418741132285438
1621786138511.125,0.241,-0.188,-0.093,0.6819938795381834,-4.549388371122548,-3.3991630268465713
1621786138512.975,0.239108243047581,-0.20199900144790056,-0.0907298916570972,0.628,-4.531,-3.383
1621786138516.015,0.236,-0.225,-0.087,0.2503353224908787,-4.491347133757961,-3.316976052810587
1621786138520.904,0.244,-0.264,-0.105,-0.3570948302516852,-4.427570063694268,-3.210784135180261
1621786138525.792,0.271,-0.305,-0.14,-0.9643733226145571,-4.363808917197452,-3.104618731061777
1621786138528.767,0.2996070625842865,-0.33847634983267566,-0.1673897407721892,-1.334,-4.325,-3.04
1621786138530.68,0.318,-0.36,-0.185,-1.292323823661301,-4.210875121770191,-3.2419598428971255
1621786138535.567,0.393,-0.414,-0.22,-1.1858487730203646,-3.9193068144918124,-3.757930509811198
1621786138540.455,0.501,-0.485,-0.236,-1.0793471262235004,-3.62766567704226,-4.274030059841351
1621786138544.556,0.5664526652345506,-0.5454178448318929,-0.2502653244741969,-0.99,-3.383,-4.707
1621786138545.342,0.579,-0.557,-0.253,-1.0481261601286969,-3.170069978963,-5.006446850637297
1621786138550.228,0.602,-0.536,-0.286,-1.4093928814503156,-1.846663609083034,-6.867574124489543
1621786138555.114,0.67,-0.375,-0.218,-1.7706596027719343,-0.5232572392030685,-8.728701398341789
1621786138559.999,0.654,-0.297,-0.04,-2.131854117683455,0.7998846213339936,-10.589456688528646
1621786138560.339,0.6268487180768655,-0.30368339247338694,-0.04633529911539807,-2.157,0.892,-10.719
1621786138564.884,0.264,-0.393,-0.131,-2.4507822198842715,0.10138020237026957,-10.348892007302657
1621786138569.769,-0.346,-0.407,-0.478,-2.7665476065228827,-0.7484001763777578,-9.951089534919701
1621786138574.653,-0.812,-0.183,-0.646,-3.082249868490268,-1.598010675495869,-9.553366587245103
1621786138576.119,-0.8894322419395152,-0.019131767058235438,-0.6354956260934767,-3.177,-1.853,-9.434
1621786138579.537,-1.07,0.363,-0.611,-2.208208372668885,-4.043886187417782,-10.124570099822023
1621786138584.42,-1.133,1.038,-0.382,-0.8243191828522791,-7.173500054166989,-11.111028352549717
1621786138589.303,-1.08,1.356,-0.098,0.5596392014238178,-10.303270401609534,-12.097535928190048
1621786138591.894,-0.980262734316421,1.322577405648588,-0.06616895776055987,1.294,-11.964,-12.621
1621786138594.187,-0.892,1.293,-0.038,0.5297276358569438,-12.092396593899984,-12.776442762037467
1621786138599.068,-0.536,1.086,-0.173,-1.0971992568509057,-12.365717835578263,-13.10733790060381
1621786138603.951,-0.052,0.829,-0.34,-2.724695773339526,-12.639134773184704,-13.438348893017494
1621786138607.663,0.354115640474166,0.6236606312209274,-0.41605161806632324,-3.962,-12.847,-13.69
1621786138608.832,0.482,0.559,-0.44,-3.9321940938724316,-12.602695371417067,-13.61726469176332
1621786138613.713,0.962,0.262,-0.497,-3.807741363023987,-11.582616395930438,-13.313562878424205
1621786138618.594,1.239,0.051,-0.541,-3.6832824070489494,-10.562486396085294,-13.009845873917959
1621786138623.429,1.3202614091273017,-0.12440572457966373,-0.5618108486789433,-3.56,-9.552,-12.709
1621786138623.473,1.321,-0.126,-0.562,-3.5611736100356204,-9.548063806721387,-12.697436735326002
1621786138628.354,1.272,-0.241,-0.567,-3.6915290847142637,-9.110862072169738,-11.413079231841412
1621786138633.233,1.133,-0.358,-0.545,-3.8218258788911257,-8.67385714728202,-10.129299891590522
1621786138638.112,0.951,-0.473,-0.496,-3.9521291931237417,-8.236830354653865,-8.845456310980332
1621786138639.193,0.913545945945946,-0.49427567567567565,-0.48092972972972975,-3.981,-8.14,-8.561
1621786138642.99,0.782,-0.569,-0.428,-3.6125616981716764,-7.8799967771924395,-8.542204586303068
1621786138647.868,0.63,-0.616,-0.339,-3.139220824295011,-7.5459648590021695,-8.51805770065076
1621786138652.747,0.49,-0.616,-0.222,-2.665761496746204,-7.211849349240781,-8.493904772234274
1621786138654.95,0.4127606627953544,-0.6056110832999599,-0.1705071085302363,-2.452,-7.061,-8.483
1621786138657.624,0.319,-0.593,-0.108,-2.456923078115313,-6.814506571605704,-8.60947217916925
1621786138662.5,0.117,-0.602,-0.054,-2.46589995350279,-6.365043707377557,-8.840085012399257
1621786138667.377,-0.07,-0.567,-0.049,-2.474878626782393,-5.9154908245505275,-9.070744032858029
1621786138670.702,-0.1641028439815742,-0.5329047666733426,-0.031952383336671344,-2.481,-5.609,-9.228
1621786138672.253,-0.208,-0.517,-0.024,-2.4472179244698,-5.637069654595064,-9.228
1621786138677.129,-0.291,-0.48,0.024,-2.3410168206622846,-5.725312554260201,-9.228
1621786138682.004,-0.351,-0.449,0.045,-2.2348369868535283,-5.813537780602753,-9.228
1621786138686.45,-0.36194411057692305,-0.4727122395833333,0.06415219350961539,-2.138,-5.894,-9.228
1621786138686.879,-0.363,-0.475,0.066,-2.1265008452364333,-5.890266862079127,-9.211160005583213
1621786138691.753,-0.367,-0.49,0.04,-1.99584112656834,-5.847848896539959,-9.019814730377332
1621786138696.627,-0.335,-0.454,0.012,-1.8651814079002467,-5.8054309310007906,-8.82846945517145
1621786138701.501,-0.295,-0.445,0.009,-1.734521689232153,-5.7630129654616224,-8.63712417996557
1621786138702.192,-0.28876152304609215,-0.4445746492985972,0.007298597194388776,-1.716,-5.757,-8.61
1621786138706.374,-0.251,-0.442,-0.003,-1.4686516843476642,-5.675967522799181,-8.271257677275266
1621786138711.248,-0.225,-0.431,-0.021,-1.1803818785284448,-5.581528972020597,-7.876473571561511
1621786138716.12,-0.222,-0.41,-0.021,-0.8922275885600844,-5.487128264780694,-7.481847664247161
1621786138717.933,-0.23539962909127363,-0.40292797353516113,-0.018394516565585686,-0.785,-5.452,-7.335
1621786138720.991,-0.258,-0.391,-0.014,-0.6000144279996277,-5.4158578609327,-7.05110932700363
1621786138725.864,-0.291,-0.368,-0.003,-0.305219057370691,-5.358261286419063,-6.598697523969096
1621786138730.734,-0.34,-0.326,0.026,-0.010615687734648938,-5.300702224704459,-6.146580377920506
1621786138733.67,-0.3719455693664796,-0.2928489374498797,0.051315356856455496,0.167,-5.266,-5.874
1621786138735.605,-0.393,-0.271,0.068,0.19590501094057947,-5.256405996368659,-5.824553981284626
1621786138740.476,-0.431,-0.204,0.112,0.26866715808749364,-5.232255156039044,-5.700084265739692
1621786138745.345,-0.463,-0.15,0.15,0.34139648349601953,-5.2081152097332355,-5.575670696317448
1621786138749.402,-0.48299358331662323,-0.10501443753759776,0.17165971525967516,0.402,-5.188,-5.472
1621786138750.215,-0.487,-0.096,0.176,0.3786843649573844,-5.199631968701969,-5.4811504820455506
1621786138755.084,-0.506,-0.045,0.194,0.2390496173132753,-5.269294536817102,-5.535951702296121
1621786138759.953,-0.496,-0.002,0.213,0.09941486966916618,-5.338957104932234,-5.590752922546691
1621786138764.822,-0.466,0.026,0.223,-0.04022687966714794,-5.40862316613106,-5.645556890689767
1621786138765.128,-0.4640515174316529,0.02757135690995736,0.22356568848758465,-0.049,-5.413,-5.649
1621786138769.689,-0.435,0.051,0.232,-0.31067216373179285,-5.441430013354452,-5.620569986645548
1621786138774.557,-0.391,0.058,0.241,-0.5899506816981894,-5.471772912202242,-5.590227087797758
1621786138779.424,-0.337,0.061,0.255,-0.8691871797260784,-5.50211124569086,-5.55988875430914
1621786138780.85,-0.32322613014901413,0.059534694696703624,0.25910285484922985,-0.951,-5.511,-5.551
1621786138784.29,-0.29,0.056,0.269,-1.1612919753374022,-5.435942614421718,-5.488634533848949
1621786138789.157,-0.244,0.058,0.276,-1.4588200469024213,-5.32974893227104,-5.400397800866608
1621786138794.022,-0.206,0.052,0.279,-1.756228719191166,-5.22359786609514,-5.312196477659228
1621786138796.57,-0.17929351261853393,0.04100321107821986,0.28004731323064574,-1.912,-5.168,-5.266
1621786138798.888,-0.155,0.031,0.281,-1.9627385036042753,-5.071095357941835,-5.251545426298782
1621786138803.753,-0.11,0.017,0.288,-2.0692337807606265,-4.867701761744967,-5.221206655480985
1621786138808.618,-0.056,0.0,0.288,-2.175729057916977,-4.664308165548099,-5.190867884663187
1621786138812.285,-0.008504140942629128,-0.01432414796968328,0.2932773176730412,-2.256,-4.511,-5.168
1621786138813.482,0.007,-0.019,0.295,-2.2454852445259443,-4.517019316539495,-5.11123555921615
1621786138818.346,0.082,-0.037,0.3,-2.2027592658782575,-4.541478391272592,-4.880577196226826
1621786138823.21,0.143,-0.054,0.312,-2.1600332872305708,-4.565937466005687,-4.649918833237502
1621786138827.995,0.2049910638084241,-0.05891992569908128,0.3257757919574276,-2.118,-4.59,-4.423
1621786138828.073,0.206,-0.059,0.326,-2.1182925468252116,-4.590485925235098,-4.418234957643584
1621786138832.936,0.26,-0.065,0.342,-2.136559757519235,-4.620828071811611,-4.120696152949406
1621786138837.798,0.311,-0.052,0.356,-2.15482329991451,-4.651164125281729,-3.8232170980026425
1621786138842.659,0.363,-0.03,0.353,-2.173082256936349,-4.681492562368851,-3.5258127302401494
1621786138843.702,0.37394009540547324,-0.0272113482299774,0.35171292995229725,-2.177,-4.688,-3.462
1621786138847.521,0.414,-0.017,0.347,-1.907511163629579,-4.692621198457616,-3.41894988805274
1621786138852.382,0.473,0.028,0.344,-1.5644956153989675,-4.698503234031967,-3.3641540829653587
1621786138857.242,0.552,0.063,0.344,-1.221566204365943,-4.7043837925244105,-3.309372038062069
1621786138859.404,0.5982663384739036,0.07323197870095946,0.3493384236700658,-1.069,-4.707,-3.285
1621786138862.102,0.656,0.086,0.356,-0.9999000948810876,-4.592349162402202,-3.2951415283632235
1621786138866.962,0.768,0.117,0.354,-0.8754314756342256,-4.385830333950319,-3.313409310790002
1621786138871.822,0.887,0.148,0.356,-0.7509566035681511,-4.1793011307959125,-3.331678010919102
1621786138875.1,0.9524547693235501,0.16689416021710723,0.34992687707307263,-0.667,-4.04,-3.344
1621786138876.68,0.984,0.176,0.347,-0.49425745931987186,-3.765584984910239,-3.653044055878784
1621786138881.538,1.073,0.19,0.354,0.03694387231262242,-2.9217301888553564,-4.6033867645686195
1621786138886.397,1.094,0.243,0.403,0.5682252885722285,-2.0777481721166113,-5.553872748203229
1621786138890.794,1.1166324519955766,0.3851317985322208,0.42834834623504575,1.049,-1.314,-6.414
1621786138891.254,1.119,0.4,0.431,1.0777604494102269,-1.1929481186393203,-6.564926395070181
1621786138896.112,1.089,0.511,0.356,1.381531247082257,0.08561418878964222,-8.15902636083533
1621786138900.969,0.881,0.557,0.251,1.685225716597678,1.3638552332638256,-9.752725778842862
1621786138905.825,0.377,0.422,0.246,1.9888591235878121,2.6418392673741864,-11.346104758644298
1621786138906.483,0.3164336349924585,0.3856872800402212,0.2665952740070387,2.03,2.815,-11.562
1621786138910.681,-0.07,0.154,0.398,1.2479954863813227,0.08012521400778239,-10.60924980544747
1621786138915.537,-0.232,-0.056,0.627,0.34338066926070043,-3.083549945525291,-9.50711813229572
1621786138920.393,-0.332,-0.15,0.862,-0.5611886692607002,-6.247066054474708,-8.40504186770428
1621786138922.169,-0.4450502967508299,-0.20670807765818328,0.8963907051604466,-0.892,-7.404,-8.002
1621786138925.247,-0.641,-0.305,0.956,-1.5984201513217298,-7.7985275087959645,-8.685455117227637
1621786138930.101,-1.094,-0.679,0.895,-2.712399009870162,-8.420671856026402,-9.763219603325343
1621786138934.956,-1.323,-0.983,0.785,-3.826601986486907,-9.042941370613693,-10.84120092163029
1621786138937.851,-1.228150316933293,-1.0241611832176276,0.7820173055639401,-4.491,-9.414,-11.484
1621786138939.809,-1.164,-1.052,0.78,-4.578053088938376,-9.769206578107237,-11.807357887032222
1621786138944.663,-0.759,-1.018,0.85,-4.793862255306558,-10.649782287075825,-12.60897902293928
1621786138949.515,-0.272,-0.937,0.775,-5.00957373117593,-11.529959385171226,-13.410237288399546
1621786138953.528,0.1291487370433732,-0.8451907014189393,0.5500258629364999,-5.188,-12.258,-14.073
1621786138954.367,0.213,-0.826,0.503,-4.9974560408748205,-12.263780547074584,-14.007380085986666
1621786138959.22,0.649,-0.735,0.197,-3.895118200510935,-12.297222256838431,-13.627754751074834
1621786138964.071,1.005,-0.595,-0.028,-2.79322400149542,-12.3306505078198,-13.248282198267805
1621786138968.922,1.286,-0.407,-0.07,-1.6913298024799053,-12.36407875880117,-12.868809645460775
1621786138969.201,1.2942191353364538,-0.3958495646484473,-0.06655141174694248,-1.628,-12.366,-12.847
1621786138973.773,1.429,-0.213,-0.01,-0.6349810988531538,-11.47890700573423,-11.562174192844678
1621786138978.623,1.417,-0.033,0.002,0.41843447706307635,-10.537859885315383,-10.199203643106458
1621786138983.473,1.255,0.089,-0.017,1.4717970269259533,-9.596860134629768,-8.836301701570681
1621786138984.869,1.1749836907278768,0.12066112956810632,-0.030240108728480826,1.775,-9.326,-8.444
1621786138988.323,0.977,0.199,-0.063,1.6062983976557141,-8.56474780223206,-8.448189974437309
1621786138993.171,0.649,0.311,-0.075,1.3695223361805597,-7.496315169274892,-8.454070687075253
1621786138998.021,0.328,0.415,-0.049,1.132638958164474,-6.427398279194463,-8.45995406509134
1621786139000.532,0.19333212469154454,0.4683491967568112,-0.02465619177116382,1.01,-5.874,-8.463
1621786139002.869,0.068,0.518,-0.002,0.7685172526701489,-5.865194386840258,-8.604934544320573
1621786139007.717,-0.119,0.606,0.026,0.26753894129570444,-5.846926327278397,-8.89939089420753
1621786139012.564,-0.239,0.661,0.017,-0.23331322990566772,-5.828662867389101,-9.193773103609573
1621786139016.19,-0.28313781292499873,0.6849391527728806,-0.006191054248728151,-0.608,-5.815,-9.414
1621786139017.411,-0.298,0.693,-0.014,-0.6845136854910401,-5.88387011650213,-9.411738127544098
1621786139022.258,-0.318,0.696,-0.047,-0.9882734758807842,-6.157284892153652,-9.402758480325645
1621786139027.104,-0.314,0.677,-0.07,-1.2919567678847144,-6.430630811459942,-9.393781094527363
1621786139031.844,-0.2934591667086503,0.6447215476850219,-0.10032218247770669,-1.589,-6.698,-9.385
1621786139031.95,-0.293,0.644,-0.101,-1.5924526650755768,-6.692821002386635,-9.379624674372533
1621786139036.795,-0.227,0.607,-0.131,-1.7503285600636436,-6.4560071599045346,-9.1338335751166
1621786139041.64,-0.126,0.564,-0.171,-1.9082044550517105,-6.219193317422435,-8.88804247586067
1621786139046.485,-0.028,0.525,-0.204,-2.0660883054892603,-5.982367541766109,-8.642238991061818
1621786139047.495,-0.011319389143692356,0.5191617862002923,-0.2108807519782269,-2.099,-5.933,-8.591
1621786139051.329,0.052,0.497,-0.237,-2.142131411806932,-5.519575615236966,-7.958732713284748
1621786139056.173,0.075,0.497,-0.284,-2.196625193114964,-4.997240336449182,-7.159903419110188
1621786139061.016,0.042,0.492,-0.333,-2.251107988327273,-4.475010361885738,-6.361235171111562
1621786139063.14,0.00998613631780601,0.4950698225448679,-0.34922620488001616,-2.275,-4.246,-6.011
1621786139065.859,-0.031,0.499,-0.37,-2.1079432616364375,-4.109712296694035,-5.741727484156963
1621786139070.702,-0.108,0.51,-0.387,-1.810385165298286,-3.8669593856335656,-5.26210470452346
1621786139075.544,-0.202,0.496,-0.396,-1.5128870695844912,-3.6242554240939033,-4.782578637654918
1621786139078.781,-0.2895777239953613,0.4886461453133666,-0.39265733877880304,-1.314,-3.462,-4.462
1621786139080.386,-0.333,0.485,-0.391,-1.2790871396277832,-3.4739090514972286,-4.423117455795373
1621786139085.227,-0.492,0.457,-0.379,-1.1737803084259748,-3.509830040566067,-4.305836961570619
1621786139090.068,-0.634,0.408,-0.349,-1.0684734772241662,-3.5457510296349057,-4.188556467345864
1621786139094.549,-0.744544608755264,0.3594682205464695,-0.33372147683870335,-0.971,-3.579,-4.08
1621786139095.054,-0.757,0.354,-0.332,-0.9771448712895303,-3.598061641551196,-4.102134077195961
1621786139100.039,-0.864,0.291,-0.316,-1.0378180467541918,-3.7862723082987175,-4.3206813316758135
1621786139105.024,-0.948,0.225,-0.312,-1.0984882508110732,-3.9744737576180227,-4.539217883023559
1621786139110.01,-0.998,0.145,-0.302,-1.1591733119068555,-4.162721294078409,-4.757807950031836
1621786139110.653,-0.998,0.1373872832369942,-0.302,-1.167,-4.187,-4.786
1621786139114.994,-0.998,0.086,-0.302,-1.0982649707407295,-4.403987053151815,-5.079269458172887
1621786139119.98,-0.951,0.023,-0.302,-1.019312467784482,-4.653229268366635,-5.41613347078621
1621786139124.966,-0.888,-0.047,-0.323,-0.9403599648282345,-4.902471483581456,-5.7529974833995325
1621786139126.757,-0.8592567342540895,-0.07286893917131942,-0.3305451072583015,-0.912,-4.992,-5.874
1621786139129.951,-0.808,-0.119,-0.344,-0.8165920276560581,-5.091176686428214,-5.920811395994117
1621786139134.937,-0.731,-0.176,-0.37,-0.6676456112686306,-5.246006641092899,-5.993891134595849
1621786139139.922,-0.648,-0.218,-0.407,-0.5187283671705609,-5.400806271132473,-6.066956559974527
1621786139142.859,-0.6055904416805405,-0.2439169523063363,-0.4193694545098423,-0.431,-5.492,-6.11
1621786139144.908,-0.576,-0.262,-0.428,-0.31878289144572286,-5.535639986659997,-6.104910788727698
1621786139149.893,-0.499,-0.291,-0.433,-0.04577429623902862,-5.641809995907044,-6.092529446541453
1621786139154.879,-0.408,-0.321,-0.433,0.22727440993223885,-5.747995603862537,-6.080146285263845
1621786139158.964,-0.33426107819615136,-0.33410914165401756,-0.4313613572932478,0.451,-5.835,-6.07
1621786139159.865,-0.318,-0.337,-0.431,0.4932305593451569,-5.833881309686221,-6.05137380627558
1621786139164.85,-0.218,-0.351,-0.428,0.7269177656510535,-5.827690920115204,-5.948303819918145
1621786139169.836,-0.11,-0.367,-0.417,0.9606393057450355,-5.821499621039867,-5.8452186903137795
1621786139174.821,0.01,-0.375,-0.407,1.194326512050932,-5.8153092314688495,-5.742148703956344
1621786139175.07,0.016191804964018213,-0.3755992069320018,-0.40600132177999704,1.206,-5.815,-5.737
1621786139179.808,0.134,-0.387,-0.387,1.4254709698935815,-5.673785434921021,-5.546654534153959
1621786139184.793,0.25,-0.389,-0.353,1.6563751932813875,-5.525214352848437,-5.346393096443623
1621786139189.778,0.34,-0.396,-0.319,1.8872907255252707,-5.376635994300094,-5.146121850650335
1621786139191.175,0.354286791344365,-0.39908146479976503,-0.30891520610986,1.952,-5.335,-5.09
1621786139194.765,0.391,-0.407,-0.283,1.796636812903617,-5.1994751538671435,-4.777267501440136
1621786139199.75,0.419,-0.41,-0.264,1.5808886547615437,-5.011275899705909,-4.3429853409332075
1621786139204.737,0.419,-0.421,-0.232,1.3650559682260557,-4.823002910590304,-3.9085330321680862
1621786139207.28,0.41542903320599467,-0.42610138113429324,-0.22230737584484278,1.255,-4.727,-3.687
1621786139209.722,0.412,-0.431,-0.213,1.1450729163508473,-4.674993117666677,-3.652884698177849
1621786139214.708,0.414,-0.478,-0.182,0.9206137252524027,-4.568800700360792,-3.583224949216263
1621786139219.694,0.421,-0.508,-0.182,0.6961545341539581,-4.462608283054907,-3.5135652002546767
1621786139223.385,0.42618196063069236,-0.5272472823425718,-0.18051943981980217,0.53,-4.384,-3.462
1621786139224.68,0.428,-0.534,-0.18,0.5559724083563264,-4.128457232952306,-3.945344107213244
1621786139229.666,0.424,-0.595,-0.185,0.6559789121009065,-3.1444923137564054,-5.806455853370123
1621786139234.652,0.398,-0.553,-0.162,0.7559854158454868,-2.1605273945605044,-7.6675675995270005
1621786139239.489,0.44553638233277837,-0.3754661639408481,-0.0271518950151797,0.853,-1.206,-9.473
1621786139239.638,0.447,-0.37,-0.023,0.8229836279295395,-1.1906774095746293,-9.47146496680108
1621786139244.624,0.421,-0.318,0.126,-0.18197435042294496,-0.6776720583330806,-9.420071552011644
1621786139249.61,0.063,-0.407,-0.056,-1.1869323287754294,-0.16466670709153197,-9.368678137222206
1621786139254.596,-0.387,-0.372,-0.368,-2.191841099960585,0.34831352514931946,-9.317287238880636
1621786139255.594,-0.43844278509523577,-0.33496920139058906,-0.3786088233853988,-2.393,0.451,-9.307
1621786139259.582,-0.644,-0.187,-0.421,-1.5505915710670282,-1.7702550199281677,-9.615198205707184
1621786139264.568,-0.7,0.232,-0.347,-0.4973618591540758,-4.547401715489415,-10.000526149089973
1621786139269.555,-0.646,0.747,-0.216,0.5560225650506916,-7.32495635503963,-10.385910694530741
1621786139271.704,-0.6028966361455222,0.881051461587426,-0.14013807961611907,1.01,-8.522,-10.552
1621786139274.541,-0.546,1.058,-0.04,0.18261710578176626,-8.64988588060516,-10.82838146924173
1621786139279.527,-0.421,1.11,-0.028,-1.2715688536518817,-8.874654670587878,-11.314142118667192
1621786139284.513,-0.211,1.023,-0.195,-2.7256836097383506,-9.099412454901008,-11.799878983112514
1621786139287.809,-0.010035205405670072,0.9165679870733976,-0.3133312441854772,-3.687,-9.248,-12.121
1621786139289.499,0.093,0.862,-0.374,-3.717842775302355,-9.336436937346548,-11.899855202934134
1621786139294.486,0.429,0.637,-0.494,-3.808860598345003,-9.597416613621895,-11.247251220029705
1621786139299.472,0.737,0.368,-0.572,-3.899856142584341,-9.858332408838773,-10.594806977660575
1621786139303.918,0.9340250648651295,0.1843476770940422,-0.6344061291428013,-3.981,-10.091,-10.013
1621786139304.459,0.958,0.162,-0.642,-3.941842953915165,-10.000092518223285,-9.961618970403261
1621786139309.445,1.044,0.026,-0.654,-3.5809655386667067,-9.162275054177337,-9.48808342552321
1621786139314.432,1.0,-0.077,-0.6,-3.2200351129767983,-8.324334520435844,-9.014478321487566
1621786139319.418,0.876,-0.159,-0.503,-2.8591576977283406,-7.486517056389895,-8.540942776607514
1621786139320.028,0.853118297997356,-0.16646408461048817,-0.4939452088331783,-2.815,-7.384,-8.483
1621786139324.404,0.689,-0.22,-0.429,-2.8975815525446333,-7.2856627565093515,-8.03532105725804
1621786139329.392,0.485,-0.269,-0.384,-2.9917136491770484,-7.173571246703647,-7.525026007092844
1621786139334.378,0.3,-0.3,-0.323,-3.0858042799551395,-7.0615291140007885,-7.0149557455063505
1621786139336.137,0.24956112008616047,-0.3112870220786214,-0.2873753365643511,-3.119,-7.022,-6.835
1621786139339.365,0.157,-0.332,-0.222,-2.9773364299028597,-6.984530286268508,-7.198476260475548
1621786139344.351,0.026,-0.351,-0.106,-2.758519678118417,-6.926653719672057,-7.759909906496734
1621786139349.337,-0.124,-0.346,-0.021,-2.539713640565566,-6.86877998696713,-8.321316062254686
1621786139352.247,-0.21678308121603757,-0.34483291721740833,0.0011745728692416912,-2.412,-6.835,-8.649
1621786139354.324,-0.283,-0.344,0.017,-2.4208961080294626,-6.8147581310054255,-8.915883240883877
1621786139359.311,-0.391,-0.346,0.023,-2.4422574338455942,-6.766153375162923,-9.556723015367826
1621786139364.297,-0.431,-0.344,0.024,-2.463614576702737,-6.717558137067685,-10.197437301082113
1621786139368.356,-0.4236747772446881,-0.35132522275531186,0.03132522275531186,-2.481,-6.678,-10.719
1621786139369.284,-0.422,-0.353,0.033,-2.491194981133791,-6.715842387598308,-10.72689103059508
1621786139374.271,-0.375,-0.377,0.044,-2.5459839523571395,-6.919211619766331,-10.769298313406374
1621786139379.258,-0.295,-0.389,0.023,-2.600772923580488,-7.122580851934354,-10.811705596217665
1621786139384.245,-0.192,-0.408,-0.021,-2.655561894803837,-7.325950084102377,-10.854112879028959
1621786139384.467,-0.18697126211690981,-0.40857852736708117,-0.023269607363164593,-2.658,-7.335,-10.856
1621786139389.232,-0.079,-0.421,-0.072,-2.4432544330271893,-7.175567685126246,-10.470286199266466
1621786139394.219,0.03,-0.426,-0.105,-2.2184961353096297,-7.008701676214725,-10.06658809978479
1621786139399.205,0.112,-0.422,-0.11,-1.993781849595344,-6.8418683428813925,-9.662969052165742
1621786139400.576,0.12382047390580633,-0.4200757368060315,-0.11137447370997748,-1.932,-6.796,-9.552
1621786139404.192,0.155,-0.415,-0.115,-1.7117846132860455,-6.593518574091757,-9.069815850497886
1621786139409.179,0.161,-0.396,-0.122,-1.4080684763333786,-6.314260719319783,-8.404798253989906
1621786139414.167,0.148,-0.375,-0.12,-1.104292865911881,-6.034948180481669,-7.739650434229073
1621786139416.684,0.12982637222739069,-0.36389389413896095,-0.11394212407579689,-0.951,-5.894,-7.404
1621786139419.153,0.112,-0.353,-0.108,-0.8277866040309138,-5.844346840430369,-7.1725917563267165
1621786139424.14,0.07,-0.321,-0.086,-0.5789230792544324,-5.744058554326413,-6.705198818002728
