time,gyro_x,gyro_y,gyro_z,acc_x,acc_y,acc_z
1621785117103.246,,,,1.471,-4.933,-8.924
1621785117121.905,,,,1.226,-4.648,-7.826
1621785117139.8,0.031,1.723,1.555,0.7721628628435349,-4.972573752976765,-6.78057058634228
1621785117140.871,0.01653875314186823,1.7172155012567474,1.548311673328114,0.745,-4.992,-6.718
1621785117145.725,-0.049,1.691,1.518,0.47095312539590034,-4.9695825626472745,-6.76233111206831
1621785117151.68,-0.119,1.658,1.482,0.1347556946309575,-4.942081118402716,-6.816715990574404
1621785117157.664,-0.213,1.611,1.449,-0.20309577621810637,-4.914444371246864,-6.8713684343882235
1621785117160.142,-0.24967830606195945,1.587097283689959,1.4321032522635917,-0.343,-4.903,-6.894
1621785117163.677,-0.302,1.553,1.408,-0.2863109390391402,-4.972146211299393,-7.166613000162097
1621785117169.719,-0.375,1.515,1.367,-0.18941606503821748,-5.090333270988416,-7.632572426090101
1621785117175.79,-0.442,1.496,1.339,-0.09205527500342903,-5.209088629534033,-8.10077240364593
1621785117179.722,-0.47551180472188875,1.4947110844337734,1.3273997599039615,-0.029,-5.286,-8.404
1621785117181.891,-0.494,1.494,1.321,0.06963802239901568,-5.511351854700018,-8.544130591015227
1621785117186.643,-0.52,1.492,1.312,0.2857202360145971,-6.005020791096321,-8.8511088491492
1621785117192.255,-0.515,1.489,1.283,0.5409024062862655,-6.588018847611191,-9.21363465275933
1621785117197.183,-0.48253816063977745,1.4846132649513213,1.2566795897079275,0.765,-7.1,-9.532
1621785117197.872,-0.478,1.484,1.253,0.7932086408157789,-7.134153280558164,-9.53870191869046
1621785117203.497,-0.419,1.478,1.225,1.0235158996377298,-7.412995089225815,-9.593419213739434
1621785117209.128,-0.344,1.471,1.197,1.254063061854287,-7.692127358110828,-9.64819350597075
1621785117214.765,-0.255,1.484,1.182,1.4848601234402254,-7.97156218972226,-9.703027170267006
1621785117215.379,-0.2464041273686943,1.4858497447434456,1.1835233192004846,1.51,-8.002,-9.709
1621785117220.408,-0.176,1.501,1.196,1.7423837249712621,-8.028982944368702,-9.482122998369288
1621785117226.057,-0.103,1.532,1.208,2.0034106985323605,-8.059291763573663,-9.227281498115326
1621785117231.713,-0.063,1.569,1.23,2.264764830112011,-8.089638570321062,-8.972120592402492
1621785117233.644,-0.0565197481890307,1.580937305967575,1.2378445153501207,2.354,-8.1,-8.885
1621785117237.375,-0.044,1.604,1.253,2.345858284496537,-8.044229248801278,-8.845105594033031
1621785117243.044,-0.037,1.637,1.29,2.3334874800213106,-7.959489238145977,-8.784488652104422
1621785117248.719,-0.028,1.653,1.335,2.321103356419819,-7.874657991475758,-8.723806446457113
1621785117251.974,-0.023989041213631872,1.6489890412136319,1.3533358115948257,2.314,-7.826,-8.689
1621785117254.4,-0.021,1.646,1.367,2.195058102189781,-7.74318901128069,-8.707065454545454
1621785117260.087,-0.017,1.613,1.4,1.9162102189781023,-7.549046582614466,-8.749418181818182
1621785117265.781,-0.007,1.58,1.419,1.6370151824817518,-7.3546624552090245,-8.791823636363636
1621785117270.37,0.009907397095986637,1.5542363472823062,1.4326869405062748,1.412,-7.198,-8.826
1621785117271.481,0.014,1.548,1.436,1.3589278988573845,-7.157864975666526,-8.791160151290732
1621785117277.188,0.056,1.513,1.447,1.0862656051629285,-6.951667980321625,-8.612167557130766
1621785117282.901,0.105,1.487,1.436,0.8133233707151926,-6.745259283749471,-8.432991192340246
1621785117288.621,0.162,1.461,1.421,0.540031210325857,-6.53858596064325,-8.253585114261531
1621785117288.831,0.16361343964524794,1.4603032874259156,1.4202299492602226,0.53,-6.531,-8.247
1621785117294.347,0.206,1.442,1.4,0.5240442862791618,-6.3761514432582045,-7.855709608540925
1621785117300.079,0.244,1.428,1.388,0.5178550151575063,-6.215230394095163,-7.449074495848161
1621785117305.817,0.262,1.428,1.377,0.5116596810333465,-6.054151706867009,-7.042041043890865
1621785117307.354,0.2625351921115267,1.424253655219313,1.37619721183271,0.51,-6.011,-6.933
1621785117311.561,0.264,1.414,1.374,0.558881896381903,-5.866843666688554,-6.68904312824217
1621785117317.312,0.243,1.405,1.363,0.6257030402521505,-5.669783163700834,-6.355556123186027
1621785117323.069,0.213,1.391,1.356,0.6925951014511786,-5.472513520257404,-6.0217151881279145
1621785117325.944,0.18855915117116354,1.3885060358337922,1.351510864500826,0.726,-5.374,-5.855
1621785117328.833,0.164,1.386,1.347,0.7791113859118806,-5.332966421963124,-5.783617058584907
1621785117334.603,0.115,1.37,1.351,0.8851905285334799,-5.251010233057224,-5.641044216752379
1621785117340.379,0.072,1.36,1.353,0.9913773930567005,-5.168970818775436,-5.498326594171607
1621785117344.601,0.03476621073961499,1.350509034110098,1.3515398514015535,1.069,-5.109,-5.394
1621785117346.162,0.021,1.347,1.351,1.1008495220957373,-5.109,-5.400503305558815
1621785117351.95,-0.026,1.34,1.349,1.2189378268069735,-5.109,-5.424615577201424
1621785117357.746,-0.075,1.333,1.349,1.337195490878744,-5.109,-5.4487624300747175
1621785117363.324,-0.10865367619207947,1.3253077311560961,1.355730735238416,1.451,-5.109,-5.472
1621785117363.547,-0.11,1.325,1.356,1.4555583363716862,-5.111106594093442,-5.478188864003334
1621785117369.342,-0.145,1.33,1.365,1.5739354393457994,-5.165813505911766,-5.638909734882025
1621785117375.143,-0.154,1.319,1.381,1.69243722329288,-5.220578037918641,-5.799799885410699
1621785117380.95,-0.161,1.319,1.381,1.8110587009740091,-5.275397885306526,-5.960852544403354
1621785117382.073,-0.1619659806803864,1.3164884502309953,1.3825455690886181,1.834,-5.286,-5.992
1621785117386.763,-0.166,1.306,1.389,1.8290128508009036,-5.381254549702744,-6.082516757963602
1621785117392.582,-0.166,1.295,1.398,1.8228249954567877,-5.499442586775357,-6.194826332459306
1621785117398.408,-0.169,1.299,1.408,1.8166298709727668,-5.617769464420157,-6.307267841844285
1621785117400.881,-0.17281719979902865,1.2934862669569587,1.410544799866019,1.814,-5.668,-6.355
1621785117404.239,-0.178,1.286,1.414,1.7809045653889441,-5.718710746581457,-6.477061656683786
1621785117410.075,-0.166,1.283,1.422,1.7233857876557264,-5.80684435762429,-6.68920080466759
1621785117415.918,-0.15,1.271,1.417,1.6657972289421596,-5.895084891137014,-6.90159731691225
1621785117419.753,-0.12967153711279952,1.2559175920514318,1.4196230274693162,1.628,-5.953,-7.041
1621785117421.766,-0.119,1.248,1.421,1.6373566805064856,-5.961293421358022,-7.118192614178509
1621785117427.621,-0.08,1.236,1.417,1.6645688939319698,-5.985413337803337,-7.342693374938753
1621785117433.481,-0.056,1.216,1.408,1.691803801222374,-6.009553369265286,-7.567381360084586
1621785117438.687,-0.0249374453739543,1.19469996254214,1.4008999875140467,1.716,-6.031,-7.767
1621785117439.347,-0.021,1.192,1.4,1.729304490309978,-6.036801174626022,-7.771099033568087
1621785117445.22,0.007,1.178,1.4,1.847711008584794,-6.088430126458644,-7.807579370791138
1621785117451.098,0.045,1.173,1.401,1.9662159692592405,-6.140102002261862,-7.844090037526345
1621785117456.982,0.079,1.164,1.396,2.084843982933224,-6.1918275330283254,-7.88063861615175
1621785117457.684,0.08305238292581849,1.162808122668877,1.396834314131786,2.099,-6.198,-7.885
1621785117462.873,0.113,1.154,1.403,2.125681508998911,-6.152532530583488,-7.852873285082944
1621785117468.769,0.148,1.141,1.407,2.155998552488311,-6.100869813616858,-7.816369089861014
1621785117474.671,0.169,1.129,1.419,2.1863457247165825,-6.049155754819702,-7.779828617177993
1621785117476.743,0.17285772727272727,1.1265450826446282,1.4246112396694215,2.197,-6.031,-7.767
1621785117480.579,0.18,1.122,1.435,2.240141122235276,-5.942510535322062,-7.717839186290035
1621785117486.493,0.182,1.115,1.442,2.3066470347857178,-5.806096082137201,-7.642053378965112
1621785117492.413,0.171,1.115,1.459,2.3732243321244315,-5.669535207130816,-7.566186226183787
1621785117495.861,0.16576236195813418,1.1144180402175705,1.4694752760837317,2.412,-5.59,-7.522
1621785117498.338,0.162,1.114,1.477,2.443762437478523,-5.559528718516539,-7.490366678120983
1621785117504.27,0.154,1.129,1.494,2.5198357451032796,-5.486547821770837,-7.414602611584132
1621785117510.207,0.145,1.147,1.506,2.5959716696575157,-5.413506853499293,-7.338776182658165
1621785117515.044,0.13767608642076729,1.1567652181056436,1.5157652181056436,2.658,-5.354,-7.277
1621785117516.151,0.136,1.159,1.518,2.6534561069670675,-5.339908179834577,-7.272456106967068
1621785117522.1,0.124,1.169,1.527,2.6290349368244788,-5.264171639518953,-7.248034936824479
1621785117528.055,0.11,1.187,1.532,2.6045907164966766,-5.188363614451718,-7.223590716496677
1621785117534.017,0.099,1.211,1.541,2.5801164307099,-5.1124623484041205,-7.199116430709901
1621785117534.289,0.0984530278232406,1.21109116202946,1.5411823240589198,2.579,-5.109,-7.198
1621785117539.984,0.087,1.213,1.545,2.506726657645467,-5.051181326116374,-7.134281461434371
1621785117545.957,0.072,1.225,1.553,2.4309211361653156,-4.990536908932253,-7.067448838415135
1621785117551.938,0.049,1.236,1.553,2.3550164657974277,-4.929813172637942,-7.000528802498957
1621785117553.594,0.04299076105298684,1.2382892338845763,1.5581507762402969,2.334,-4.913,-6.982
1621785117557.725,0.028,1.244,1.571,2.2769433116470963,-4.91747503438062,-6.922929546175817
1621785117563.438,0.005,1.253,1.585,2.198039788955887,-4.923663545964244,-6.841241193271977
1621785117569.151,-0.028,1.255,1.607,2.119136266264678,-4.929852057547868,-6.759552840368137
1621785117572.057,-0.04478556471945644,1.2539826930473055,1.6136124951925133,2.079,-4.933,-6.718
1621785117574.864,-0.061,1.253,1.62,2.0358184499014826,-4.944859721505931,-6.747801351476442
1621785117580.577,-0.094,1.25,1.634,1.9479380992052473,-4.968995874161939,-6.8084511709710265
1621785117586.29,-0.12,1.248,1.651,1.8600539929384694,-4.993133058277462,-6.869103582338239
1621785117590.519,-0.13850957428620275,1.248,1.657663446743033,1.795,-5.011,-6.914
1621785117592.002,-0.145,1.248,1.66,1.7689740795598814,-5.031483363309353,-6.949424169487939
1621785117597.715,-0.159,1.248,1.672,1.66870530046551,-5.110398606115108,-7.085901118810834
1621785117603.428,-0.159,1.237,1.67,1.5684408061785866,-5.189310476618705,-7.222372236034702
1621785117608.98,-0.16580257253963507,1.2389435921541816,1.6768025725396352,1.471,-5.266,-7.355
1621785117609.141,-0.166,1.239,1.677,1.4680067037776514,-5.26642761374605,-7.358508178079838
1621785117614.854,-0.159,1.225,1.682,1.3618807468034748,-5.281588464742361,-7.482889037274061
1621785117620.568,-0.148,1.23,1.682,1.2557321133427652,-5.296752555236748,-7.6072964735749515
1621785117626.281,-0.133,1.22,1.682,1.1496061563685886,-5.311913406233059,-7.731677332769175
1621785117627.444,-0.12933538461538463,1.215317435897436,1.6807784615384616,1.128,-5.315,-7.757
1621785117631.994,-0.115,1.197,1.676,1.0602246614473128,-5.3586226724502755,-7.737776449428692
1621785117637.707,-0.087,1.175,1.665,0.9751199878332628,-5.413399135103682,-7.713637669276344
1621785117643.42,-0.061,1.164,1.653,0.890018951015658,-5.4681732569826496,-7.6894999206517145
1621785117645.905,-0.049690483312678946,1.1526904833126788,1.6512600743557968,0.853,-5.492,-7.679
1621785117649.133,-0.035,1.138,1.649,0.8411097122302158,-5.474863997037664,-7.654869710114262
1621785117654.846,-0.026,1.115,1.646,0.8200665467625899,-5.444537082099027,-7.612164462547609
1621785117660.559,-0.016,1.084,1.641,0.7990224820143885,-5.414208871138383,-7.569457389970377
1621785117664.366,-0.014667264957264958,1.0653417094017095,1.6350026923076924,0.785,-5.394,-7.541
1621785117666.272,-0.014,1.056,1.632,0.7828802318793359,-5.384567031863044,-7.5264795883734505
1621785117671.823,-0.009,1.037,1.623,0.7767066482032067,-5.35709458450427,-7.484190540191966
1621785117677.37,-0.009,1.019,1.616,0.7705374088706065,-5.329641469474199,-7.441931250763655
1621785117682.349,-0.011693818245861218,1.0118164846777034,1.6133061817541388,0.765,-5.305,-7.404
1621785117682.915,-0.012,1.011,1.613,0.7619007735650846,-5.300034912752227,-7.405865860812857
1621785117688.457,-0.012,0.998,1.604,0.7315502817304937,-5.251412186037627,-7.424138095692866
1621785117693.995,-0.021,0.988,1.595,0.7012211823130552,-5.202823730848466,-7.442397451464589
1621785117699.53,-0.026,0.976,1.583,0.6709094642345526,-5.154263121273722,-7.460646342960831
1621785117700.244,-0.027161392824043427,0.9748386071759566,1.5814514762346088,0.667,-5.148,-7.463
1621785117705.062,-0.035,0.967,1.571,0.6246531086418741,-5.121566908579004,-7.484038582967732
1621785117710.591,-0.047,0.953,1.557,0.5760577172769145,-5.091233479574124,-7.50818151625733
1621785117716.117,-0.056,0.948,1.532,0.5274902210012711,-5.060917462790602,-7.532310590840133
1621785117718.107,-0.05852219078772876,0.9454778092122712,1.5244334276368137,0.51,-5.05,-7.541
1621785117721.64,-0.063,0.941,1.511,0.5022723052908314,-5.096762460291379,-7.548925840727353
1621785117727.16,-0.056,0.937,1.485,0.4901982829444627,-5.169825775002738,-7.561309453390295
1621785117732.676,-0.045,0.916,1.473,0.47813280479789677,-5.242837386351188,-7.5736843027713885
1621785117735.937,-0.040268718175780385,0.9118601284038079,1.4647202568076159,0.471,-5.286,-7.581
1621785117738.19,-0.037,0.909,1.459,0.471,-5.309543076606542,-7.5983408682532065
1621785117743.7,-0.033,0.904,1.445,0.471,-5.367122584184898,-7.640751580824361
1621785117749.207,-0.033,0.888,1.44,0.471,-5.42467147657911,-7.683139743501817
1621785117753.736,-0.034645175594182336,0.878128946434906,1.425193419652359,0.471,-5.472,-7.718
1621785117754.713,-0.035,0.876,1.422,0.4720445470409607,-5.4849193976118835,-7.7325686824134
1621785117760.214,-0.033,0.857,1.41,0.47792727097846843,-5.557679404207374,-7.814617200489165
1621785117765.712,-0.017,0.841,1.398,0.48380633991508304,-5.63039420421287,-7.896614740920895
1621785117771.207,0.003,0.822,1.389,0.4896825370652816,-5.703073484754799,-7.978572227489454
1621785117771.504,0.0048923124805477745,0.8207564803699257,1.3881890089369082,0.49,-5.707,-7.983
1621785117776.698,0.038,0.799,1.374,0.4843908277249705,-5.72176097967113,-7.977095608131548
1621785117782.126,0.087,0.77,1.363,0.4785290779157705,-5.737186637063761,-7.9709253451744955
1621785117787.549,0.126,0.744,1.346,0.47267260112398524,-5.752598418094776,-7.96476063276209
1621785117789.098,0.13428720720720722,0.7368558558558559,1.3442854054054054,0.471,-5.757,-7.963
1621785117792.969,0.155,0.719,1.34,0.42961612326931664,-5.685297454220634,-7.8437170611880305
1621785117798.384,0.169,0.686,1.328,0.3717267195176418,-5.584997096918267,-7.6768593680214385
1621785117803.795,0.187,0.656,1.312,0.3138816854622599,-5.484773615453327,-7.510129563979455
1621785117806.59,0.19113563913848378,0.6327370298460289,1.304245676615343,0.284,-5.433,-7.424
1621785117809.202,0.195,0.611,1.297,0.24298453831838468,-5.4109953544992795,-7.309486028516658
1621785117814.605,0.192,0.574,1.286,0.15813567100899714,-5.365474246855191,-7.072590468328039
1621785117820.003,0.185,0.539,1.271,0.07336731638378552,-5.319996333972322,-6.835919697202905
1621785117824.038,0.1722850031677075,0.5143179473255498,1.2665123540591907,0.01,-5.286,-6.659
1621785117825.398,0.168,0.506,1.265,-0.012973261131842542,-5.28826606997559,-6.6306350551331334
1621785117830.788,0.14,0.469,1.257,-0.10403316405263602,-5.297248169243288,-6.5182039505064395
1621785117836.174,0.11,0.421,1.251,-0.19502295109564827,-5.306223352318959,-6.405859417524761
1621785117841.441,0.0757478225367447,0.38968372346216656,1.2363204953728906,-0.284,-5.315,-6.296
1621785117841.556,0.075,0.389,1.236,-0.28666262603535314,-5.318053409458453,-6.298013528146138
1621785117846.934,0.042,0.356,1.216,-0.4111955112429863,-5.460863509161733,-6.392187650293204
1621785117852.307,0.005,0.321,1.197,-0.535604027506293,-5.603530986767167,-6.486267722293316
1621785117857.677,-0.021,0.291,1.175,-0.6599503592974365,-5.746127153323677,-6.580300769219951
1621785117858.802,-0.02582205741844488,0.28408139587788345,1.170177942581555,-0.686,-5.776,-6.6
1621785117863.043,-0.044,0.258,1.152,-0.8302379502361317,-5.883994798054557,-6.815989596109114
1621785117868.405,-0.045,0.225,1.115,-1.0126050045816593,-6.020537872700359,-7.089075745400719
1621785117873.762,-0.049,0.188,1.077,-1.1947976880242475,-6.156950391203214,-7.361900782406429
1621785117876.12,-0.041951564352823136,0.17434365593359483,1.0567357475143664,-1.275,-6.217,-7.482
1621785117879.115,-0.033,0.157,1.031,-1.315811849649607,-6.293761010830325,-7.562060692291357
1621785117884.464,-0.009,0.126,0.984,-1.388705599207192,-6.43086329723225,-7.705056515891555
1621785117889.788,0.035,0.094,0.934,-1.4612566716217172,-6.567321058965102,-7.847380109011113
1621785117893.365,0.061894905920146855,0.0751735658558972,0.9023984855438275,-1.51,-6.659,-7.943
1621785117895.108,0.075,0.066,0.887,-1.5040092023667293,-6.674941614041076,-7.947061557717471
1621785117900.423,0.113,0.037,0.838,-1.4857397451214656,-6.723556949422541,-7.959447630426125
1621785117905.734,0.15,0.003,0.784,-1.4674853928429197,-6.772132090231552,-7.971823462479376
1621785117910.53,0.17259292483209127,-0.015074339865673015,0.7351992823626828,-1.451,-6.816,-7.983
1621785117911.041,0.175,-0.017,0.73,-1.4533582257719462,-6.813641774228054,-7.97449247664551
1621785117916.343,0.195,-0.038,0.689,-1.4778272124367111,-6.789172787563289,-7.886218284247308
1621785117921.64,0.213,-0.056,0.632,-1.5022725379733295,-6.764727462026671,-7.7980294516152036
1621785117926.933,0.232,-0.089,0.581,-1.526700962704129,-6.7402990372958715,-7.709901590244598
1621785117927.648,0.23362223556027517,-0.09319077519737753,0.5736999399787617,-1.53,-6.737,-7.698
1621785117932.221,0.244,-0.12,0.527,-1.5141977693572604,-6.70539553871452,-7.574528333452492
1621785117937.505,0.258,-0.136,0.48,-1.4959388575105457,-6.6688777150210905,-7.431861242582398
1621785117942.785,0.267,-0.169,0.424,-1.4776934439122043,-6.632386887824408,-7.289299621076714
1621785117944.722,0.26773439163234136,-0.1767111121395844,0.4067417966399778,-1.471,-6.619,-7.237
1621785117948.06,0.269,-0.19,0.377,-1.4594331474126436,-6.57096815451013,-7.162109530705591
1621785117953.33,0.262,-0.215,0.318,-1.4411721893236598,-6.495138752276214,-7.043877564773526
1621785117958.596,0.241,-0.234,0.271,-1.422925612606283,-6.419369069297277,-6.925738712128816
1621785117961.749,0.2230267198589785,-0.2423875307324767,0.2392472050841954,-1.412,-6.374,-6.855
1621785117963.859,0.211,-0.248,0.218,-1.436354162473041,-6.374,-6.845183781452193
1621785117969.116,0.175,-0.251,0.168,-1.497036664270309,-6.374,-6.8207250179726815
1621785117974.369,0.141,-0.267,0.115,-1.5576712580877068,-6.374,-6.7962855643422
1621785117978.729,0.11690663379233346,-0.27281564011909193,0.0684748790472646,-1.608,-6.374,-6.776
1621785117979.617,0.112,-0.274,0.059,-1.6090485800778436,-6.373003848926048,-6.784231353611071
1621785117984.861,0.093,-0.284,0.014,-1.6152414588438806,-6.367120614098313,-6.832845451924463
1621785117990.1,0.075,-0.288,-0.024,-1.6214282831195042,-6.361243131036471,-6.8814120224881075
1621785117995.336,0.061,-0.298,-0.065,-1.6276113593772523,-6.35536920859161,-6.929949171111431
1621785117995.665,0.061251598152209416,-0.2997611870654659,-0.06726438336988474,-1.628,-6.355,-6.933
1621785118000.568,0.065,-0.326,-0.101,-1.5597803298593544,-6.209851765658201,-6.953030456339168
1621785118005.795,0.068,-0.358,-0.126,-1.4870563883147105,-6.055119975137683,-6.974383443431
1621785118011.018,0.073,-0.386,-0.147,-1.4143834000664923,-5.900496595886154,-6.995721469767711
1621785118012.555,0.07093867240492117,-0.39984034242410066,-0.1540674088974131,-1.393,-5.855,-7.002
1621785118016.237,0.066,-0.433,-0.171,-1.3435873791333846,-5.717694133167105,-6.944060422435163
1621785118021.45,0.058,-0.475,-0.185,-1.2736325799857933,-5.523306461199461,-6.86203377741697
1621785118026.66,0.042,-0.515,-0.204,-1.2037170960119454,-5.329028036705759,-6.780053232049405
1621785118029.396,0.022550703564727957,-0.5286670731707317,-0.2103078799249531,-1.167,-5.227,-6.737
1621785118031.865,0.005,-0.541,-0.216,-1.1409810308738881,-5.206861023896739,-6.716861023896739
1621785118037.065,-0.024,-0.557,-0.222,-1.0861824524681667,-5.164446305017734,-6.674446305017733
1621785118042.26,-0.072,-0.576,-0.227,-1.0314353305424735,-5.1220714140357,-6.6320714140357
1621785118046.192,-0.1075936706479827,-0.5669122543026427,-0.227,-0.99,-5.09,-6.6
1621785118047.452,-0.119,-0.564,-0.227,-0.987065732695784,-5.117236019592979,-6.6206151087526965
1621785118052.638,-0.166,-0.576,-0.229,-0.9749886728089101,-5.229335908799347,-6.7054641961630415
1621785118057.821,-0.204,-0.559,-0.232,-0.9629184354772873,-5.3413724706979995,-6.790265350749315
1621785118062.939,-0.22277962185864492,-0.5461507850440851,-0.24287241265500495,-0.951,-5.452,-6.874
1621785118062.999,-0.223,-0.546,-0.243,-0.9506476262862488,-5.454081881431244,-6.876398298643592
1621785118068.172,-0.23,-0.529,-0.239,-0.9202962172591206,-5.633402961295603,-7.082973704981291
1621785118073.342,-0.223,-0.511,-0.241,-0.8899634296071094,-5.812614023035547,-7.289422371959776
1621785118078.506,-0.201,-0.501,-0.236,-0.8596650198783911,-5.991621974391955,-7.495637058582788
1621785118079.642,-0.19439531582682754,-0.500119375443577,-0.23754109297374024,-0.853,-6.031,-7.541
1621785118083.666,-0.171,-0.497,-0.243,-0.8720867353669799,-6.142379557014908,-7.588354432049723
1621785118088.821,-0.14,-0.497,-0.244,-0.8965386475908471,-6.285067297966842,-7.649019935795013
1621785118093.972,-0.105,-0.496,-0.244,-0.920970873217139,-6.427640158900013,-7.709636596842522
1621785118096.297,-0.08921311863604073,-0.49284262372720816,-0.24264683874023205,-0.932,-6.492,-7.737
1621785118099.127,-0.07,-0.489,-0.241,-0.8970070198578443,-6.523595603429325,-7.717125346229941
1621785118104.284,-0.04,-0.494,-0.239,-0.8332371363669672,-6.581174236095845,-7.680906528907452
1621785118109.438,-0.017,-0.482,-0.23,-0.769503480618451,-6.638720158276544,-7.644708287535722
1621785118112.956,-0.003332163520819503,-0.4772162572322868,-0.2265830408802049,-0.726,-6.678,-7.62
1621785118114.586,0.003,-0.475,-0.225,-0.6990248754756901,-6.689574780704977,-7.598812265828179
1621785118119.732,0.009,-0.457,-0.208,-0.6138568594895605,-6.726119602109934,-7.531916660544527
1621785118124.872,0.024,-0.447,-0.182,-0.5287858181871612,-6.762622812559691,-7.465097224467007
1621785118129.572,0.02949061177924609,-0.4360187764415078,-0.15912245091980795,-0.451,-6.796,-7.404
1621785118130.008,0.03,-0.435,-0.157,-0.4541053089130211,-6.792394683719628,-7.401684176403848
1621785118135.14,0.038,-0.408,-0.131,-0.49065267361162274,-6.749962573857692,-7.3744285145947215
1621785118140.267,0.052,-0.394,-0.099,-0.527167003109022,-6.707568818424271,-7.347197489206831
1621785118145.389,0.051,-0.379,-0.073,-0.5636430813208186,-6.665219473381761,-7.319994990201423
1621785118146.141,0.05173469095764975,-0.37620817436093096,-0.06947348340328119,-0.569,-6.659,-7.316
1621785118150.508,0.056,-0.36,-0.049,-0.6649393155826118,-6.5680823014864504,-7.3107140872957235
1621785118155.623,0.065,-0.354,-0.026,-0.7773128047519134,-6.461590620290198,-7.304522710481988
1621785118160.733,0.065,-0.351,-0.007,-0.8895736576139956,-6.355205679836875,-7.2983375395253995
1621785118162.664,0.0608388330942133,-0.34646054519368724,0.0017006217120994734,-0.932,-6.315,-7.296
1621785118165.838,0.054,-0.339,0.016,-0.9281475774188769,-6.267807823381242,-7.28097555193362
1621785118170.939,0.044,-0.319,0.045,-0.9219558453104164,-6.191959105052601,-7.256827796710624
1621785118176.036,0.026,-0.305,0.07,-0.9157691509853312,-6.116172099570307,-7.232699688842792
1621785118179.141,0.01014773980154355,-0.300122381477398,0.07609702315325248,-0.912,-6.07,-7.218
1621785118181.129,0.0,-0.297,0.08,-0.9048613971735545,-6.067701127903348,-7.201302928982212
1621785118186.217,-0.014,-0.29,0.099,-0.8865887833801436,-6.061816726851233,-7.158563595024742
1621785118191.301,-0.023,-0.271,0.106,-0.8683310745545599,-6.055937125704011,-7.115859123534395
1621785118195.57,-0.03140551843484113,-0.2575511705042542,0.11692717396529347,-0.853,-6.051,-7.08
1621785118196.38,-0.033,-0.255,0.119,-0.8457654861348091,-6.060153874686568,-7.070846125313432
1621785118201.478,-0.031,-0.244,0.138,-0.8002209825071588,-6.117781613970534,-7.013218386029466
1621785118206.572,-0.03,-0.216,0.154,-0.7547135565809582,-6.175362438611849,-6.955637561388151
1621785118211.661,-0.019,-0.19,0.175,-0.709251932521254,-6.232885309871066,-6.898114690128934
1621785118212.025,-0.018141005329108454,-0.18692193576263863,0.1757158288924096,-0.706,-6.237,-6.894
1621785118216.746,-0.007,-0.147,0.185,-0.677812172774869,-6.304593259162304,-6.809436518324607
1621785118221.827,0.003,-0.12,0.199,-0.6474772429795336,-6.377335182651119,-6.718431728938601
1621785118226.903,0.021,-0.082,0.22,-0.617170008329367,-6.450010694312232,-6.6275100249881005
1621785118228.439,0.022513787958997066,-0.06837590836902642,0.22575239424418883,-0.608,-6.472,-6.6
1621785118231.976,0.026,-0.037,0.239,-0.6036796087552931,-6.467895628317529,-6.538434424762927
1621785118237.044,0.033,-0.007,0.253,-0.5974894733703107,-6.462014999701796,-6.450224995526928
1621785118242.11,0.03,0.024,0.278,-0.5913014254189777,-6.456136354148029,-6.362045312220433
1621785118244.813,0.026794266685970753,0.040028666570146226,0.2844114666280585,-0.588,-6.453,-6.315
1621785118247.169,0.024,0.054,0.29,-0.6050239803851214,-6.438861440019137,-6.288165590240403
1621785118252.226,0.024,0.086,0.298,-0.6415664394211218,-6.408512618107882,-6.230564764980265
1621785118257.278,0.031,0.113,0.311,-0.6780718514531754,-6.378194564047363,-6.173022335844994
1621785118261.143,0.036360729489164086,0.14133528444272445,0.31482909249226004,-0.706,-6.355,-6.129
1621785118262.325,0.038,0.15,0.316,-0.7074513348623165,-6.352097330275368,-6.123339794036965
1621785118267.369,0.042,0.187,0.323,-0.7136452159314056,-6.339709568137189,-6.099183657867518
1621785118272.409,0.045,0.218,0.33,-0.7198343001903734,-6.327331399619253,-6.075046229257544
1621785118277.43,0.040014061287820014,0.2568903219550039,0.33,-0.726,-6.315,-6.051
1621785118277.444,0.04,0.257,0.33,-0.7258291451244439,-6.315017434170976,-6.050982565829025
1621785118282.475,0.056,0.283,0.325,-0.6651255861488518,-6.321211674882771,-6.04478832511723
1621785118287.502,0.066,0.328,0.325,-0.6044721053264398,-6.327400805578935,-6.0385991944210655
1621785118292.526,0.07,0.37,0.328,-0.5438539737886257,-6.333586329205242,-6.0324136707947575
1621785118293.674,0.07160137172876739,0.38029453254207607,0.32891506955929567,-0.53,-6.335,-6.031
1621785118297.545,0.077,0.415,0.332,-0.5671696497001939,-6.297592083314548,-6.05435016455525
1621785118302.56,0.08,0.466,0.332,-0.615327262071142,-6.249125768300197,-6.084603023608794
1621785118307.602,0.094,0.497,0.325,-0.663742752806456,-6.200399921855041,-6.115017883173286
1621785118309.92,0.1004412890719651,0.5140234068330507,0.3199389871577417,-0.686,-6.178,-6.129
1621785118312.64,0.108,0.534,0.314,-0.736843126069595,-6.130501816434983,-6.153585327408653
1621785118317.674,0.12,0.567,0.298,-0.8309446662863662,-6.042591167021947,-6.199088374816104
1621785118322.705,0.127,0.597,0.284,-0.9249868796349117,-5.954735941393701,-6.2445627345603025
1621785118326.183,0.12007976294569125,0.608072379286894,0.27361964441853687,-0.99,-5.894,-6.276
1621785118327.731,0.117,0.613,0.269,-0.9994457403422173,-5.892091769627835,-6.283537509970052
1621785118332.754,0.11,0.635,0.251,-1.0300982106577976,-5.885899351382263,-6.307997562040061
1621785118337.773,0.096,0.653,0.237,-1.0607268431428614,-5.879711748860028,-6.33243859200289
1621785118342.406,0.08768728706317531,0.6668545215613745,0.22406911320938383,-1.089,-5.874,-6.355
1621785118342.789,0.087,0.668,0.223,-1.0917696172357085,-5.876793289177894,-6.355923205745237
1621785118347.801,0.065,0.679,0.215,-1.1280076492509166,-5.913341047962462,-6.368002549750305
1621785118352.808,0.047,0.672,0.208,-1.164210377031125,-5.949853200766434,-6.380070125677042
1621785118357.812,0.028,0.661,0.197,-1.200390157058584,-5.986342209683016,-6.3921300523528615
1621785118358.588,0.025206290291072474,0.6575854659113108,0.19622396952529791,-1.206,-5.992,-6.394
1621785118362.811,0.01,0.639,0.192,-1.3446434987750657,-6.0406560203248345,-6.558279466473097
1621785118367.807,-0.002,0.606,0.188,-1.5086544778150803,-6.098214590327556,-6.752617003901642
1621785118372.799,0.002,0.571,0.182,-1.6725452318301426,-6.15573096815171,-6.946812086017603
1621785118374.732,6.25030590768929e-05,0.5586000195780921,0.17967500367089226,-1.736,-6.178,-7.022
1621785118377.787,-0.003,0.539,0.176,-1.8010762909730436,-6.21158164286364,-7.193133569847479
1621785118382.771,-0.002,0.51,0.178,-1.9072347857727645,-6.266363140180115,-7.47230255617211
1621785118387.752,-0.007,0.452,0.173,-2.013330877224901,-6.321112435186028,-7.7513074380666485
1621785118390.835,-0.017530560188364564,0.416072206416168,0.17423888943392524,-2.079,-6.355,-7.924
1621785118392.729,-0.024,0.394,0.175,-2.083599185236981,-6.366556927005746,-8.001478582069133
1621785118397.702,-0.037,0.351,0.166,-2.095674566017086,-6.396900191530113,-8.204902304441674
1621785118402.67,-0.037,0.286,0.168,-2.107738090171161,-6.427213662481379,-8.40812628826802
1621785118406.896,-0.03529768402419236,0.2357816787136746,0.16033957810886562,-2.118,-6.453,-8.581
1621785118407.635,-0.035,0.227,0.159,-2.107620607150477,-6.457982108567771,-8.573757490322777
1621785118412.596,-0.019,0.182,0.152,-2.0379446036148616,-6.491426590264867,-8.52513912341126
1621785118417.554,0.014,0.126,0.131,-1.968309747325429,-6.524851321283794,-8.476549468133744
1621785118422.508,0.051,0.077,0.112,-1.898729754030906,-6.558249718065165,-8.427998095034898
1621785118422.916,0.05512083847102343,0.07395057953144266,0.11092858199753391,-1.893,-6.561,-8.424
1621785118427.458,0.101,0.04,0.099,-1.7395063407181055,-6.524616317799847,-8.200865699006876
1621785118432.403,0.15,0.024,0.079,-1.5723909854851033,-6.4850037891520245,-7.9579294881589
1621785118437.345,0.185,0.0,0.072,-1.4053828877005348,-6.4454166844919785,-7.7151491978609625
1621785118438.895,0.19316147532878472,-0.002825126075348561,0.06791926233560763,-1.353,-6.433,-7.639
1621785118442.283,0.211,-0.009,0.059,-1.2509788635319343,-6.355846515546025,-7.45557449839179
1621785118447.217,0.215,-0.016,0.049,-1.1023986827998162,-6.243482753867361,-7.18843971511717
1621785118452.148,0.204,-0.023,0.045,-0.9539140756624291,-6.131191269719713,-6.921476765201409
1621785118454.835,0.1947288043208959,-0.020818542193151976,0.046090728903424014,-0.873,-6.07,-6.776
1621785118457.075,0.187,-0.019,0.047,-0.8218571450508276,-6.0423856761155985,-6.7110499831086265
1621785118461.996,0.161,-0.01,0.044,-0.7094989404502319,-5.981718436165965,-6.568358158533215
1621785118466.915,0.127,0.005,0.049,-0.5971909032277878,-5.921078283836492,-6.425730045146034
1621785118470.734,0.09748092967818832,0.01742908224076281,0.05288408820023838,-0.51,-5.874,-6.315
1621785118471.831,0.089,0.021,0.054,-0.49844730077120825,-5.886244477625725,-6.315
1621785118476.742,0.063,0.044,0.056,-0.4467377892030848,-5.94105036713206,-6.315
1621785118481.649,0.037,0.063,0.056,-0.3950694087403599,-5.995812662592552,-6.315
1621785118486.552,0.021,0.08,0.061,-0.34344215938303346,-6.050531364007204,-6.315
1621785118486.594,0.020940009965122075,0.08022282012954658,0.06103428001993024,-0.343,-6.051,-6.315
1621785118491.452,0.014,0.106,0.065,-0.29478364278989366,-6.156338920529086,-6.375500779429242
1621785118496.347,0.01,0.129,0.07,-0.24619896281891004,-6.262482520720471,-6.436463721813214
1621785118501.24,0.016,0.145,0.072,-0.19763366825639364,-6.368583769350682,-6.497402339831149
1621785118502.412,0.017198991059387644,0.15051535887318315,0.07439798211877528,-0.186,-6.394,-6.512
1621785118506.128,0.021,0.168,0.082,-0.16291869641917614,-6.442517842220916,-6.578888675683204
1621785118511.011,0.033,0.175,0.08,-0.1325869518120764,-6.506276407415431,-6.666788833524187
1621785118515.892,0.04,0.19,0.089,-0.1022673392962149,-6.570009470458976,-6.754653833059948
1621785118518.189,0.04509592278904865,0.19509592278904866,0.09455918849714398,-0.088,-6.6,-6.796
1621785118520.85,0.051,0.201,0.101,-0.12977437778044967,-6.603112600697367,-6.833023566189732
1621785118525.878,0.066,0.208,0.103,-0.20870112420343873,-6.608993417097511,-6.902974329686185
1621785118530.904,0.079,0.211,0.106,-0.28760104304436696,-6.614872234579776,-6.972901316580498
1621785118534.433,0.0874310294546515,0.21240517157577524,0.10389224263633712,-0.343,-6.619,-7.022
1621785118535.927,0.091,0.213,0.103,-0.3638151180817918,-6.622684091695892,-7.032775968210485
1621785118540.948,0.099,0.209,0.099,-0.4337748694251697,-6.6350663485708266,-7.068994069569667
1621785118545.966,0.117,0.197,0.105,-0.5036938001414875,-6.647441380556015,-7.105191038126345
1621785118550.653,0.12354232997419795,0.18858843289031693,0.10126152572902974,-0.569,-6.659,-7.139
1621785118550.981,0.124,0.188,0.101,-0.5751559060341968,-6.657805268236784,-7.140599725581255
1621785118555.994,0.129,0.171,0.099,-0.6692729712614215,-6.639539127288079,-7.165057778715962
1621785118561.005,0.143,0.15,0.091,-0.7633533669069087,-6.6212801031331985,-7.189506302584361
1621785118566.012,0.162,0.143,0.087,-0.8573604233889207,-6.603035312565965,-7.213935767920147
1621785118566.845,0.16532796878810047,0.13917283589368445,0.08566881248475981,-0.873,-6.6,-7.218
1621785118571.018,0.182,0.12,0.079,-0.9489069240529273,-6.546813515799649,-7.17230093347834
1621785118576.021,0.201,0.103,0.068,-1.0399081928584375,-6.483050722010755,-7.11751445531992
1621785118581.022,0.201,0.084,0.058,-1.130873935109661,-6.419312820977584,-7.062749365597245
1621785118583.008,0.20139744967754544,0.07684590580418214,0.051640805159273016,-1.167,-6.394,-7.041
1621785118586.019,0.202,0.066,0.042,-1.179873889956279,-6.350154142902528,-7.006296470552639
1621785118591.014,0.197,0.049,0.024,-1.2012301629324822,-6.277419010302416,-6.948727386877657
1621785118596.007,0.188,0.03,0.017,-1.222579128908791,-6.204708763861364,-6.8911780003328245
1621785118599.146,0.1785643622486423,0.0174191496648564,0.008193404765399481,-1.236,-6.159,-6.855
1621785118600.997,0.173,0.01,0.003,-1.2325529574007001,-6.153369830421143,-6.827883264885508
1621785118605.985,0.155,-0.005,-0.012,-1.2232643096367466,-6.138198372406686,-6.754812569142407
1621785118610.97,0.138,-0.012,-0.028,-1.2139815721278433,-6.1230365678088114,-6.6817883674057015
1621785118615.256,0.12165683488486036,-0.0137203331700147,-0.04004233219010289,-1.206,-6.11,-6.619
1621785118615.953,0.119,-0.014,-0.042,-1.1949544378338999,-6.112122480573094,-6.614365195483244
1621785118620.933,0.101,-0.028,-0.056,-1.1160061467945603,-6.1272929364983,-6.5812378733608545
1621785118625.91,0.082,-0.045,-0.07,-1.0371120386109762,-6.14245298081593,-6.548133286789703
1621785118630.885,0.061,-0.052,-0.077,-0.9582450218552695,-6.157607819329772,-6.515040067994171
1621785118631.342,0.05879386201816843,-0.053011146575006135,-0.07782730174318683,-0.951,-6.159,-6.512
1621785118635.857,0.037,-0.063,-0.086,-0.9043267754245663,-6.186554072339714,-6.536742432305049
1621785118640.827,0.023,-0.065,-0.096,-0.8529491280616667,-6.216885454517811,-6.563978775485381
1621785118645.794,0.009,-0.072,-0.099,-0.8016017666823773,-6.2471989570188375,-6.591199063445487
1621785118647.4,0.0060889511727393415,-0.07458759895756503,-0.10191104882726067,-0.785,-6.257,-6.6
1621785118650.759,0.0,-0.08,-0.108,-0.772637915543576,-6.293876726514078,-6.676058248435287
1621785118655.721,-0.007,-0.096,-0.119,-0.7543773584905661,-6.348348896706108,-6.7884070994563475
1621785118660.682,-0.003,-0.103,-0.124,-0.7361203953279425,-6.402810346140375,-6.900733838914523
1621785118663.432,0.004211977935382191,-0.10854767533490937,-0.13065721040189127,-0.726,-6.433,-6.963
1621785118665.639,0.01,-0.113,-0.136,-0.723253072820918,-6.441103435178292,-6.992529467175132
1621785118670.593,0.031,-0.134,-0.143,-0.7170870721220316,-6.459293137240007,-7.05881397468816
1621785118675.545,0.049,-0.148,-0.155,-0.7109238061957793,-6.477474771722451,-7.125069083395372
1621785118679.501,0.061613797800914666,-0.15903707307580034,-0.16367198598812885,-0.706,-6.492,-7.178
1621785118680.563,0.065,-0.162,-0.166,-0.6904619243046055,-6.489421340629275,-7.171520291837665
1621785118685.536,0.084,-0.173,-0.182,-0.6177044383644931,-6.477346694026448,-7.141178872169022
1621785118690.506,0.098,-0.187,-0.188,-0.544986244110047,-6.465278568171454,-7.110853837969296
1621785118695.474,0.108,-0.195,-0.192,-0.4723001975984192,-6.453215777473781,-7.08054221006232
1621785118695.563,0.10808947885939037,-0.1951252704031465,-0.19205368731563421,-0.471,-6.453,-7.08
1621785118700.44,0.113,-0.202,-0.195,-0.40835833891493634,-6.4411406563965174,-6.9997213663764235
1621785118705.403,0.115,-0.215,-0.202,-0.34460972416732627,-6.429071743895756,-6.918024112525117
1621785118710.363,0.105,-0.218,-0.197,-0.2809018754186202,-6.4170105492297385,-6.836379102478231
1621785118711.601,0.10275265905062045,-0.2192485227496553,-0.19824852274965532,-0.265,-6.414,-6.816
1621785118715.321,0.096,-0.223,-0.202,-0.22387856979492263,-6.418414164824274,-6.779525059083632
1621785118720.277,0.087,-0.222,-0.197,-0.16909317679347413,-6.424295082717085,-6.730930105969352
1621785118725.23,0.08,-0.213,-0.195,-0.11434286803384922,-6.430172234504841,-6.682366272775787
1621785118727.613,0.07422283600493218,-0.21396286066584463,-0.19114855733662145,-0.088,-6.433,-6.659
1621785118730.18,0.068,-0.215,-0.187,-0.08494953196817688,-6.43926148701269,-6.662050468031823
1621785118735.13,0.07,-0.204,-0.185,-0.07906706674607174,-6.451336020889642,-6.667932933253928
1621785118740.076,0.063,-0.197,-0.182,-0.07318924366668195,-6.463401026157864,-6.673810756333318
1621785118743.601,0.06442628537561121,-0.1955737146243888,-0.1741554304341384,-0.069,-6.472,-6.678
1621785118745.019,0.065,-0.195,-0.171,-0.069,-6.468535242290749,-6.683241556534508
1621785118749.96,0.058,-0.185,-0.169,-0.069,-6.456462279735683,-6.701505781938326
1621785118754.899,0.061,-0.182,-0.161,-0.069,-6.444394089574156,-6.719762787567303
1621785118759.562,0.06761291918092789,-0.173497675338807,-0.161,-0.069,-6.433,-6.737
1621785118759.835,0.068,-0.173,-0.161,-0.07033596837944664,-6.43334255599473,-6.735321475625824
1621785118764.769,0.063,-0.157,-0.147,-0.09448616600790515,-6.439534914361001,-6.704978919631094
1621785118769.7,0.056,-0.154,-0.147,-0.11862082912032355,-6.445723289518032,-6.674655881361645
1621785118774.63,0.054,-0.148,-0.141,-0.1427507123816527,-6.451910439072219,-6.644338848546129
1621785118775.498,0.05241900904016203,-0.14958099095983796,-0.1401216716889789,-0.147,-6.453,-6.639
1621785118779.572,0.045,-0.157,-0.136,-0.15695218069488623,-6.457848498287253,-6.613991956202594
1621785118784.512,0.04,-0.147,-0.124,-0.1690198036457059,-6.463727596647908,-6.583668185710791
1621785118789.449,0.028,-0.136,-0.117,-0.18108026975776853,-6.469603208343528,-6.553362399070223
1621785118791.463,0.02310396676229103,-0.13028796122267286,-0.11618399446038184,-0.186,-6.472,-6.541
1621785118794.385,0.016,-0.122,-0.115,-0.18966753485521679,-6.4756675348552175,-6.558970920790562
1621785118799.317,0.012,-0.12,-0.108,-0.19585751493795006,-6.481857514937951,-6.589301823195956
1621785118804.248,0.007,-0.106,-0.108,-0.20204657576221846,-6.488046575762219,-6.619628221234871
1621785118807.398,0.002525687391627446,-0.10855675006192718,-0.10224731236066387,-0.206,-6.492,-6.639
1621785118809.176,0.0,-0.11,-0.099,-0.21035773243326172,-6.48976526541884,-6.656542666462105
1621785118814.102,-0.002,-0.108,-0.099,-0.22243050015342128,-6.483574102485425,-6.705143295489414
1621785118819.025,0.005,-0.106,-0.096,-0.23449548941393064,-6.477386928505677,-6.753712611230439
1621785118823.311,0.0032580741181723475,-0.09990325941360322,-0.096,-0.245,-6.472,-6.796
1621785118823.946,0.003,-0.099,-0.096,-0.245,-6.473598918071586,-6.798358404155589
1621785118828.865,0.002,-0.099,-0.098,-0.245,-6.48598453948885,-6.8166271957460545
1621785118833.781,0.005,-0.098,-0.098,-0.245,-6.498362784121471,-6.83488510657917
1621785118838.695,0.016,-0.108,-0.098,-0.245,-6.510736110897662,-6.853135763574053
1621785118839.197,0.016,-0.10708008948545861,-0.09810221227939349,-0.245,-6.512,-6.855
1621785118843.606,0.016,-0.099,-0.099,-0.22331819231302047,-6.517281465975033,-6.871400341711946
1621785118848.517,0.017,-0.099,-0.096,-0.19916673080179167,-6.523164514291871,-6.889668754906337
1621785118853.423,0.021,-0.103,-0.098,-0.1750404820909077,-6.529041421029137,-6.907918096879954
1621785118855.058,0.02500019910403186,-0.10400004977600796,-0.09633325037332006,-0.167,-6.531,-6.914
1621785118858.328,0.033,-0.106,-0.093,-0.16287069124992293,-6.510766387124622,-6.909870691249923
1621785118863.23,0.038,-0.112,-0.091,-0.1566799654683357,-6.480431830794845,-6.903679965468336
1621785118868.129,0.037,-0.108,-0.094,-0.15049324782635506,-6.45011691434914,-6.897493247826355
1621785118870.895,0.03587055774310921,-0.1068705577431092,-0.0934352788715546,-0.147,-6.433,-6.894
1621785118873.027,0.035,-0.106,-0.093,-0.1443030480837528,-6.430437895679565,-6.886043991847071
1621785118877.922,0.037,-0.11,-0.089,-0.13811114542478614,-6.424555588153547,-6.867777879003119
1621785118882.814,0.031,-0.106,-0.08,-0.13192325746579783,-6.418677094592508,-6.849523609524104
1621785118886.706,0.0270220580896297,-0.10361323485377781,-0.08159117676414812,-0.127,-6.414,-6.835
1621785118887.706,0.026,-0.103,-0.082,-0.1295332426247758,-6.414,-6.827590265322531
1621785118892.594,0.023,-0.099,-0.08,-0.1419155791947554,-6.414,-6.79137193085534
1621785118897.479,0.014,-0.098,-0.073,-0.1542904941554827,-6.414,-6.755175304595213
1621785118902.362,0.005,-0.087,-0.073,-0.16666046137670854,-6.414,-6.7189931504731275
1621785118902.496,0.004945078031212485,-0.08697253901560624,-0.07297253901560624,-0.167,-6.414,-6.718
1621785118907.243,0.003,-0.086,-0.072,-0.1847660642103796,-6.419721274915207,-6.729743669562793
1621785118912.121,0.0,-0.08,-0.072,-0.2030237265560873,-6.425600861094333,-6.74181229382521
1621785118916.997,-0.009,-0.073,-0.066,-0.22127316514116682,-6.4314777989437655,-6.753875482042466
1621785118918.26,-0.007963534361851331,-0.07351823281907433,-0.067554698457223,-0.226,-6.433,-6.757
1621785118921.871,-0.005,-0.075,-0.072,-0.226,-6.4465366776800535,-6.770536677680053
1621785118926.743,-0.007,-0.075,-0.068,-0.226,-6.464799432267672,-6.7887994322676715
1621785118931.613,-0.009,-0.084,-0.066,-0.226,-6.483055780476833,-6.807055780476833
1621785118933.999,-0.007038633284832672,-0.07811589985449802,-0.066,-0.226,-6.492,-6.816
1621785118936.479,-0.005,-0.072,-0.066,-0.2289983687800028,-6.492,-6.822154546443164
1621785118941.344,0.003,-0.077,-0.066,-0.2348802839876338,-6.492,-6.8342279513430375
1621785118946.205,0.009,-0.07,-0.066,-0.24075747642498718,-6.492,-6.8462916621355
1621785118949.714,0.009722043604943232,-0.0721661308148297,-0.06527795639505676,-0.245,-6.492,-6.855
1621785118951.065,0.01,-0.073,-0.065,-0.24672212020293194,-6.490277879797068,-6.853277879797068
1621785118955.923,0.014,-0.077,-0.065,-0.2529155902766971,-6.4840844097233035,-6.847084409723303
1621785118960.778,0.023,-0.072,-0.063,-0.2591050141616608,-6.47789498583834,-6.840894985838339
1621785118965.402,0.023952812154140257,-0.07485843646242077,-0.06490562430828051,-0.265,-6.472,-6.835
1621785118965.631,0.024,-0.075,-0.065,-0.2641373166435442,-6.471722186715718,-6.834429751679631
1621785118970.481,0.024,-0.07,-0.061,-0.24586737541113934,-6.465838646318842,-6.82235301086499
1621785118975.328,0.028,-0.073,-0.065,-0.22760847063958473,-6.4599586600364765,-6.810283565338031
1621785118980.174,0.028,-0.068,-0.063,-0.20935232498324263,-6.45407956228274,-6.798215943632991
1621785118981.064,0.027081262287644303,-0.06873499016988456,-0.063,-0.206,-6.453,-6.796
1621785118985.017,0.023,-0.072,-0.063,-0.18603234366707253,-6.457802347725641,-6.805857450594736
1621785118989.859,0.024,-0.068,-0.056,-0.16157591083637726,-6.463684274608973,-6.817930879460523
1621785118994.697,0.023,-0.061,-0.052,-0.13713797571102992,-6.4695617526770945,-6.82999517654772
1621785118996.704,0.025905240306946686,-0.06183006865912762,-0.052,-0.127,-6.472,-6.835
1621785118999.533,0.03,-0.063,-0.052,-0.127,-6.472,-6.835
1621785119004.367,0.028,-0.059,-0.049,-0.127,-6.472,-6.835
1621785119009.198,0.031,-0.059,-0.049,-0.127,-6.472,-6.835
1621785119012.319,0.031,-0.06287785642062689,-0.049,-0.127,-6.472,-6.835
1621785119014.027,0.031,-0.065,-0.049,-0.12491837885241794,-6.472,-6.826454397394137
1621785119018.853,0.03,-0.058,-0.044,-0.1190368172137309,-6.472,-6.802309039087948
1621785119023.678,0.03,-0.056,-0.042,-0.11315644575294412,-6.472,-6.7781685667752445
1621785119027.909,0.024735456432585692,-0.049858032504683306,-0.03761288036048807,-0.108,-6.472,-6.757
1621785119028.5,0.024,-0.049,-0.037,-0.1094809661987295,-6.471278503646773,-6.757
1621785119033.32,0.024,-0.044,-0.037,-0.12155808956160301,-6.465394776880245,-6.757
1621785119038.137,0.024,-0.031,-0.037,-0.13362726060701122,-6.459514924319661,-6.757
1621785119042.952,0.017,-0.026,-0.031,-0.14569153791859463,-6.453637455885813,-6.757
1621785119043.474,0.016674429223744295,-0.02730228310502283,-0.03024033485540335,-0.147,-6.453,-6.757
1621785119047.764,0.014,-0.038,-0.024,-0.15776451460885957,-6.458244250706881,-6.76224425070688
1621785119052.574,0.007,-0.028,-0.026,-0.16983454288407163,-6.46412452089224,-6.76812452089224
1621785119057.382,0.012,-0.031,-0.023,-0.18189967012252592,-6.470002403393026,-6.774002403393025
1621785119059.016,0.00961996443992888,-0.03304003048006096,-0.02163997967995936,-0.186,-6.472,-6.776
1621785119062.188,0.005,-0.037,-0.019,-0.1941776267132449,-6.472,-6.7841776267132445
1621785119066.991,0.01,-0.033,-0.021,-0.20656051236054068,-6.472,-6.79656051236054
1621785119071.792,0.003,-0.024,-0.017,-0.21893836252340715,-6.472,-6.808938362523407
1621785119074.531,0.005283417289981173,-0.024,-0.017,-0.226,-6.472,-6.816
1621785119076.59,0.007,-0.024,-0.017,-0.226,-6.469474651327713,-6.816
1621785119081.386,0.007,-0.028,-0.014,-0.226,-6.463592750768261,-6.816
1621785119086.179,0.01,-0.023,-0.016,-0.226,-6.457714443306281,-6.816
1621785119090.023,0.009197829631139189,-0.02941736295088649,-0.012791318524556755,-0.226,-6.453,-6.816
1621785119090.971,0.009,-0.031,-0.012,-0.22716453838018721,-6.450609631745932,-6.813548340252237
1621785119095.759,0.009,-0.026,-0.012,-0.233046311934715,-6.43853651760769,-6.80116565908481
1621785119100.547,0.007,-0.023,-0.01,-0.23892808548924283,-6.426463403469449,-6.788782977917383
1621785119105.331,0.003,-0.024,-0.01,-0.2448047606269632,-6.414400754502549,-6.776411030259025
1621785119105.49,0.002966763669780977,-0.02396676366978098,-0.010132945320876092,-0.245,-6.414,-6.776
1621785119110.113,0.002,-0.023,-0.014,-0.25667669101603263,-6.408011953325111,-6.764323308983967
1621785119114.892,0.005,-0.026,-0.009,-0.26874741485627546,-6.401821838535243,-6.752252585143724
1621785119119.669,-0.005,-0.026,-0.009,-0.28081258893843086,-6.395634569775163,-6.740187411061569
1621785119120.931,-0.006321386573955724,-0.026,-0.00847144537041771,-0.284,-6.394,-6.737
1621785119124.444,-0.01,-0.026,-0.007,-0.27967067281047614,-6.4028865137048125,-6.737
1621785119129.216,-0.017,-0.024,-0.009,-0.27379012873497693,-6.414957104175573,-6.737
1621785119133.987,-0.019,-0.021,-0.003,-0.26791078808607666,-6.427025224454895,-6.737
1621785119136.349,-0.02246862996158771,-0.023477592829705504,-0.003,-0.265,-6.433,-6.737
1621785119138.754,-0.026,-0.026,-0.003,-0.2679683262224619,-6.433,-6.752310314200066
1621785119143.52,-0.031,-0.017,0.0,-0.27385133784834015,-6.433,-6.7826542689019655
1621785119148.282,-0.03,-0.016,0.003,-0.2797292264746467,-6.433,-6.8129717997113355
1621785119151.742,-0.028546536075073074,-0.014546536075073073,-0.0013603917747807802,-0.284,-6.433,-6.835
1621785119153.043,-0.028,-0.014,-0.003,-0.28569314354705466,-6.4346931435470545,-6.8383016299167565
1621785119157.801,-0.024,-0.017,0.0,-0.29188523860964605,-6.4408852386096465,-6.85037621528881
1621785119162.557,-0.023,-0.014,-0.002,-0.2980744741691555,-6.447074474169155,-6.862445224629853
1621785119167.11,-0.02108413375109148,-0.0025048025065488727,-8.413375109147885e-05,-0.304,-6.453,-6.874
1621785119167.31,-0.021,-0.002,0.0,-0.30426064540767617,-6.453,-6.874
1621785119172.062,-0.019,-0.012,0.0,-0.31045503150658776,-6.453,-6.874
1621785119176.811,-0.021,-0.014,-0.002,-0.31664559862516706,-6.453,-6.874
1621785119181.557,-0.014,-0.017,0.0,-0.32283202851505316,-6.453,-6.874
1621785119182.453,-0.014,-0.016811175138917472,-0.0003776497221650545,-0.324,-6.453,-6.874
1621785119186.302,-0.014,-0.016,-0.002,-0.324,-6.453,-6.859425816425737
1621785119191.043,-0.014,-0.012,0.0,-0.324,-6.453,-6.841474778062891
1621785119195.782,-0.016,-0.009,-0.002,-0.324,-6.453,-6.823531134947324
1621785119197.771,-0.014320812078116144,-0.009,-0.0011604060390580718,-0.324,-6.453,-6.816
1621785119200.52,-0.012,-0.009,0.0,-0.3204050826894834,-6.453,-6.816
1621785119205.255,-0.014,-0.007,0.0,-0.3142132686290786,-6.453,-6.816
1621785119209.987,-0.016,-0.014,-0.002,-0.30802496647723643,-6.453,-6.816
1621785119213.065,-0.013397130174460618,-0.010746412718075771,0.0025550221946939195,-0.304,-6.453,-6.816
1621785119214.717,-0.012,-0.009,0.005,-0.304,-6.453,-6.816
1621785119219.444,-0.016,-0.012,0.005,-0.304,-6.453,-6.816
1621785119224.169,-0.009,-0.009,0.005,-0.304,-6.453,-6.816
1621785119228.335,-0.017820427995451256,0.0007024707949963814,0.003235914400909749,-0.304,-6.453,-6.816
1621785119228.892,-0.019,0.002,0.003,-0.30473094170403586,-6.453,-6.816
1621785119233.614,-0.019,-0.009,0.01,-0.3109260089686099,-6.453,-6.816
1621785119238.332,-0.024,0.0,0.002,-0.31711595131326076,-6.453,-6.816
1621785119243.047,-0.019,-0.002,0.009,-0.32330204996796924,-6.453,-6.816
1621785119243.579,-0.019,-0.002,0.009112878159966845,-0.324,-6.453,-6.816
1621785119247.76,-0.019,-0.002,0.01,-0.33471187990184287,-6.458218608157308,-6.821218608157308
1621785119252.471,-0.021,0.0,0.009,-0.3467817446951836,-6.464098798697654,-6.827098798697653
1621785119257.181,-0.016,-0.002,0.009,-0.35884910744358367,-6.469977770293029,-6.832977770293028
1621785119258.801,-0.016344262295081968,-0.0030327868852459017,0.00762295081967213,-0.363,-6.472,-6.835
1621785119261.887,-0.017,-0.005,0.005,-0.3668584258470832,-6.472,-6.835
1621785119266.591,-0.012,-0.002,0.005,-0.37274008322220975,-6.472,-6.835
1621785119271.293,-0.007,-0.003,0.005,-0.37861899330045146,-6.472,-6.835
1621785119273.997,-0.004698134774250533,-0.002424533693562633,0.006150932612874734,-0.382,-6.472,-6.835
1621785119275.992,-0.003,-0.002,0.007,-0.382,-6.472,-6.8401279125901135
1621785119280.689,-0.01,0.0,0.009,-0.382,-6.472,-6.852201821575695
1621785119285.383,-0.003,0.0,0.005,-0.382,-6.472,-6.864268199665293
1621785119289.169,-0.0005793006556353416,-0.0024206993443646584,0.005,-0.382,-6.472,-6.874
1621785119290.075,0.0,-0.003,0.005,-0.382,-6.472,-6.874
1621785119294.766,0.003,0.003,0.005,-0.382,-6.472,-6.874
1621785119299.453,0.0,-0.007,0.003,-0.382,-6.472,-6.874
1621785119304.138,0.009,0.0,0.002,-0.382,-6.472,-6.874
1621785119304.315,0.0090377958502763,-0.0001889792513815035,0.002113387550828902,-0.382,-6.472,-6.874
1621785119308.821,0.01,-0.005,0.005,-0.3909394575395544,-6.466338343558283,-6.868338343558282
1621785119313.501,0.016,-0.012,0.0,-0.4002237649338069,-6.460458282208589,-6.862458282208589
1621785119318.179,0.019,-0.017,0.002,-0.40950419761059087,-6.454580674846626,-6.856580674846626
1621785119319.437,0.018461911972014827,-0.017,0.00065477993003707,-0.412,-6.453,-6.855
1621785119322.855,0.017,-0.017,-0.003,-0.412,-6.448471966621925,-6.84164230153468
1621785119327.529,0.019,-0.017,-0.005,-0.412,-6.4422798809774084,-6.823375648883355
1621785119332.2,0.017,-0.017,-0.005,-0.412,-6.4360919999353134,-6.805121399809176
1621785119334.534,0.018000000000000002,-0.017,-0.0025,-0.412,-6.433,-6.796
1621785119336.868,0.019,-0.017,0.0,-0.412,-6.436097108609379,-6.789960638211712
1621785119341.535,0.014,-0.017,-0.005,-0.412,-6.442290029966793,-6.777884441564753
1621785119346.198,0.014,-0.023,-0.005,-0.412,-6.448477767878837,-6.765818352636268
1621785119349.606,0.008883064516129031,-0.018614055299539172,-0.006461981566820277,-0.412,-6.453,-6.757
1621785119350.86,0.007,-0.017,-0.007,-0.412,-6.4545835131495695,-6.757
1621785119355.519,0.01,-0.019,-0.01,-0.412,-6.4604659701153535,-6.757
1621785119360.176,0.005,-0.023,-0.007,-0.412,-6.4663459610299014,-6.757
1621785119364.654,0.011733833324592227,-0.019152095243090157,-0.011809880946137306,-0.412,-6.472,-6.757
1621785119364.831,0.012,-0.019,-0.012,-0.4122238745327482,-6.470845278725825,-6.756764342597107
1621785119369.483,0.007,-0.021,-0.014,-0.4181076060458313,-6.4404976109215015,-6.750570941004388
1621785119374.133,0.005,-0.028,-0.014,-0.4239891760117016,-6.410161092150171,-6.744379814724525
1621785119378.78,0.0,-0.03,-0.017,-0.4298667316756054,-6.379845278725824,-6.738192914025679
1621785119379.676,-0.0005786818038473669,-0.030578681803847367,-0.017771575738463156,-0.431,-6.374,-6.737
1621785119383.425,-0.003,-0.033,-0.021,-0.42375047209741484,-6.378999674415576,-6.712501595363678
1621785119388.068,-0.017,-0.024,-0.023,-0.41477212346161363,-6.385191638991991,-6.682160968939246
1621785119392.708,-0.026,-0.03,-0.021,-0.4057999120922055,-6.391379370970893,-6.651841082242626
1621785119394.673,-0.030660683265778806,-0.03127109543612149,-0.022271095436121494,-0.402,-6.394,-6.639
1621785119397.346,-0.037,-0.033,-0.024,-0.402,-6.407923983759722,-6.632038008120139
1621785119401.982,-0.038,-0.017,-0.016,-0.402,-6.43207474441129,-6.619962627794355
1621785119406.615,-0.052,-0.03,-0.021,-0.402,-6.456210243115003,-6.607894878442498
1621785119409.646,-0.05461795561178765,-0.02410959987347778,-0.019691022194106175,-0.402,-6.472,-6.6
1621785119411.246,-0.056,-0.021,-0.019,-0.3978250004083433,-6.476282050863238,-6.6146660242065884
1621785119415.874,-0.063,-0.023,-0.021,-0.3857497345768747,-6.488666938895514,-6.657084265717132
1621785119420.5,-0.066,-0.017,-0.024,-0.37367956486941184,-6.501046600133936,-6.699484605458733
1621785119424.593,-0.066,-0.017,-0.019575116131756755,-0.363,-6.512,-6.737
1621785119425.125,-0.066,-0.017,-0.019,-0.3608967525562372,-6.512,-6.741206494887526
1621785119429.746,-0.068,-0.017,-0.026,-0.3426267811860941,-6.512,-6.777746437627812
1621785119434.365,-0.059,-0.024,-0.031,-0.3243654969325153,-6.512,-6.814269006134969
1621785119438.982,-0.063,-0.023,-0.035,-0.3061119345603272,-6.512,-6.850776130879346
1621785119439.516,-0.0627684533573205,-0.022536906714640984,-0.03557886660669877,-0.304,-6.512,-6.855
1621785119443.596,-0.061,-0.019,-0.04,-0.2610108635097493,-6.530619498607242,-6.855
1621785119448.208,-0.056,-0.024,-0.04,-0.21241366541045387,-6.551667966573816,-6.855
1621785119452.817,-0.056,-0.031,-0.044,-0.1638499098803867,-6.572701949860725,-6.855
1621785119454.416,-0.054265268287515225,-0.028224429260024365,-0.044,-0.147,-6.58,-6.855
1621785119457.426,-0.051,-0.023,-0.044,-0.14295292804621848,-6.584047071953782,-6.858844718356092
1621785119462.03,-0.051,-0.026,-0.038,-0.1367626706932773,-6.5902373293067225,-6.8647254628413865
1621785119466.633,-0.044,-0.017,-0.037,-0.1305737263655462,-6.596426273634454,-6.870604959952731
1621785119469.291,-0.03995515100047768,-0.019311342285441326,-0.03584432885727934,-0.127,-6.6,-6.874
1621785119471.233,-0.037,-0.021,-0.035,-0.13732987012987014,-6.602484399145158,-6.863800887719875
1621785119475.831,-0.035,-0.019,-0.037,-0.16178961038961037,-6.608367121486109,-6.839650764425448
1621785119480.426,-0.023,-0.014,-0.031,-0.18623246753246753,-6.614245783330593,-6.8155173105375635
1621785119484.142,-0.02138220757825371,-0.01642668863261944,-0.031,-0.206,-6.619,-6.796
1621785119485.02,-0.021,-0.017,-0.031,-0.206,-6.622493964395698,-6.789012071208603
1621785119489.611,-0.016,-0.021,-0.033,-0.206,-6.6407653772046835,-6.752469245590633
1621785119494.199,-0.007,-0.016,-0.033,-0.206,-6.659024158885431,-6.7159516822291385
1621785119498.785,0.0,-0.024,-0.028,-0.206,-6.677275167564185,-6.67944966487163
1621785119498.967,0.000397400383549968,-0.023960259961645004,-0.028119220115064993,-0.206,-6.678,-6.678
1621785119503.368,0.01,-0.023,-0.031,-0.24108334295469164,-6.654809315674017,-6.654809315674017
1621785119507.95,0.014,-0.031,-0.03,-0.27761081330716325,-6.630664038661366,-6.630664038661366
1621785119512.529,0.016,-0.035,-0.035,-0.3141149284995629,-6.606534199805373,-6.606534199805373
1621785119513.769,0.01627092334773564,-0.03581277004320692,-0.03554184669547128,-0.324,-6.6,-6.6
1621785119517.106,0.017,-0.038,-0.037,-0.3328062645586559,-6.5954839668929965,-6.571097388115181
1621785119521.68,0.016,-0.047,-0.04,-0.34487718689597063,-6.589293750309759,-6.531480001982455
1621785119526.252,0.012,-0.054,-0.044,-0.3569429548495812,-6.583106177000214,-6.4918795328013745
1621785119528.547,0.012,-0.055004648677531395,-0.04651162169382848,-0.363,-6.58,-6.472
1621785119530.821,0.012,-0.056,-0.049,-0.363,-6.572448441326362,-6.46306142034549
1621785119535.388,0.003,-0.059,-0.052,-0.363,-6.557282083526375,-6.445109404990403
1621785119539.953,-0.007,-0.066,-0.056,-0.363,-6.542122211926666,-6.427165067178502
1621785119543.302,-0.017275105665828475,-0.0674678722379755,-0.0574678722379755,-0.363,-6.531,-6.414
1621785119544.516,-0.021,-0.068,-0.058,-0.35978587053793376,-6.531,-6.420428258924132
1621785119549.076,-0.031,-0.079,-0.059,-0.34771462662821917,-6.531,-6.444570746743562
1621785119553.634,-0.037,-0.08,-0.068,-0.3356479069304962,-6.531,-6.468704186139008
1621785119558.034,-0.04859157420807204,-0.08869368065605403,-0.06606807096532133,-0.324,-6.531,-6.492
1621785119558.189,-0.049,-0.089,-0.066,-0.3235782692435412,-6.531316298067344,-6.492927807664209
1621785119562.742,-0.049,-0.091,-0.07,-0.3111926678621239,-6.540605499103407,-6.5201761307033275
1621785119567.293,-0.056,-0.103,-0.072,-0.29881237962409507,-6.549890715281928,-6.547412764826991
1621785119571.841,-0.063,-0.094,-0.073,-0.28644006110114895,-6.559169954174139,-6.574631865577472
1621785119572.738,-0.06260545532646049,-0.09755090206185567,-0.07378908934707903,-0.284,-6.561,-6.58
1621785119576.388,-0.061,-0.112,-0.077,-0.2695793377571554,-6.548817026725873,-6.614311230853665
1621785119580.931,-0.066,-0.113,-0.075,-0.25163019508057677,-6.533653095843936,-6.657017811704835
1621785119585.472,-0.065,-0.117,-0.077,-0.23368876914633538,-6.5184956842788,-6.699706032031133
1621785119587.418,-0.0671436639414802,-0.11785746557659209,-0.077,-0.226,-6.512,-6.718
1621785119590.011,-0.07,-0.119,-0.077,-0.21202290483250322,-6.504922989788609,-6.72136157985041
1621785119594.548,-0.077,-0.127,-0.077,-0.18756660725291932,-6.492540054305276,-6.727243474204994
1621785119599.082,-0.08,-0.134,-0.07,-0.16312741750095783,-6.4801657810131434,-6.733121254018757
1621785119602.074,-0.08396195915728218,-0.13069836736893153,-0.0686793469475726,-0.147,-6.472,-6.737
1621785119603.613,-0.086,-0.129,-0.068,-0.13258785148101793,-6.472,-6.739103963287443
1621785119608.144,-0.099,-0.134,-0.061,-0.09015843137254903,-6.472,-6.745298039215686
1621785119612.67,-0.106,-0.134,-0.061,-0.04777702127659575,-6.472,-6.751485106382979
1621785119616.704,-0.11224051793903426,-0.13310849743728081,-0.0520849743728082,-0.01,-6.472,-6.757
1621785119617.195,-0.113,-0.133,-0.051,-0.011311039416936912,-6.469377921166126,-6.765236016849988
1621785119621.717,-0.117,-0.131,-0.049,-0.023386162281434923,-6.44522767543713,-6.841092557921835
1621785119626.237,-0.119,-0.127,-0.044,-0.035456069673364315,-6.421087860653271,-6.916916335127545
1621785119630.755,-0.126,-0.126,-0.045,-0.047520109658654004,-6.3969597806826926,-6.992703252983852
1621785119631.309,-0.126,-0.12784073953940966,-0.04438642015353011,-0.049,-6.394,-7.002
1621785119635.271,-0.126,-0.141,-0.04,-0.07562643986070185,-6.377969796410394,-7.060686847039914
1621785119639.784,-0.124,-0.145,-0.044,-0.10595610099115993,-6.359710102464506,-7.127535896062148
1621785119644.294,-0.122,-0.145,-0.042,-0.13626607286364853,-6.3414622622555585,-7.194341548352531
1621785119645.891,-0.11845708096398591,-0.1460628757108042,-0.04270858380720282,-0.147,-6.335,-7.218
1621785119648.802,-0.112,-0.148,-0.044,-0.18239643749685513,-6.3389995974572715,-7.23359843008336
1621785119653.308,-0.103,-0.161,-0.04,-0.23719070461750053,-6.345191040069774,-7.257745056272119
1621785119657.812,-0.089,-0.168,-0.049,-0.29195825296455946,-6.351379463611815,-7.281879908086077
1621785119660.447,-0.08314442274305556,-0.17619780815972222,-0.049,-0.324,-6.355,-7.296
1621785119662.312,-0.079,-0.182,-0.049,-0.34286299575011336,-6.342424669499925,-7.293561925719374
1621785119666.812,-0.063,-0.188,-0.056,-0.3883771648384875,-6.312081890107675,-7.287679141959652
1621785119671.308,-0.04,-0.195,-0.063,-0.43385182509952797,-6.281765449933648,-7.2818014647830545
1621785119674.981,-0.030192426794154396,-0.2039902754386918,-0.071172977671538,-0.471,-6.257,-7.277
1621785119675.802,-0.028,-0.206,-0.073,-0.48316571601635455,-6.245343546514563,-7.27032300237242
1621785119680.294,-0.012,-0.213,-0.079,-0.5497244460148403,-6.181570995911362,-7.2337930947453435
1621785119684.783,0.0,-0.22,-0.091,-0.6162397657866842,-6.117840038362526,-7.197287012265913
1621785119689.27,0.009,-0.227,-0.106,-0.6827261454074336,-6.054136809516598,-7.160796813218245
1621785119689.491,0.009492651061513336,-0.22675367446924333,-0.10668971148611867,-0.686,-6.051,-7.159
1621785119693.755,0.019,-0.222,-0.12,-0.7584187975120941,-6.027743556896523,-7.046250408751495
1621785119698.238,0.016,-0.23,-0.138,-0.8345611610228059,-6.003291334468286,-6.927703558244981
1621785119702.717,0.017,-0.239,-0.157,-0.9106330338631652,-5.978861749287845,-6.809266455408161
1621785119703.975,0.01671906008068913,-0.24349503870897393,-0.16289973830552829,-0.932,-5.972,-6.776
1621785119707.195,0.016,-0.255,-0.178,-0.9489863117745159,-5.993341776332084,-6.671468850618364
1621785119711.67,0.007,-0.255,-0.19,-0.9725925069762066,-6.023000842098311,-6.5261999570694975
1621785119716.169,0.0,-0.251,-0.208,-0.9963262057691991,-6.052820104684378,-6.380146426035698
1621785119718.761,-0.003607193127214483,-0.2484234334805611,-0.20954593991166334,-1.01,-6.07,-6.296
1621785119721.199,-0.007,-0.246,-0.211,-0.992183495116272,-6.104123136472225,-6.2722949892648705
1621785119726.195,-0.026,-0.253,-0.213,-0.9556726843871904,-6.174050621427924,-6.223717046176177
1621785119731.191,-0.045,-0.257,-0.215,-0.9191636578064049,-6.243974689286039,-6.175141476911912
1621785119734.908,-0.07029564112587959,-0.24881611610633309,-0.20532813721657545,-0.892,-6.296,-6.139
1621785119736.187,-0.079,-0.246,-0.202,-0.8679177427646899,-6.323171757341156,-6.152942359452022
1621785119741.183,-0.11,-0.237,-0.194,-0.7738503039283878,-6.429307058396589,-6.207402455620407
1621785119746.178,-0.15,-0.23,-0.183,-0.6798058487313636,-6.535416427253757,-6.261849245471316
1621785119751.054,-0.18708639562157936,-0.22902404222048475,-0.16933659108678656,-0.588,-6.639,-6.315
1621785119751.174,-0.188,-0.229,-0.169,-0.585305944637725,-6.642281984571169,-6.318728513084254
1621785119756.168,-0.225,-0.236,-0.145,-0.4733000453789139,-6.778731160187566,-6.473742202389956
1621785119761.163,-0.246,-0.239,-0.124,-0.3612667675086976,-6.915213689305703,-6.628793783088791
1621785119766.157,-0.258,-0.239,-0.103,-0.24926086824988652,-7.0516628649221,-6.783807472394494
1621785119767.194,-0.2602844292349059,-0.2419074553898802,-0.09718508922023955,-0.226,-7.08,-6.816
1621785119771.151,-0.269,-0.253,-0.075,-0.24512330383480826,-7.1378602526283945,-6.9432435216700705
1621785119776.144,-0.257,-0.253,-0.054,-0.2692554572271386,-7.210875485969291,-7.103815157703653
1621785119781.137,-0.23,-0.262,-0.038,-0.2933864306784661,-7.283887149232282,-7.264378942591332
1621785119783.333,-0.20800841034668233,-0.2598008410346682,-0.035800841034668233,-0.304,-7.316,-7.335
1621785119786.13,-0.18,-0.257,-0.033,-0.3209885450556102,-7.2955444049330405,-7.343494272527805
1621785119791.123,-0.126,-0.264,-0.031,-0.3513176061133389,-7.259025739577816,-7.358658803056669
1621785119796.116,-0.094,-0.271,-0.033,-0.38164518423242794,-7.222508859801771,-7.373822592116214
1621785119799.467,-0.06982859658562833,-0.2743571393631072,-0.022257154038057038,-0.402,-7.198,-7.384
1621785119801.107,-0.058,-0.276,-0.017,-0.402,-7.182036194368756,-7.316280926430518
1621785119806.099,-0.035,-0.272,-0.005,-0.402,-7.133438919164396,-7.1101294277929155
1621785119811.09,-0.003,-0.264,0.0,-0.402,-7.08485352709658,-6.904028337874659
1621785119815.595,0.012341321465251628,-0.24956110920917493,0.004512153372132831,-0.402,-7.041,-6.718
1621785119816.082,0.014,-0.248,0.005,-0.3960808356039964,-7.036560626702998,-6.696648728428701
1621785119821.073,0.035,-0.222,0.007,-0.3354264607932183,-6.991069845594914,-6.477859733575538
1621785119826.063,0.04,-0.188,0.017,-0.2747839539812292,-6.945587965485922,-6.259113548289434
1621785119831.054,0.033,-0.169,0.035,-0.21412957917045108,-6.900097184377838,-6.04032455343627
1621785119831.723,0.03179324688035234,-0.1648434059212136,0.03781575727917788,-0.206,-6.894,-6.011
1621785119836.043,0.024,-0.138,0.056,-0.1639379390746124,-6.873102925145349,-5.8612376302083335
1621785119841.033,0.007,-0.11,0.077,-0.11535322795542635,-6.848965297965116,-5.688251302083334
1621785119846.023,-0.012,-0.077,0.106,-0.06676851683624033,-6.824827670784884,-5.515264973958333
1621785119847.848,-0.0229738194274529,-0.06346562270614142,0.11368167359921703,-0.049,-6.816,-5.452
1621785119851.012,-0.042,-0.04,0.127,-0.049,-6.842893668585277,-5.436688276279915
1621785119856.0,-0.077,-0.021,0.159,-0.049,-6.885290624053317,-5.412549863677674
1621785119860.989,-0.117,0.005,0.185,-0.049,-6.927695880036353,-5.388406725234777
1621785119863.966,-0.13908301111056728,0.018727277176839117,0.20708301111056726,-0.049,-6.953,-5.374
1621785119865.977,-0.154,0.028,0.222,-0.09429595067488752,-6.954247822332642,-5.441257623729379
1621785119870.965,-0.199,0.049,0.251,-0.20664772537910348,-6.957342912544879,-5.608082986168972
1621785119875.952,-0.234,0.061,0.283,-0.318972004665889,-6.960437245307601,-5.774867522079654
1621785119880.082,-0.24973212275463758,0.06679604522539279,0.30452816798003035,-0.412,-6.963,-5.913
1621785119880.94,-0.253,0.068,0.309,-0.440694623297529,-6.965076234338782,-5.947497432090536
1621785119885.927,-0.272,0.079,0.323,-0.6074974320905357,-6.977145454270001,-6.1480321632554125
1621785119890.913,-0.271,0.075,0.34,-0.774267577681155,-6.989212310815519,-6.348527625857864
1621785119895.899,-0.265,0.075,0.353,-0.9410295574711771,-7.001278576514612,-6.5490132713197085
1621785119896.197,-0.2644021446408461,0.07488042892816922,0.3534782842873231,-0.951,-7.002,-6.561
1621785119900.885,-0.255,0.073,0.361,-1.013856242233201,-7.01916906616555,-6.623565241111751
1621785119905.871,-0.237,0.079,0.363,-1.0807093322826054,-7.037429863910527,-6.69010882611463
1621785119910.856,-0.208,0.073,0.372,-1.1475460552238355,-7.055686191010214,-6.756636119782984
1621785119912.307,-0.19868814571806295,0.07009004553689467,0.37607393624834745,-1.167,-7.061,-6.776
1621785119915.842,-0.176,0.063,0.386,-1.2207718832891248,-7.019957787040545,-6.76327032967033
1621785119920.827,-0.15,0.063,0.384,-1.2965946949602123,-6.962084865479348,-6.745320439560439
1621785119925.811,-0.124,0.065,0.386,-1.3724063660477452,-6.904220447139068,-6.727373186813187
1621785119928.414,-0.11303193886548446,0.06395542274909376,0.38391084549818755,-1.412,-6.874,-6.718
1621785119930.795,-0.103,0.063,0.382,-1.4177662148640042,-6.842211892416386,-6.675862275993814
1621785119935.779,-0.091,0.054,0.379,-1.4298373055580824,-6.775666136025956,-6.5876504593832435
1621785119940.762,-0.089,0.054,0.374,-1.4419054398253435,-6.709136677885927,-6.499460247430183
1621785119944.517,-0.09050683321087435,0.05249316678912564,0.37475341660543715,-1.451,-6.659,-6.433
1621785119945.746,-0.091,0.052,0.375,-1.4480227021124945,-6.649991765366009,-6.412082573815987
1621785119950.729,-0.094,0.051,0.37,-1.435951456605147,-6.613468509728394,-6.327274336148982
1621785119955.712,-0.101,0.056,0.37,-1.4238802110977995,-6.576945254090778,-6.242466098481976
1621785119960.616,-0.11871774391140294,0.04025089430097516,0.3650784044690547,-1.412,-6.541,-6.159
1621785119960.694,-0.119,0.04,0.365,-1.4117136487039874,-6.541097068235937,-6.158568046350083
1621785119965.676,-0.126,0.051,0.363,-1.3934533844963826,-6.547286988306311,-6.131022902036916
1621785119970.657,-0.133,0.044,0.358,-1.375196699679978,-6.553475695023736,-6.103483157144374
1621785119975.64,-0.129,0.047,0.358,-1.3569328560811733,-6.55966682844706,-6.0759326134105835
1621785119976.713,-0.1270613145125717,0.046569181002793704,0.35606131451257167,-1.353,-6.561,-6.07
1621785119980.621,-0.12,0.045,0.349,-1.353,-6.570471758226753,-6.04158472531974
1621785119985.602,-0.119,0.044,0.346,-1.353,-6.582543398115698,-6.005369805652906
1621785119990.582,-0.117,0.054,0.339,-1.353,-6.594612671248464,-5.969161986254608
1621785119992.805,-0.11298269438180214,0.062480978527306594,0.3363217962545348,-1.353,-6.6,-5.953
1621785119995.562,-0.108,0.073,0.333,-1.3598545242105582,-6.578065522526213,-5.9226687303682795
1621785120000.542,-0.106,0.073,0.321,-1.3722355199465865,-6.538446336170923,-5.8678828242363545
1621785120005.522,-0.113,0.075,0.319,-1.384616515682615,-6.498827149815633,-5.81309691810443
1621785120008.894,-0.12383400333366017,0.08109412687518384,0.31358299833316994,-1.393,-6.472,-5.776
1621785120010.502,-0.129,0.084,0.311,-1.3910008499271491,-6.470100807430792,-5.751510411607576
1621785120015.481,-0.147,0.101,0.305,-1.3848103448275861,-6.4642198275862075,-5.675676724137931
1621785120020.459,-0.169,0.112,0.3,-1.3786210539096648,-6.458340001214182,-5.5998579103933945
1621785120024.98,-0.192608316171423,0.12471217024615083,0.2981839756791213,-1.373,-6.453,-5.531
1621785120025.438,-0.195,0.126,0.298,-1.375221399076998,-6.455506193830459,-5.532680289045421
1621785120030.416,-0.218,0.133,0.3,-1.3993654967209133,-6.48274568860821,-5.55094313213505
1621785120035.393,-0.232,0.145,0.297,-1.4235048579062424,-6.509979839689095,-5.569202392518824
1621785120040.372,-0.248,0.159,0.293,-1.4476536920087444,-6.537224678163712,-5.587468818314306
1621785120041.062,-0.24938624546257235,0.16121799274011578,0.293,-1.451,-6.541,-5.59
1621785120045.349,-0.258,0.175,0.293,-1.440601579107197,-6.608989675068327,-5.639592468873367
1621785120050.325,-0.269,0.182,0.288,-1.4285326601882782,-6.6879018372304895,-5.697151928332827
1621785120055.302,-0.265,0.194,0.29,-1.4164607804433647,-6.766833358639539,-5.7547255086547215
1621785120057.141,-0.2631520459228731,0.1984350897851045,0.2918479540771269,-1.412,-6.796,-5.776
1621785120060.278,-0.26,0.206,0.295,-1.435025832611964,-6.826636065424394,-5.841174814342339
1621785120065.254,-0.258,0.215,0.297,-1.4715492581286922,-6.875230792594955,-5.944554679787993
1621785120070.231,-0.255,0.216,0.3,-1.508081643810652,-6.923837441341291,-6.047959907057269
1621785120073.217,-0.25379958779075473,0.216,0.29579855726764154,-1.53,-6.953,-6.11
1621785120075.206,-0.253,0.216,0.293,-1.5178733577362962,-6.963889229787816,-6.159743981530704
1621785120080.181,-0.237,0.22,0.295,-1.4875426115220463,-6.991125001898571,-6.284161940491198
1621785120085.156,-0.22,0.23,0.3,-1.4572103768283236,-7.018362110603138,-6.408586005255244
1621785120089.291,-0.20503578265351202,0.22750596377558535,0.30166269081627645,-1.432,-7.041,-6.512
1621785120090.13,-0.202,0.227,0.302,-1.4202033815911403,-7.0471592963373695,-6.512
1621785120095.104,-0.175,0.227,0.302,-1.3502545156242878,-7.083681270603248,-6.512
1621785120100.079,-0.145,0.222,0.302,-1.2802919166907196,-7.120210415179182,-6.512
1621785120105.052,-0.115,0.223,0.311,-1.2103602169322618,-7.156723426557491,-6.512
1621785120105.362,-0.11350360842456675,0.22324939859590553,0.311,-1.206,-7.159,-6.512
1621785120110.025,-0.091,0.227,0.311,-1.1888763182688509,-7.136071680393885,-6.443505273075403
1621785120114.998,-0.065,0.227,0.316,-1.1706130899917941,-7.111617527277148,-6.370452359967176
1621785120119.971,-0.052,0.23,0.318,-1.1523507582895176,-7.087164574658845,-6.29740303315807
1621785120121.428,-0.04965570067759992,0.22912088775409997,0.3200512619071001,-1.147,-7.08,-6.276
1621785120124.943,-0.044,0.227,0.325,-1.1750091188182012,-7.088752849630688,-6.243833277607222
1621785120129.916,-0.028,0.232,0.328,-1.214633909845284,-7.101135596826651,-6.198326681662056
1621785120134.888,-0.024,0.239,0.332,-1.2542509194808351,-7.113515912337761,-6.152829022158728
1621785120137.492,-0.017713864741417416,0.2416192230244094,0.33461922302440944,-1.275,-7.12,-6.129
1621785120139.859,-0.012,0.244,0.337,-1.312575234823844,-7.143134556342524,-6.150661017721981
1621785120144.83,0.0,0.255,0.335,-1.3914929172872905,-7.191723090251391,-6.196154740553849
1621785120149.801,0.017,0.264,0.34,-1.4704067240173877,-7.240309237924431,-6.241646229139435
1621785120153.555,0.03059571646116815,0.27306381097411214,0.34,-1.53,-7.277,-6.276
1621785120154.771,0.035,0.276,0.34,-1.541132164685134,-7.271017408094384,-6.303489631161249
1621785120159.742,0.059,0.29,0.344,-1.5866374859366923,-7.246562167421778,-6.415859914251832
1621785120164.712,0.082,0.304,0.353,-1.6321338674856327,-7.22211173107915,-6.528208121750236
1621785120169.613,0.09777835633934273,0.32470909269538734,0.3677922090681338,-1.677,-7.198,-6.639
1621785120169.682,0.098,0.325,0.368,-1.6766226334757683,-7.1971595018323935,-6.6400077401499376
1621785120174.651,0.101,0.337,0.384,-1.6493866729520537,-7.136497589756847,-6.7127401347303115
1621785120179.62,0.094,0.358,0.415,-1.622149374249175,-7.075832697191345,-6.7854761028573165
1621785120184.589,0.068,0.365,0.452,-1.5949134137254604,-7.015170785115798,-6.8582084974376905
1621785120185.668,0.05888104947673562,0.3645657642607969,0.4606847147840613,-1.589,-7.002,-6.874
1621785120189.558,0.026,0.363,0.492,-1.5652515474579107,-6.97098161300625,-7.064229951485103
1621785120194.526,-0.023,0.353,0.536,-1.5349243532614483,-6.931370583851687,-7.307156966222073
1621785120199.494,-0.072,0.342,0.572,-1.5045956686386934,-6.891757608017885,-7.550095919577814
1621785120201.721,-0.0858993364463013,0.3343777832391251,0.5809673138363234,-1.491,-6.874,-7.659
1621785120204.461,-0.103,0.325,0.592,-1.5009032999132803,-6.880829862009159,-7.933560452768185
1621785120209.428,-0.105,0.304,0.592,-1.5188559539929103,-6.8932110027537306,-8.431282310699995
1621785120214.396,-0.068,0.283,0.578,-1.5368121377169894,-6.9055945777358545,-8.929102024981363
1621785120217.768,-0.021835536986974692,0.26738554927500613,0.5576333251413124,-1.549,-6.914,-9.267
1621785120219.363,0.0,0.26,0.548,-1.6036769432101772,-6.92662540325035,-9.325554035546899
1621785120224.329,0.098,0.234,0.504,-1.7739178282305679,-6.965935571245968,-9.507866546959644
1621785120229.295,0.206,0.215,0.456,-1.9441503439040722,-7.005243806683304,-9.690170095562724
1621785120233.812,0.3078942813590992,0.2086316074150563,0.4096017111668388,-2.099,-7.041,-9.856
1621785120234.26,0.318,0.208,0.405,-2.106651884093261,-7.025668305229196,-9.836814436598283
1621785120239.226,0.408,0.213,0.354,-2.1914731235161624,-6.855716259816156,-9.624142204906557
1621785120244.19,0.471,0.229,0.293,-2.276256833262312,-6.685839410726244,-9.411564071345955
1621785120249.156,0.499,0.257,0.239,-2.3610780726852134,-6.515887365313204,-9.198891839654229
1621785120249.854,0.49703186310665287,0.262623248266706,0.23211152087328513,-2.373,-6.492,-9.169
1621785120254.121,0.485,0.297,0.19,-2.2085525173941507,-6.283114443615547,-8.82733241478008
1621785120259.085,0.435,0.321,0.138,-2.017252241828175,-6.040119757014753,-8.429873589817761
1621785120264.049,0.363,0.379,0.098,-1.8259425574349528,-5.797113119071906,-8.032395216418251
1621785120265.89,0.33147205824478554,0.40273868555686737,0.090952577725305,-1.755,-5.707,-7.885
1621785120269.012,0.278,0.443,0.079,-1.4800646202570191,-5.720435227480358,-7.713068030939764
1621785120273.975,0.194,0.506,0.082,-1.0430016444363237,-5.741793120774712,-7.439748903709117
1621785120278.939,0.119,0.565,0.091,-0.6058741701687069,-5.763154165905354,-7.16638944210975
1621785120281.924,0.08231118107137586,0.5968771705445423,0.09280436814403069,-0.343,-5.776,-7.002
1621785120283.902,0.058,0.618,0.094,-0.2679894778517154,-5.736027287539401,-7.018902041997229
1621785120288.864,0.016,0.651,0.099,-0.07982435169252788,-5.635755082151939,-7.061301091806125
1621785120293.826,-0.012,0.688,0.106,0.10834077446665957,-5.535482876764477,-7.10370014161502
1621785120297.957,-0.021990258302583027,0.7096455596555965,0.10933008610086101,0.265,-5.452,-7.139
1621785120298.788,-0.024,0.714,0.11,0.2889013631863529,-5.421514096413068,-7.148176879140965
1621785120303.749,-0.026,0.737,0.12,0.43157930089102126,-5.239530089102125,-7.202957779300891
1621785120308.711,-0.019,0.745,0.126,0.5742853248038992,-5.057510258167695,-7.257749463102582
1621785120313.672,-0.003,0.75,0.131,0.7169702840606199,-4.875517294950879,-7.312533059172949
1621785120313.986,-0.0033797991730655642,0.7494936011025792,0.1311898995865328,0.726,-4.864,-7.316
1621785120318.632,-0.009,0.742,0.134,0.6320647795484323,-4.795867972820622,-7.125520247417654
1621785120323.592,-0.017,0.723,0.134,0.5317816508729699,-4.723131752947987,-6.922168347603522
1621785120328.552,-0.045,0.686,0.129,0.43149852219750756,-4.650395533075352,-6.71881644778939
1621785120330.011,-0.057354400472533956,0.6786461901949203,0.12399940933254577,0.402,-4.629,-6.659
1621785120333.512,-0.087,0.661,0.112,0.3292402864543654,-4.688868352887399,-6.596728173091574
1621785120338.471,-0.126,0.651,0.112,0.22617924729544417,-4.773669328051196,-6.508522779216821
1621785120343.431,-0.171,0.611,0.106,0.12309791253999697,-4.858487002895017,-6.420300015236934
1621785120346.034,-0.19409610082709727,0.5978772154391493,0.09812632926348956,0.069,-4.903,-6.374
1621785120348.39,-0.215,0.586,0.091,-0.06660063401103422,-4.998302831712744,-6.379882890846465
1621785120353.348,-0.26,0.572,0.045,-0.3519661962386076,-5.198863443777243,-6.392263175541805
1621785120358.306,-0.3,0.532,0.003,-0.6373317584661811,-5.399424055841741,-6.4046434602371445
1621785120362.053,-0.3294746897774276,0.4979907425645066,-0.027986212330116212,-0.853,-5.551,-6.414
1621785120363.264,-0.339,0.487,-0.038,-0.8819523577285335,-5.625081750845856,-6.470317249367513
1621785120368.221,-0.37,0.459,-0.091,-1.0004702350108208,-5.928338982534215,-6.7008546346816225
1621785120373.179,-0.401,0.438,-0.141,-1.1190114609686956,-6.23165595757003,-6.9314374371323195
1621785120378.072,-0.4187677304964539,0.43997419227738377,-0.19134190307328605,-1.236,-6.531,-7.159
1621785120378.136,-0.419,0.44,-0.192,-1.2370185538090954,-6.533352659582577,-7.164364383394569
1621785120383.093,-0.415,0.431,-0.237,-1.3159525864040371,-6.715674797615599,-7.580083621727928
1621785120388.049,-0.403,0.417,-0.291,-1.394871068559145,-6.897961017181712,-7.995720961078164
1621785120393.005,-0.37,0.407,-0.34,-1.4737856631042947,-7.0802382571310964,-8.411337825682619
1621785120394.086,-0.3604023645320197,0.4035099507389162,-0.35068827586206897,-1.491,-7.12,-8.502
1621785120397.961,-0.326,0.391,-0.389,-1.403151620035069,-7.183889730883586,-8.523538583517572
1621785120402.917,-0.248,0.375,-0.429,-1.2907951360829457,-7.265603537394221,-8.551086041015475
1621785120407.872,-0.145,0.363,-0.469,-1.1784607913394831,-7.347301242662194,-8.578628070442937
1621785120410.098,-0.09244079822616408,0.35221862527716186,-0.47798447893569845,-1.128,-7.384,-8.591
1621785120412.827,-0.028,0.339,-0.489,-0.9374184496667834,-7.312233602244826,-8.42547702560505
1621785120417.781,0.072,0.326,-0.506,-0.5914459304896832,-7.181952358440212,-8.124994631936925
1621785120422.735,0.159,0.311,-0.504,-0.24547341131258293,-7.051671114635597,-7.8245122382688
1621785120426.107,0.19915023404779503,0.30351436314363145,-0.49923641290958365,-0.01,-6.963,-7.62
1621785120427.69,0.218,0.3,-0.497,0.05308681927012642,-6.861151373278636,-7.530808289997408
1621785120432.643,0.264,0.293,-0.485,0.25048123465450717,-6.542473868817958,-7.251733426867766
1621785120437.597,0.284,0.288,-0.469,0.44790483888185684,-6.223749241303585,-6.972617296753237
1621785120442.116,0.2794381900630915,0.2925618099369085,-0.45713929416403787,0.628,-5.933,-6.718
1621785120442.55,0.279,0.293,-0.456,0.6346456642460487,-5.912249252456215,-6.694590986757796
1621785120447.502,0.255,0.284,-0.449,0.7104578171721486,-5.675529672911454,-6.427546546042595
1621785120452.454,0.216,0.288,-0.438,0.7862737078171722,-5.438798422530054,-6.160488939403185
1621785120457.407,0.161,0.293,-0.428,0.8621008116189662,-5.202032159638738,-5.893391834991152
1621785120458.119,0.15194275994675344,0.29458142286643985,-0.4249809199822511,0.873,-5.168,-5.855
1621785120462.359,0.098,0.304,-0.407,0.9456042934956744,-5.1473316244793335,-5.727545017622557
1621785120467.311,0.035,0.316,-0.393,1.0304033658320746,-5.123191742573351,-5.578682412535665
1621785120472.262,-0.019,0.328,-0.368,1.1151815352222274,-5.099057811141118,-5.429856502036893
1621785120474.12,-0.03814480887792848,0.3325046609124538,-0.3642461159062885,1.147,-5.09,-5.374
1621785120477.212,-0.07,0.34,-0.358,1.147,-5.112614630870435,-5.385403959156886
1621785120482.163,-0.106,0.349,-0.342,1.147,-5.1488294693142445,-5.403666142645645
1621785120487.113,-0.143,0.358,-0.335,1.147,-5.185035379050352,-5.421923823623682
1621785120490.116,-0.1624092410868386,0.3610326939198185,-0.3319673060801815,1.147,-5.207,-5.433
1621785120492.064,-0.175,0.363,-0.33,1.1327480878738379,-5.209436224295071,-5.468812497137535
1621785120497.013,-0.199,0.368,-0.318,1.0965404790620277,-5.215625559134696,-5.559795719280033
1621785120501.963,-0.227,0.367,-0.318,1.0603257255392884,-5.221816115292429,-5.650796894798711
1621785120506.108,-0.2412376677190213,0.36783750986582475,-0.3129749408050513,1.03,-5.227,-5.727
1621785120506.912,-0.244,0.368,-0.312,1.0329675222549664,-5.235399596891177,-5.742290284161183
1621785120511.86,-0.264,0.361,-0.316,1.051225802018598,-5.28707981249332,-5.836366844299217
1621785120516.81,-0.283,0.356,-0.305,1.069491288879388,-5.338780427845047,-5.930480539310745
1621785120521.758,-0.3,0.344,-0.304,1.0877495686430196,-5.390460643447192,-6.024557099448779
1621785120522.097,-0.3010957714511274,0.3431781714116544,-0.3032466571273499,1.089,-5.394,-6.031
1621785120526.706,-0.316,0.332,-0.293,1.1002445364162556,-5.461755539944104,-6.124416148688892
1621785120531.653,-0.34,0.318,-0.29,1.112313398188732,-5.53447816857313,-6.224680538798699
1621785120536.6,-0.36,0.312,-0.283,1.1243822599612088,-5.607200797202156,-6.324944928908505
1621785120538.083,-0.36449637269900803,0.3054053200414549,-0.283,1.128,-5.629,-6.355
1621785120541.547,-0.375,0.29,-0.283,1.1108776616869824,-5.716128860782696,-6.446246891516207
1621785120546.495,-0.384,0.279,-0.279,1.0864207985824703,-5.840580240124645,-6.576580301225063
1621785120551.441,-0.38,0.255,-0.272,1.0619747960773531,-5.964976354138026,-6.70685583356246
1621785120554.066,-0.3794692729157412,0.24173182289352882,-0.2714692729157412,1.049,-6.031,-6.776
1621785120556.387,-0.379,0.23,-0.271,1.0234333954710753,-6.103632399229899,-6.828731121840907
1621785120561.333,-0.363,0.204,-0.272,0.9689520826330104,-6.25840885615622,-6.941098829569416
1621785120566.278,-0.342,0.185,-0.272,0.9144815267548818,-6.413154753537267,-7.053444351068056
1621785120570.044,-0.3191526612027254,0.1667221289621803,-0.27656946775945496,0.873,-6.531,-7.139
1621785120571.223,-0.312,0.161,-0.278,0.8519658413571756,-6.549081996026287,-7.1549416781292985
1621785120576.169,-0.269,0.124,-0.271,0.7637216872994039,-6.6249410056548985,-7.221821458046768
1621785120581.113,-0.222,0.089,-0.279,0.6755123796423659,-6.700770059605685,-7.288674828060523
1621785120586.018,-0.17536903703703702,0.05824340740740741,-0.28098429629629634,0.588,-6.776,-7.355
1621785120586.057,-0.175,0.058,-0.281,0.587547943320952,-6.775905213922135,-7.354618425276288
1621785120591.001,-0.129,0.03,-0.288,0.5299718439033337,-6.763832805979731,-7.306019244585072
1621785120595.945,-0.087,-0.005,-0.293,0.4723957444857156,-6.7517603980373275,-7.257420063893857
1621785120600.889,-0.038,-0.038,-0.293,0.414822488191865,-6.739688586233778,-7.208823283043672
1621785120601.99,-0.027308045636390575,-0.044014224329530297,-0.29389099619696746,0.402,-6.737,-7.198
1621785120605.832,0.01,-0.065,-0.297,0.44217670799382386,-6.673246541207406,-7.134246541207405
1621785120610.774,0.059,-0.101,-0.307,0.4938547230672802,-6.5912425053124,-7.0522425053124
1621785120615.717,0.091,-0.124,-0.309,0.5455455031874398,-6.509218213504961,-6.97021821350496
1621785120617.96,0.0996233079735204,-0.1367080328030827,-0.31217700820077066,0.569,-6.472,-6.933
1621785120620.659,0.11,-0.152,-0.316,0.6501413367585669,-6.428893664847012,-6.883300931235378
1621785120625.601,0.127,-0.173,-0.307,0.7987206293866691,-6.3499609156383325,-6.792296114500665
1621785120630.543,0.129,-0.192,-0.309,0.9472925822285425,-6.271032065691086,-6.701295793385018
1621785120633.926,0.12215297954343314,-0.20021642454788022,-0.29667536317817966,1.049,-6.217,-6.639
1621785120635.484,0.119,-0.204,-0.291,1.0901866319975526,-6.220903946160905,-6.6370480269195475
1621785120640.425,0.115,-0.213,-0.276,1.2208207402875497,-6.233286326093606,-6.630856836953197
1621785120645.365,0.105,-0.229,-0.262,1.3514225757112266,-6.245665646986846,-6.624667176506577
1621785120649.888,0.08851942275378076,-0.22991558762478997,-0.24551942275378075,1.471,-6.257,-6.619
1621785120650.305,0.087,-0.23,-0.244,1.4740830324909748,-6.262617389708131,-6.624643517102123
1621785120655.246,0.077,-0.232,-0.218,1.510615523465704,-6.329180826653613,-6.691516551428746
1621785120660.186,0.072,-0.232,-0.206,1.5471389891696752,-6.3957278192498315,-6.758373064920761
1621785120665.125,0.072,-0.232,-0.176,1.5836552346570396,-6.462261656366641,-6.82521636174509
1621785120665.848,0.07243910034602076,-0.23302456747404846,-0.1752681660899654,1.589,-6.472,-6.835
1621785120670.064,0.075,-0.239,-0.171,1.5110665310243545,-6.50053157508261,-6.88942133765757
1621785120675.003,0.079,-0.239,-0.159,1.4197703310488312,-6.533955268632971,-6.953173938318444
1621785120679.942,0.086,-0.258,-0.154,1.3284741310733081,-6.567378962183332,-7.016926538979318
1621785120681.807,0.09090986848610699,-0.26555364382478,-0.152489271235044,1.294,-6.58,-7.041
1621785120684.88,0.099,-0.278,-0.15,1.1580138642345597,-6.60658085939891,-7.041
1621785120689.818,0.096,-0.307,-0.148,0.9394874824019097,-6.649295647915774,-7.041
1621785120694.756,0.113,-0.344,-0.162,0.7209719042663891,-6.692008324661811,-7.041
1621785120697.761,0.11847779645930175,-0.3726062703985758,-0.1705210167144694,0.588,-6.718,-7.041
1621785120699.693,0.122,-0.391,-0.176,0.6297260479730247,-6.736922277569162,-7.118387263391831
1621785120704.63,0.138,-0.424,-0.195,0.7363399494214116,-6.785270442179478,-7.316118859682734
1621785120709.567,0.161,-0.438,-0.206,0.8429591233044678,-6.833620997777607,-7.513860234500728
1621785120713.69,0.18281912144702842,-0.4421959848936593,-0.206,0.932,-6.874,-7.679
1621785120714.48,0.187,-0.443,-0.206,0.9329429482853813,-6.874,-7.703814428562665
1621785120719.407,0.208,-0.452,-0.22,0.9388235537697074,-6.874,-7.858567204465984
1621785120724.334,0.204,-0.487,-0.241,0.9447041592540335,-6.874,-8.013319980369303
1621785120729.26,0.185,-0.522,-0.272,0.9505835991656953,-6.874,-8.168042083307773
1621785120729.609,0.18315859642166823,-0.5228498785746147,-0.27277905536006347,0.951,-6.874,-8.179
1621785120734.186,0.159,-0.534,-0.283,0.9087177661859466,-6.972946179809758,-8.441322430193312
1621785120739.112,0.152,-0.515,-0.279,0.8632127186253452,-7.079434182264498,-8.723639459957042
1621785120744.037,0.133,-0.494,-0.278,0.8177166922368825,-7.185901073949064,-9.005900521632402
1621785120745.522,0.12093971842157447,-0.4976180844735277,-0.28523616894705534,0.804,-7.218,-9.091
1621785120748.962,0.093,-0.506,-0.302,0.5432302380185074,-7.209350920000614,-9.133380491996991
1621785120753.885,0.051,-0.546,-0.342,0.17002780719119748,-7.196972729923423,-9.194033623375228
1621785120758.809,0.035,-0.604,-0.36,-0.20324865337691622,-7.184592084465111,-9.254698786120958
1621785120761.431,0.04724697540658469,-0.6450007437524792,-0.36425981753272507,-0.402,-7.178,-9.287
1621785120763.733,0.058,-0.681,-0.368,-0.4601903007414913,-7.091438308847234,-9.331004605535854
1621785120768.656,0.103,-0.77,-0.375,-0.5846369456086216,-6.90631618538817,-9.425113511107018
1621785120773.578,0.173,-0.859,-0.389,-0.7090527333855294,-6.721239963769785,-9.519199081963187
1621785120777.334,0.22718059620058528,-0.9269165219979167,-0.41570874460592233,-0.804,-6.58,-9.591
1621785120778.5,0.244,-0.948,-0.424,-0.8262937690016277,-6.488698215766361,-9.558659367994348
1621785120783.421,0.297,-1.019,-0.45,-0.9203794490679607,-6.103380216810491,-9.422173233424438
1621785120788.342,0.335,-1.075,-0.482,-1.0144697970088752,-5.718043101065627,-9.285680327365414
1621785120793.234,0.35786874751885667,-1.1237203751488687,-0.5008915740373164,-1.108,-5.335,-9.15
1621785120793.262,0.358,-1.124,-0.501,-1.1087453998095416,-5.333111771572512,-9.147903342241882
1621785120798.183,0.368,-1.157,-0.513,-1.2393977820784567,-5.0021463766780325,-8.78040481676036
1621785120803.103,0.363,-1.173,-0.536,-1.3700177556600006,-4.671263078671704,-8.4129974503118
1621785120808.022,0.347,-1.173,-0.559,-1.5006118022916475,-4.340445458175898,-8.045663011089609
1621785120809.129,0.3442995830851697,-1.1714247567996823,-0.5648509033154656,-1.53,-4.266,-7.963
1621785120812.941,0.335,-1.166,-0.585,-1.3371457277168401,-4.261202630042708,-7.596001198267121
1621785120817.859,0.326,-1.131,-0.607,-1.088339754816112,-4.25501342673672,-7.122527145359019
1621785120822.778,0.298,-1.072,-0.602,-0.8394720250714351,-4.248822687190832,-6.648935570098627
1621785120825.021,0.28613992055610726,-1.039156703078451,-0.5933330188679244,-0.726,-4.246,-6.433
1621785120827.695,0.272,-1.0,-0.583,-0.5361598930563451,-4.326951322198491,-6.2712656535701665
1621785120832.612,0.22,-0.927,-0.559,-0.18708842826631422,-4.475801831563744,-5.973874095358092
1621785120837.528,0.161,-0.859,-0.529,0.16191370753368894,-4.6246227777692415,-5.676541602003657
1621785120840.91,0.11146960667461264,-0.8122212951926897,-0.5049227254668256,0.402,-4.727,-5.472
1621785120842.444,0.089,-0.791,-0.494,0.48633537794585624,-4.736467201647989,-5.503299727897431
1621785120847.36,0.03,-0.723,-0.459,0.756573629110363,-4.766803225260958,-5.603594336577042
1621785120852.275,-0.035,-0.656,-0.424,1.0267447770142508,-4.797131716090947,-5.703864040953743
1621785120856.791,-0.12137055434134712,-0.6082205444069143,-0.38081472282932644,1.275,-4.825,-5.796
1621785120857.19,-0.129,-0.604,-0.377,1.290527924713987,-4.852337187845984,-5.811527924713987
1621785120862.105,-0.23,-0.567,-0.311,1.4818426005658751,-5.189150079960635,-6.0028426005658755
1621785120867.019,-0.318,-0.504,-0.241,1.6731192643621602,-5.525896051174806,-6.19411926436216
1621785120871.932,-0.389,-0.456,-0.164,1.864348413088941,-5.862558371263378,-6.38534841308894
1621785120872.668,-0.3949928443649374,-0.44970751341681575,-0.1514150268336315,1.893,-5.913,-6.414
1621785120876.845,-0.429,-0.414,-0.08,1.7872004368693084,-6.199606279227172,-6.9687897489539745
1621785120881.758,-0.447,-0.393,0.0,1.662756553039626,-6.536719188407581,-7.621346234309623
1621785120886.67,-0.429,-0.363,0.063,1.5383435884814178,-6.87374833866601,-8.273740585774059
1621785120888.539,-0.4084520874751491,-0.35577017892644136,0.08621153081510935,1.491,-7.002,-8.522
1621785120891.582,-0.375,-0.344,0.124,1.1843242648529706,-6.969970701832674,-8.896378383368981
1621785120896.493,-0.29,-0.332,0.154,0.6893962792558512,-6.918280286826596,-9.50056814439811
1621785120901.404,-0.192,-0.333,0.171,0.19444368873774764,-6.8665873020758,-10.104787942203826
1621785120904.405,-0.1235583395476013,-0.333,0.16977782749192147,-0.108,-6.835,-10.474
1621785120906.315,-0.08,-0.333,0.169,-0.28389379645731694,-6.7890099724526385,-10.434992751504332
1621785120911.225,0.049,-0.344,0.143,-0.7360957694024223,-6.6707750965696615,-10.334709767771127
1621785120916.134,0.204,-0.36,0.108,-1.188185321411533,-6.552569614798627,-10.234451715169516
1621785120920.269,0.3219280847466056,-0.37010812154970907,0.08609906997563038,-1.569,-6.453,-10.15
1621785120921.043,0.344,-0.372,0.082,-1.5670966530159804,-6.432404809557533,-10.057126427933614
1621785120925.951,0.461,-0.384,0.059,-1.5550263109277334,-6.3017975182436805,-9.468155633217354
1621785120930.861,0.546,-0.389,0.044,-1.5429505650152415,-6.171131754780306,-8.878921159589863
1621785120935.768,0.599,-0.384,0.024,-1.530882624626659,-6.040550451088462,-8.290067555500816
1621785120936.127,0.6002433454400716,-0.38370744813174784,0.024292551868252153,-1.53,-6.031,-8.247
1621785120940.675,0.616,-0.38,0.028,-1.4568562344101252,-5.772271856619345,-7.841984325439596
1621785120945.582,0.597,-0.387,0.026,-1.377940750777569,-5.493127675299479,-7.405009176854618
1621785120950.488,0.56,-0.386,0.031,-1.299040972500231,-5.214039047824346,-6.968120992824808
1621785120951.983,0.5469003930543809,-0.3875232101099557,0.031,-1.275,-5.129,-6.835
1621785120955.395,0.517,-0.391,0.031,-1.275,-4.960041365078387,-6.685197184833831
1621785120960.301,0.473,-0.391,0.033,-1.275,-4.717108925986386,-6.469807404441433
1621785120965.205,0.403,-0.384,0.038,-1.275,-4.474273200480488,-6.254503372655312
1621785120967.836,0.36545483052112887,-0.384,0.03639092130804838,-1.275,-4.344,-6.139
1621785120970.11,0.333,-0.384,0.035,-1.2721296510284261,-4.327208458516293,-6.062935752253294
1621785120975.014,0.264,-0.37,0.035,-1.2659402973576765,-4.291000739542408,-5.8989178799784305
1621785120979.917,0.178,-0.34,0.028,-1.2597518681149371,-4.254798428472383,-5.734924505045837
1621785120983.682,0.12196829426111194,-0.3292541934199393,0.031837788064307405,-1.255,-4.227,-5.609
1621785120984.822,0.105,-0.326,0.033,-1.2578067931390526,-4.2354203794171585,-5.607632587957897
1621785120989.724,0.035,-0.302,0.042,-1.2698748015842438,-4.271624404752732,-5.601753301792291
1621785120994.627,-0.016,-0.283,0.045,-1.2819446131085392,-4.3078338393256175,-5.595873137203532
1621785120999.524,-0.07294038547736441,-0.27400941281936353,0.04200313760645451,-1.294,-4.344,-5.59
1621785120999.529,-0.073,-0.274,0.042,-1.2939715118161217,-4.344073162835869,-5.589980899967627
1621785121004.43,-0.134,-0.272,0.04,-1.2667395211888575,-4.414009866037707,-5.571723088069802
1621785121009.331,-0.209,-0.251,0.038,-1.2395061739814086,-4.48395005318411,-5.553464366646626
1621785121014.232,-0.29,-0.232,0.047,-1.2122741833541444,-4.553886756385947,-5.535206554748801
1621785121015.361,-0.30635740971357406,-0.22716189290161892,0.047460772104607724,-1.206,-4.57,-5.531
1621785121019.133,-0.361,-0.211,0.049,-1.1452501387775242,-4.670535064454451,-5.659408530191821
1621785121024.032,-0.415,-0.185,0.065,-1.066350027755505,-4.80110701289089,-5.826181706038364
1621785121028.931,-0.454,-0.166,0.072,-0.9874499167334854,-4.93167896132733,-5.992954881884907
1621785121031.194,-0.4683205262371057,-0.1553750934369861,0.07430976229630737,-0.951,-4.992,-6.07
1621785121033.83,-0.485,-0.143,0.077,-0.9281825165440325,-5.10791947799528,-6.187584987736591
1621785121038.729,-0.503,-0.112,0.084,-0.8857766979807795,-5.323353417557499,-6.406114242522406
1621785121043.627,-0.51,-0.093,0.096,-0.8433793326854551,-5.5387444120505345,-6.62459993521218
1621785121047.021,-0.5058422889043964,-0.06943963712491277,0.09807885554780182,-0.814,-5.688,-6.776
1621785121048.525,-0.504,-0.059,0.099,-0.8112436777707488,-5.766317569548379,-6.831981854932033
1621785121053.422,-0.469,-0.026,0.106,-0.8022681797842959,-6.021345512335868,-7.014277314036198
1621785121058.318,-0.422,-0.002,0.112,-0.7932949190723797,-6.276309885667556,-7.196527333323047
1621785121062.844,-0.36468694524783085,0.02111010272264885,0.11292440410890596,-0.785,-6.512,-7.365
1621785121063.214,-0.36,0.023,0.113,-0.7953194517333992,-6.522553452906492,-7.374172845985244
1621785121068.11,-0.278,0.047,0.122,-0.9318275553360293,-6.662156978359522,-7.495513382520915
1621785121073.006,-0.188,0.061,0.122,-1.0683356589386597,-6.801760503812552,-7.616853919056586
1621785121077.901,-0.091,0.08,0.115,-1.204809727410243,-6.941329222362857,-7.738164202142438
1621785121078.661,-0.07500483887059763,0.08279527087698293,0.11282590042901328,-1.226,-6.963,-7.757
1621785121082.795,0.012,0.098,0.101,-1.3104479974060463,-6.934763517895192,-7.741574514405706
1621785121087.689,0.099,0.098,0.087,-1.4104211005774634,-6.901335978754285,-7.723313173578729
1621785121092.583,0.187,0.105,0.07,-1.5103942037488807,-6.867908439613378,-7.705051832751753
1621785121094.473,0.2132590042901327,0.10268302903322359,0.06729686720542752,-1.549,-6.855,-7.698
1621785121097.477,0.255,0.099,0.063,-1.5117524324324323,-6.843787722007723,-7.530385945945946
1621785121102.369,0.305,0.105,0.058,-1.4510998918918918,-6.82553006949807,-7.257449513513514
1621785121107.261,0.351,0.112,0.056,-1.3904443243243243,-6.8072715057915065,-6.984499459459459
1621785121110.281,0.3651985228066673,0.11508663539275377,0.05723465415710151,-1.353,-6.796,-6.816
1621785121112.153,0.374,0.117,0.058,-1.3483802233791111,-6.775033321489812,-6.723012188528262
1621785121117.044,0.382,0.126,0.065,-1.3363108460908655,-6.720256916873929,-6.480077286700755
1621785121121.936,0.386,0.131,0.065,-1.3242384564287148,-6.665466840714936,-6.237081751193363
1621785121126.085,0.3800607119676469,0.13524234859453793,0.06330306056218483,-1.314,-6.619,-6.031
1621785121126.826,0.379,0.136,0.063,-1.32596082219303,-6.602020323004404,-6.028232594080828
1621785121131.716,0.372,0.14,0.056,-1.4048983077041959,-6.489960049455219,-6.009968626844912
1621785121136.605,0.365,0.15,0.044,-1.4838160884012055,-6.377927749014759,-5.991709218762074
1621785121141.495,0.353,0.145,0.031,-1.5627535739123715,-6.2658674754655745,-5.973445251526158
1621785121141.882,0.35117916188002596,0.14444583187652962,0.028941661255681535,-1.569,-6.257,-5.972
1621785121146.383,0.33,0.138,0.005,-1.7032178187214047,-6.20371182144182,-5.9999264251267475
1621785121151.272,0.305,0.117,-0.023,-1.8490038796834425,-6.145830731420799,-6.030259830592309
1621785121156.16,0.272,0.099,-0.054,-1.994760819834302,-6.087961203165575,-6.060587176950662
1621785121157.677,0.2595831751423719,0.09279158757118594,-0.0633126186432211,-2.04,-6.07,-6.07
1621785121161.047,0.232,0.079,-0.084,-2.069240336446286,-6.147476219927021,-6.134883666274971
1621785121165.934,0.206,0.047,-0.11,-2.11164136619457,-6.259823473931598,-6.22897062279671
1621785121170.82,0.19,0.026,-0.126,-2.1540339229389573,-6.372148277568186,-6.323038777908343
1621785121173.467,0.1862085227556577,0.007042613778288454,-0.1362911525203577,-2.177,-6.433,-6.374
1621785121175.707,0.183,-0.009,-0.145,-2.1602560045778625,-6.453859045144528,-6.3976970104703135
1621785121180.593,0.19,-0.023,-0.159,-2.1237331075333676,-6.499357908411822,-6.4493861952705736
1621785121185.478,0.202,-0.049,-0.175,-2.087217510323389,-6.544847677817473,-6.501065048949102
1621785121189.253,0.20663744063984005,-0.061366508372906775,-0.1842748812796801,-2.059,-6.58,-6.541
1621785121190.362,0.208,-0.065,-0.187,-2.0107890877589223,-6.585551985520474,-6.519635397490835
1621785121195.247,0.202,-0.073,-0.19,-1.7984509536995499,-6.610004919326145,-6.4255380319601505
1621785121200.131,0.199,-0.079,-0.187,-1.5861552681651534,-6.634452964744829,-6.331459477437619
1621785121205.014,0.176,-0.077,-0.175,-1.3739126432869762,-6.65889489967978,-6.237404436675278
1621785121205.035,0.175845207739613,-0.07692260386980651,-0.174862406879656,-1.373,-6.659,-6.237
1621785121209.897,0.14,-0.059,-0.143,-1.0827019636971358,-6.831268155300744,-6.348866440740912
1621785121214.78,0.096,-0.024,-0.093,-0.791150317998236,-7.004280225306779,-6.461215960261826
1621785121219.662,0.033,0.0,-0.044,-0.4996569797131053,-7.177257694628848,-6.573543011002275
1621785121220.812,0.012503301320528216,0.004476290516206483,-0.029628751500600237,-0.431,-7.218,-6.6
1621785121224.543,-0.054,0.019,0.017,-0.3870005572582892,-7.317590136528281,-7.135799665645027
1621785121229.425,-0.141,0.023,0.063,-0.32942583820934335,-7.447907108139067,-7.8369111637410604
1621785121234.306,-0.209,0.026,0.084,-0.2718655149995356,-7.578191495619331,-8.537847357666946
1621785121236.584,-0.2150684876682175,0.03160168092450848,0.09520336184901695,-0.245,-7.639,-8.865
1621785121239.186,-0.222,0.038,0.108,-0.028190203424466653,-7.784694863299997,-9.170909712976437
1621785121244.066,-0.182,0.079,0.126,0.3784146205529926,-8.057930829488807,-9.744612409821345
1621785121248.945,-0.089,0.131,0.154,0.7849584171904512,-8.331125785676688,-10.318228999597485
1621785121252.354,0.006024419535628517,0.1701277021617294,0.16937159727782225,1.069,-8.522,-10.719
1621785121253.824,0.047,0.187,0.176,1.0425123379339187,-8.550352990380594,-10.67600418235048
1621785121258.703,0.216,0.248,0.202,0.9545984633734529,-8.644457982867854,-10.533298914137893
1621785121263.581,0.407,0.3,0.225,0.8666977864522825,-8.7385488483046,-10.39061506885388
1621785121268.115,0.5733768268268268,0.35019189189189187,0.2426601101101101,0.785,-8.826,-10.258
1621785121268.459,0.586,0.354,0.244,0.7667951323800524,-8.773349951199863,-10.2263051945034
1621785121273.336,0.719,0.372,0.248,0.5086968814389069,-8.02690752761468,-9.776954282792916
1621785121278.212,0.805,0.374,0.248,0.25065031216595146,-7.280614571875629,-9.327693349238562
1621785121283.09,0.833,0.389,0.244,-0.007512540860431627,-6.5339853134827806,-8.878229964832917
1621785121283.874,0.8326783854166666,0.39752278645833333,0.24625130208333332,-0.049,-6.414,-8.806
1621785121287.965,0.831,0.442,0.258,0.08084285891395983,-6.02940545189685,-8.217811849119762
1621785121292.841,0.813,0.501,0.278,0.23559738408132908,-5.571022548351103,-7.516773850111579
1621785121297.716,0.782,0.557,0.305,0.39032091495164895,-5.112731449913216,-6.81587625526903
1621785121299.628,0.7580723802845122,0.5766128030454819,0.3187289621318373,0.451,-4.933,-6.541
1621785121302.59,0.721,0.607,0.34,0.4436646772493334,-4.70240754635084,-6.28275902213679
1621785121307.465,0.649,0.641,0.379,0.43159250015501954,-4.3229078253859985,-5.857756479816457
1621785121312.338,0.56,0.674,0.422,0.419525764246295,-3.9435791529732747,-5.432945495132387
1621785121315.377,0.4938933867735471,0.6827310621242485,0.4388384769539078,0.412,-3.707,-5.168
1621785121317.211,0.454,0.688,0.449,0.41083513211760325,-3.598434313360625,-5.128045031633793
1621785121322.084,0.335,0.695,0.468,0.4077399826324277,-3.309966381342265,-5.021881404292271
1621785121326.956,0.209,0.7,0.478,0.40464545341769015,-3.0215562585287183,-4.915739052226771
1621785121331.121,0.10387074148296592,0.7085470941883767,0.4856923847695391,0.402,-2.775,-4.825
1621785121331.829,0.086,0.71,0.487,0.4222866405050333,-2.8041479890183183,-4.8325119045772515
1621785121336.699,-0.038,0.73,0.49,0.5618237502132741,-3.0046358983108683,-4.884180856509128
1621785121341.571,-0.182,0.747,0.49,0.7014238184610135,-3.205214266879682,-4.935873121248314
1621785121346.442,-0.307,0.756,0.485,0.8409889097423648,-3.4057423802950164,-4.987552434427882
1621785121346.861,-0.31784529777421294,0.7566885903348707,0.48474177862442347,0.853,-3.423,-4.992
1621785121351.312,-0.433,0.764,0.482,0.7893541505042668,-3.844476958882855,-5.416305663304888
1621785121356.181,-0.539,0.778,0.48,0.7197315748642359,-4.305533126454616,-5.8804561675717615
1621785121361.052,-0.604,0.773,0.461,0.650077579519007,-4.766797362296354,-6.344816136539953
1621785121362.596,-0.6144665228948292,0.7647536486283164,0.44989914238427203,0.628,-4.913,-6.492
1621785121365.92,-0.637,0.747,0.426,0.44351089622202217,-5.184556126408593,-6.875348492844504
1621785121370.788,-0.613,0.691,0.38,0.1733153230062397,-5.582266678049235,-7.4367858007636665
1621785121375.656,-0.571,0.642,0.318,-0.09686669977959206,-5.979957284326204,-7.99819495234843
1621785121378.325,-0.5380970654627539,0.6277420617005267,0.2823551542513168,-0.245,-6.198,-8.306
1621785121380.523,-0.511,0.616,0.253,-0.2848362831858407,-6.359721332091291,-8.45961429902189
1621785121385.39,-0.428,0.597,0.197,-0.37304424778761064,-6.717814718211458,-8.799756590591523
1621785121390.258,-0.337,0.574,0.152,-0.46127433628318587,-7.075997919577706,-9.139984195000775
1621785121394.05,-0.2676433194521098,0.5701035572725904,0.1153734383623501,-0.53,-7.355,-9.405
1621785121395.124,-0.248,0.569,0.105,-0.5339625091242293,-7.371738185093728,-9.402267235086738
1621785121399.989,-0.178,0.581,0.049,-0.5519122520927487,-7.4475603752193695,-9.389888102005001
1621785121404.854,-0.106,0.592,0.01,-0.5698619950612682,-7.523382565345012,-9.377508968923264
1621785121409.719,-0.009,0.595,-0.03,-0.5878117380297877,-7.599204755470654,-9.365129835841525
1621785121409.77,-0.007793847543533898,0.5948007226376273,-0.03019927736237266,-0.588,-7.6,-9.365
1621785121414.584,0.106,0.576,-0.049,-0.33868033614489645,-7.4407294530655355,-8.989795346164003
1621785121419.448,0.215,0.564,-0.072,-0.08676859748046661,-7.279803035245507,-8.610689842645666
1621785121424.312,0.319,0.546,-0.077,0.16514314118396323,-7.118876617425478,-8.231584339127329
1621785121425.487,0.3363972588985391,0.5452751142125609,-0.07603348561674783,0.226,-7.08,-8.14
1621785121429.175,0.391,0.543,-0.073,0.37318209224266535,-6.730237133267031,-7.787654991297862
1621785121434.037,0.447,0.548,-0.059,0.5672196512928891,-6.269127144455495,-7.32314083478369
1621785121438.9,0.473,0.552,-0.049,0.7612864402038786,-5.807947693933366,-6.858556703754351
1621785121441.198,0.466382776801406,0.5543632939994979,-0.04238277680140598,0.853,-5.59,-6.639
1621785121443.762,0.459,0.557,-0.035,0.8786281708530216,-5.386607000746083,-6.438871735886596
1621785121448.623,0.396,0.559,-0.017,0.9272172500621736,-5.000989212882367,-6.059443639641881
1621785121453.483,0.293,0.559,-0.005,0.9757941277045511,-4.61546826038299,-5.680110824421786
1621785121456.905,0.216985136831534,0.5646307306050715,0.006965302535777053,1.01,-4.344,-5.413
1621785121458.345,0.185,0.567,0.012,0.9938589354853757,-4.326024723608715,-5.392365116387555
1621785121463.205,0.079,0.572,0.03,0.9393794218718415,-4.26535435617546,-5.322718010915707
1621785121468.064,-0.021,0.572,0.042,0.8849135917650168,-4.20469922719286,-5.253088398563231
1621785121472.606,-0.12569014721398783,0.5776084007436064,0.05508626840174848,0.834,-4.148,-5.188
1621785121472.923,-0.133,0.578,0.056,0.8322018663970759,-4.15969797029318,-5.198485745392332
1621785121477.781,-0.234,0.574,0.063,0.8046581693755346,-4.338886740804106,-5.3591057313943535
1621785121482.639,-0.332,0.569,0.072,0.7771144723539933,-4.518075511315033,-5.519725717396376
1621785121487.498,-0.4,0.571,0.079,0.7495638541099618,-4.6973093086554165,-5.680386064235166
1621785121488.303,-0.40546903589021815,0.5711657283603095,0.07866854327938072,0.745,-4.727,-5.707
1621785121492.355,-0.433,0.572,0.077,0.7349301015883881,-4.856101261687332,-5.937574853373574
1621785121497.212,-0.445,0.565,0.059,0.7228598142472658,-5.010848535291464,-6.213953484030554
1621785121502.068,-0.447,0.555,0.044,0.7107913470962522,-5.165572473124971,-6.490290437001198
1621785121503.996,-0.44064746103569635,0.5486474610356964,0.03963262946204123,0.706,-5.227,-6.6
1621785121506.924,-0.431,0.539,0.033,0.773753898589971,-5.28000855977838,-6.6548750583621255
1621785121511.78,-0.415,0.529,0.026,0.8861215332897563,-5.36792153017711,-6.745883555887571
1621785121516.635,-0.394,0.511,0.016,0.9984665701746194,-5.455816820742678,-6.836873751050518
1621785121519.683,-0.3864660565221764,0.4978155989138087,0.013488685507392136,1.069,-5.511,-6.894
1621785121521.49,-0.382,0.49,0.012,1.0870874675051758,-5.539340872651422,-6.869115331330459
1621785121526.344,-0.379,0.473,0.012,1.1356775268130943,-5.615475615261282,-6.802265313429118
1621785121531.198,-0.38,0.454,0.016,1.184267586121013,-5.6916103578711414,-6.735415295527778
1621785121535.367,-0.38,0.4462686386960459,0.012563839420464837,1.226,-5.757,-6.678
1621785121536.051,-0.38,0.445,0.012,1.2264363330582244,-5.7745405889406225,-6.6737239360294005
1621785121540.904,-0.382,0.421,0.017,1.2295317750751358,-5.898977358020462,-6.643388604263668
1621785121545.757,-0.391,0.396,0.019,1.2326272170920474,-6.0234141271003,-6.613053272497937
1621785121550.609,-0.396,0.377,0.033,1.2357218804989334,-6.1478195960571185,-6.582725571110454
1621785121551.045,-0.39680895822848516,0.3749326623049824,0.032820231504781076,1.236,-6.159,-6.58
1621785121555.46,-0.405,0.354,0.031,1.2275501907951094,-6.310814905381201,-6.679426088310879
1621785121560.311,-0.398,0.323,0.044,1.2182658671443034,-6.477623253640682,-6.788671629935363
1621785121565.163,-0.387,0.298,0.058,1.2089796744801806,-6.644465181839421,-6.897939163616541
1621785121566.72,-0.38218474704253713,0.28708542662975084,0.059605084319154296,1.206,-6.698,-6.933
1621785121570.013,-0.372,0.264,0.063,1.1566157297768913,-6.794877227969588,-7.081362956500063
1621785121574.862,-0.337,0.225,0.077,1.083894023432631,-6.9375355540321575,-7.299837529602393
1621785121579.712,-0.3,0.178,0.082,1.0111613330425029,-7.080215427520877,-7.518345101582949
1621785121582.39,-0.2712766643166482,0.1492766643166482,0.08310474368012892,0.971,-7.159,-7.639
1621785121584.56,-0.248,0.126,0.084,0.8989569825436409,-7.228272132169576,-7.697465679551122
1621785121589.41,-0.187,0.077,0.08,0.7379563591022443,-7.383080423940149,-7.828123877805487
1621785121594.258,-0.12,0.023,0.073,0.5770124688279301,-7.537834164588529,-7.958736034912718
1621785121598.054,-0.06126328514582179,-0.018507278496952606,0.06360212562333148,0.451,-7.659,-8.061
1621785121599.105,-0.045,-0.03,0.061,0.4477111273951886,-7.6780620371380905,-8.047844509580754
1621785121603.952,0.033,-0.077,0.052,0.432544115124963,-7.765968802132868,-7.987176460499852
1621785121608.799,0.105,-0.112,0.049,0.4173763388889755,-7.853879995010836,-7.926505355555902
1621785121613.646,0.18,-0.136,0.044,0.4022093266187499,-7.941786760005613,-7.865837306475
1621785121613.713,0.18088364827412445,-0.13631756109851348,0.044207105064247916,0.402,-7.943,-7.865
1621785121618.491,0.244,-0.159,0.059,0.5189028369126156,-7.8801227561253295,-7.679420561767963
1621785121623.336,0.302,-0.168,0.072,0.6374423493816186,-7.816365211559756,-7.491242954506465
1621785121628.181,0.351,-0.159,0.091,0.7559818618506216,-7.752607666994183,-7.303065347244966
1621785121629.367,0.3595679012345679,-0.159,0.09809911816578483,0.785,-7.737,-7.257
1621785121633.026,0.386,-0.159,0.12,0.87898583529632,-7.56516022651046,-7.094278255307864
1621785121637.87,0.408,-0.15,0.14,1.003418139556651,-7.337653401556869,-6.878843221066097
1621785121642.714,0.426,-0.141,0.162,1.127844172659626,-7.110158042525311,-6.663419044350499
1621785121645.017,0.4236222524702561,-0.13386675741076828,0.1715109901189756,1.187,-7.002,-6.561
1621785121647.557,0.421,-0.126,0.182,1.2012849296258152,-6.8937267265861495,-6.471719189838654
1621785121652.399,0.405,-0.119,0.197,1.2285187092344663,-6.6873070561433074,-6.301508067284586
1621785121657.242,0.387,-0.103,0.215,1.2557579814624098,-6.48084575414287,-6.131262615859939
1621785121660.663,0.3665100589925881,-0.1015869006201785,0.2199458478293753,1.275,-6.335,-6.011
1621785121662.084,0.358,-0.101,0.222,1.2473813240505143,-6.320736407486614,-5.983381324050514
1621785121666.926,0.321,-0.089,0.229,1.1532642793587362,-6.272129907431979,-5.889264279358736
1621785121671.766,0.281,-0.082,0.227,1.059185198482696,-6.223543013690077,-5.795185198482696
1621785121676.303,0.24538601977002217,-0.08668605003026023,0.227,0.971,-6.178,-5.707
1621785121676.607,0.243,-0.087,0.227,0.9598538531691746,-6.186345417236662,-5.710898312813497
1621785121681.55,0.206,-0.101,0.211,0.7785879616963064,-6.322064021887825,-5.774295212038304
1621785121686.535,0.176,-0.124,0.192,0.5957911536707707,-6.458928864569083,-5.838227542179663
1621785121691.528,0.157,-0.154,0.164,0.412689952880377,-6.5960216142270855,-5.902266332269342
1621785121692.365,0.1541476677597768,-0.1615502912241202,0.15930204101610299,0.382,-6.619,-5.913
1621785121696.516,0.14,-0.199,0.136,0.25087676317743135,-6.684690423162583,-6.067308092056422
1621785121701.503,0.12,-0.271,0.086,0.09335613532718207,-6.763605472478523,-6.252681090253473
1621785121706.491,0.094,-0.351,0.035,-0.0642030513764526,-6.842539839098222,-6.438099465175825
1621785121708.479,0.07726371421580622,-0.38168319060435524,0.013481918277465133,-0.127,-6.874,-6.512
1621785121711.48,0.052,-0.428,-0.019,-0.14543716194718423,-6.863198430374377,-6.9284191324636755
1621785121716.467,0.028,-0.445,-0.044,-0.17607626926048817,-6.845248246291835,-7.620429677438904
1621785121721.455,0.031,-0.44,-0.049,-0.20672137630107723,-6.827294547217551,-8.312575731406147
1621785121724.593,0.03477455826929666,-0.4444036513141794,-0.06661460525671774,-0.226,-6.816,-8.748
1621785121726.443,0.037,-0.447,-0.077,-0.47247355743739683,-6.670779203466089,-8.957393464725575
1621785121731.431,0.031,-0.494,-0.131,-1.1369569011225402,-6.279269455090819,-9.521910287679326
1621785121736.418,-0.005,-0.574,-0.194,-1.8013426701610338,-5.887817197133812,-10.086344215358046
1621785121740.709,-0.04112390506483974,-0.6428074382187423,-0.26108725226327384,-2.373,-5.551,-10.572
1621785121741.407,-0.047,-0.654,-0.272,-2.398513249397755,-5.564991136766511,-10.563466706058815
1621785121746.395,-0.044,-0.756,-0.374,-2.5808361589624718,-5.66497466781813,-10.5024860385134
1621785121751.382,0.003,-0.841,-0.473,-2.763123373180007,-5.764938624001939,-10.44151730981925
1621785121756.37,0.103,-0.908,-0.545,-2.945446282744724,-5.8649221550535575,-10.380536642273835
1621785121756.823,0.11316935878609886,-0.9099067547723936,-0.5495398923152227,-2.962,-5.874,-10.375
1621785121761.358,0.215,-0.929,-0.595,-2.5092120381171696,-5.755245170966715,-10.09077635705304
1621785121766.346,0.333,-0.916,-0.627,-2.0111818443498417,-5.624624448922084,-9.778153301922524
1621785121771.334,0.428,-0.89,-0.648,-1.513151650582514,-5.494003726877453,-9.465530246792007
1621785121772.938,0.4456863589643189,-0.8809960354363467,-0.6557176839117028,-1.353,-5.452,-9.365
1621785121776.322,0.483,-0.862,-0.672,-1.1327308175910076,-5.3121532168880945,-8.82136137916408
1621785121781.309,0.504,-0.831,-0.693,-0.808119419490691,-5.106060565663299,-8.020199406159579
1621785121786.297,0.496,-0.773,-0.709,-0.4834444562269926,-4.89992755752829,-7.2188805502113285
1621785121789.054,0.47665491923641706,-0.7431533039647576,-0.7012619676945667,-0.304,-4.786,-6.776
1621785121791.285,0.461,-0.719,-0.695,-0.10036730241929373,-4.833481995425005,-6.529038251200557
1621785121796.273,0.386,-0.646,-0.649,0.35492046780082115,-4.939643589704746,-5.976874157337413
1621785121801.26,0.293,-0.585,-0.593,0.8101191013618942,-5.045784399569769,-5.4248181666691915
1621785121805.17,0.1989370564338505,-0.5356169546277715,-0.538913807449464,1.167,-5.129,-4.992
1621785121806.248,0.173,-0.522,-0.524,1.1997799912135856,-5.177567905349108,-5.002436078835346
1621785121811.236,0.037,-0.464,-0.45,1.351439411613216,-5.40227145475754,-5.0507194861462485
1621785121816.223,-0.106,-0.428,-0.377,1.5030617169865628,-5.6269200133311115,-5.098991077244701
1621785121821.212,-0.23,-0.393,-0.298,1.6547508294072202,-5.851667555407433,-5.147283937525564
1621785121821.286,-0.23142371885859725,-0.3927627135235671,-0.2969470412608291,1.657,-5.855,-5.148
1621785121826.2,-0.326,-0.377,-0.227,1.5764965382459437,-6.105963443271168,-5.674321874952656
1621785121831.187,-0.375,-0.349,-0.154,1.49479720332692,-6.36065493053767,-6.208462223703546
1621785121836.175,-0.377,-0.356,-0.089,1.4130818701046859,-6.615396291302438,-6.742707167421637
1621785121837.401,-0.3688885298869144,-0.3564916042492779,-0.07572668526949625,1.393,-6.678,-6.874
1621785121841.162,-0.344,-0.358,-0.035,1.2716249109888944,-6.84745829735012,-7.1809389270184685
1621785121846.151,-0.283,-0.365,0.031,1.110637077102556,-7.072222080814508,-7.58805239155796
1621785121851.139,-0.192,-0.368,0.094,0.9496728785055224,-7.296952865778828,-7.995106086086996
1621785121853.515,-0.1562678807460714,-0.368,0.12496783668673814,0.873,-7.404,-8.189
1621785121856.126,-0.117,-0.368,0.159,0.6981609017771919,-7.332541202672606,-8.254139311849462
1621785121861.114,-0.042,-0.38,0.211,0.3641601896883475,-7.196031180400891,-8.378577019226398
1621785121866.102,0.019,-0.375,0.22,0.030159477599503104,-7.059521158129176,-8.503014726603336
1621785121869.629,0.0684943957711321,-0.38489887915422644,0.21505056042288678,-0.206,-6.963,-8.591
1621785121871.09,0.089,-0.389,0.213,-0.25849920462981196,-6.91140751738452,-8.563435650764312
1621785121876.077,0.129,-0.393,0.213,-0.4376719287348312,-6.735329313557653,-8.469362234308482
1621785121881.065,0.154,-0.403,0.223,-0.6168885118245034,-6.5592080082415505,-8.375265789991971
1621785121885.744,0.18308478973907083,-0.406752876095364,0.22018534292847702,-0.785,-6.394,-8.287
1621785121886.052,0.185,-0.407,0.22,-0.7923029752166273,-6.387060261770587,-8.267308731745745
1621785121891.041,0.222,-0.405,0.202,-0.910556777555596,-6.274688193055808,-7.948456856329153
1621785121896.029,0.241,-0.428,0.187,-1.0287874325880144,-6.162338120341756,-7.629667393807186
1621785121901.016,0.239,-0.417,0.176,-1.1469949403138824,-6.050010043628431,-7.310940344179846
1621785121901.86,0.23984605971610376,-0.4146310327949094,0.17515394028389622,-1.167,-6.031,-7.257
1621785121906.004,0.244,-0.403,0.171,-1.1721427878861332,-5.9428011877528135,-7.0451171390913085
1621785121910.991,0.258,-0.4,0.152,-1.1783321314406048,-5.8366539457936275,-6.790116184647083
1621785121915.98,0.272,-0.403,0.14,-1.1845238989804112,-5.730465132485948,-6.5350153620070595
1621785121917.975,0.2659991188133353,-0.4058004112204435,0.1355993537964459,-1.187,-5.688,-6.433
1621785121920.967,0.257,-0.41,0.129,-1.22152897068848,-5.622469211542831,-6.318274710293115
1621785121925.955,0.211,-0.407,0.136,-1.2790941604180868,-5.5132191471635235,-6.127009725062486
1621785121930.942,0.169,-0.403,0.131,-1.3366452624403544,-5.403995819132016,-5.9357915473755964
1621785121934.092,0.14373838774411435,-0.4061577015319857,0.1278422984680143,-1.373,-5.335,-5.815
1621785121935.93,0.129,-0.408,0.126,-1.4099517172421108,-5.339447891890254,-5.798234869029042
1621785121940.917,0.082,-0.412,0.11,-1.510219082824549,-5.351517111821473,-5.752743193903677
1621785121945.906,0.024,-0.405,0.112,-1.6105257169694123,-5.363591058524095,-5.7072337024861
1621785121950.207,-0.014809663680422962,-0.4032751260586479,0.1145873109120282,-1.697,-5.374,-5.668
1621785121950.893,-0.021,-0.403,0.115,-1.7078550090136493,-5.367742406568602,-5.683452424595901
1621785121955.881,-0.049,-0.401,0.106,-1.7867798094257017,-5.322244580448713,-5.795804199300116
1621785121960.868,-0.07,-0.412,0.099,-1.8656852948750966,-5.276757888836709,-5.908128478586902
1621785121965.856,-0.08,-0.421,0.087,-1.944610095287149,-5.23126006271682,-6.020480253291118
1621785121966.323,-0.08056179335323772,-0.421,0.08540825216582644,-1.952,-5.227,-6.031
1621785121970.844,-0.086,-0.421,0.07,-1.982018422288545,-5.193895571681791,-5.9925651976305545
1621785121975.832,-0.089,-0.417,0.056,-2.0151378944657385,-5.1573712939536716,-5.950159892132652
1621785121980.819,-0.113,-0.412,0.037,-2.048250882482161,-5.12085416698229,-5.907762888784523
1621785121982.438,-0.12338629466470877,-0.4136228585413607,0.03407885462555066,-2.059,-5.109,-5.894
1621785121985.807,-0.145,-0.417,0.028,-2.0282672605790646,-5.1213349090192875,-5.8385974425404905
1621785121990.794,-0.185,-0.407,0.023,-1.982772828507795,-5.139594579034286,-5.756583670439222
1621785121995.783,-0.237,-0.401,0.014,-1.937260579064588,-5.157861400239383,-5.6745377785858215
1621785121998.552,-0.2664280119449748,-0.394337053899251,0.010113281441229745,-1.912,-5.168,-5.629
1621785122000.77,-0.29,-0.389,0.007,-1.9093850570359485,-5.204471572919665,-5.654598915332293
1621785122005.758,-0.34,-0.37,0.009,-1.9035043856326976,-5.286491463543955,-5.712167593279908
1621785122010.745,-0.396,-0.354,0.003,-1.8976248655527108,-5.368495296238506,-5.769725000378725
1621785122014.668,-0.43611886810927253,-0.33354724370899835,-0.001719866836385,-1.893,-5.433,-5.815
1621785122015.732,-0.447,-0.328,-0.003,-1.8800586488492947,-5.477700483311365,-5.862935821099041
1621785122020.721,-0.487,-0.302,-0.019,-1.8193756495916853,-5.687304516461373,-6.087710604063452
1621785122025.708,-0.503,-0.279,-0.026,-1.7587164068299925,-5.896826492735179,-6.312397391027681
1621785122030.696,-0.506,-0.257,-0.028,-1.6980452858203416,-6.106389497447086,-6.537128175992001
1621785122030.782,-0.5057070543887991,-0.25648303715670434,-0.028034464189553042,-1.697,-6.11,-6.541
1621785122035.683,-0.489,-0.227,-0.03,-1.676017268802545,-6.324692872831933,-6.809518139816709
1621785122040.671,-0.454,-0.197,-0.031,-1.654663485571461,-6.543182307051428,-7.0827846701507235
