time,gyro_x,gyro_y,gyro_z,acc_x,acc_y,acc_z
1621787175686.641,,,,-0.127,-4.089,-11.415
1621787175705.272,,,,0.765,-4.462,-10.013
1621787175724.208,,,,1.971,-5.247,-8.444
1621787175724.37,0.674,1.477,0.963,1.9790123840580631,-5.250218433974952,-8.438456205352045
1621787175730.293,0.634,1.445,0.967,2.271754006420424,-5.367807602999581,-8.235907322581873
1621787175736.244,0.606,1.414,0.969,2.565883315780792,-5.485954181522883,-8.0323982946543
1621787175742.225,0.599,1.381,0.984,2.861508913730317,-5.60470179289693,-7.827853979774397
1621787175743.449,0.5985926377376889,1.3759079717211116,0.9872588980984885,2.922,-5.629,-7.786
1621787175748.234,0.597,1.356,1.0,3.157230101537424,-5.660331376687607,-7.627629681899362
1621787175754.273,0.597,1.323,1.014,3.4541152381071325,-5.699874870424258,-7.427749678402378
1621787175760.341,0.597,1.311,1.04,3.752428630306361,-5.739608600082429,-7.226908091770848
1621787175762.997,0.5922095992954646,1.3057741083223249,1.0539357111404668,3.883,-5.757,-7.139
1621787175766.44,0.586,1.299,1.072,3.9254073463701387,-5.698060976231332,-6.932234237754634
1621787175768.093,0.56,1.304,1.093,3.9457690072886047,-5.669761718683634,-6.832956761073073
1621787175773.65,0.527,1.3,1.131,4.014215583003448,-5.574632579554529,-6.499231366486009
1621787175777.367,0.5002836148278131,1.312022373327484,1.1563805659135775,4.06,-5.511,-6.276
1621787175779.215,0.487,1.318,1.169,3.9433508009370217,-5.461798228866231,-6.282047717701859
1621787175784.788,0.428,1.335,1.213,3.5916003033134283,-5.31343246536946,-6.300284342798337
1621787175790.368,0.358,1.342,1.251,3.2394183423379506,-5.164884713815655,-6.3185433372601585
1621787175795.397,0.29679257155341926,1.3401997815162772,1.2762030587721214,2.922,-5.031,-6.335
1621787175795.955,0.29,1.34,1.279,2.8884612314247957,-5.02162887348634,-6.357965425173279
1621787175801.549,0.227,1.337,1.297,2.55229596267429,-4.927700342511934,-6.588152121146741
1621787175807.15,0.187,1.33,1.311,2.215719895358559,-4.8336570295854795,-6.818620108417163
1621787175812.758,0.155,1.321,1.328,1.878703686722943,-4.7394907359961165,-7.049389479220044
1621787175813.502,0.15155601443290007,1.32007277311655,1.3295895318002,1.834,-4.727,-7.08
1621787175818.374,0.129,1.314,1.34,1.7919281321337452,-4.763712394252719,-7.132790815093326
1621787175823.996,0.122,1.318,1.342,1.7433797770914463,-4.806076245467974,-7.1937081777897145
1621787175829.627,0.119,1.307,1.36,1.694755525715053,-4.848506324694508,-7.2547207734658254
1621787175831.683,0.1164471051833889,1.2964237214740397,1.3661998874117698,1.677,-4.864,-7.277
1621787175835.265,0.112,1.278,1.377,1.8251384074252395,-4.82946707323597,-7.249923046060022
1621787175840.909,0.098,1.293,1.393,2.058569237147595,-4.775051409618573,-7.2072562189054725
1621787175846.561,0.082,1.307,1.414,2.292333279837372,-4.720558069865725,-7.164528486599262
1621787175849.938,0.06409758833426808,1.3135642176107685,1.4241446999439147,2.432,-4.688,-7.139
1621787175852.22,0.052,1.318,1.431,2.519902040707587,-4.695221414109121,-7.15120169970162
1621787175857.886,0.035,1.335,1.45,2.7381571557971016,-4.713151721014492,-7.1814977355072465
1621787175863.56,0.028,1.356,1.475,2.9567226129582265,-4.731107523444161,-7.211836849957375
1621787175868.266,0.020544415316515536,1.370911169366969,1.4882543727706392,3.138,-4.746,-7.237
1621787175869.241,0.019,1.374,1.491,3.142184646202011,-4.751191080098698,-7.22767724390438
1621787175874.929,0.012,1.4,1.511,3.166600846355894,-4.7814795309225016,-7.173281658751426
1621787175880.624,0.005,1.428,1.527,3.191047438380515,-4.811805683054311,-7.118818365126954
1621787175886.326,0.0,1.457,1.559,3.215523374280332,-4.84216823644902,-7.064289697805842
1621787175886.67,-0.0010241576877030956,1.4592290490850008,1.560566358816487,3.217,-4.844,-7.061
1621787175892.036,-0.017,1.494,1.585,3.0601855296884497,-4.781564609042624,-7.083650979045002
1621787175897.754,-0.037,1.527,1.611,2.893082762994477,-4.7150329519329865,-7.1077880453452424
1621787175903.478,-0.051,1.56,1.63,2.7258016277779245,-4.648430277726396,-7.131950875987633
1621787175905.148,-0.05595356564709891,1.573695152083156,1.6346621794325635,2.677,-4.629,-7.139
1621787175909.209,-0.068,1.607,1.646,2.571933480715329,-4.596823378469069,-7.173365507349361
1621787175914.947,-0.08,1.6,1.663,2.423479807350677,-4.551359441001145,-7.221922229679049
1621787175920.693,-0.082,1.625,1.681,2.274817693734949,-4.505831668706328,-7.27054712934086
1621787175923.701,-0.08304566287557291,1.6239543371244272,1.698253437446953,2.197,-4.482,-7.296
1621787175926.446,-0.084,1.623,1.714,2.1377659909053977,-4.483326134531969,-7.21363231073661
1621787175932.207,-0.094,1.625,1.742,2.0134556998519177,-4.486109200749584,-7.040772975664732
1621787175937.975,-0.119,1.63,1.761,1.8889926352068562,-4.488895687271488,-6.867701201693116
1621787175942.331,-0.14766790697674417,1.6224558139534884,1.7791060465116277,1.795,-4.491,-6.737
1621787175943.749,-0.157,1.62,1.785,1.764420769321441,-4.4999759930847505,-6.722090723350752
1621787175949.511,-0.208,1.606,1.806,1.6401610545754588,-4.536450237711681,-6.661506384817885
1621787175955.279,-0.258,1.592,1.833,1.5157697143530706,-4.572963118672481,-6.600857870679607
1621787175960.972,-0.31318586763587186,1.576232609246894,1.8497528526751754,1.393,-4.609,-6.541
1621787175961.056,-0.314,1.576,1.85,1.3933501774900814,-4.610629672165379,-6.543599394445605
1621787175966.837,-0.372,1.569,1.871,1.4174544007099603,-4.722807018688662,-6.722526897577783
1621787175972.625,-0.415,1.557,1.894,1.4415881447066194,-4.835121750365421,-6.901673535706828
1621787175978.421,-0.447,1.524,1.923,1.4657544633535187,-4.947588079452913,-7.081061977970349
1621787175979.679,-0.448518075838559,1.5190120365304491,1.929939775261984,1.471,-4.972,-7.12
1621787175984.222,-0.454,1.501,1.955,1.4947115477134723,-5.0525708713121045,-7.290819925364401
1621787175990.03,-0.452,1.475,1.99,1.5250263435057927,-5.155579310075806,-7.509210188929486
1621787175995.845,-0.428,1.457,2.019,1.5553768187551198,-5.258708986178111,-7.727857490215454
1621787175998.455,-0.41903517672215,1.45341407068886,2.027068340950065,1.569,-5.305,-7.826
1621787176001.668,-0.408,1.449,2.037,1.5908216677678026,-5.333470457165805,-7.879531278742891
1621787176007.496,-0.372,1.419,2.058,1.6304057751350511,-5.385115347246512,-7.976636042128172
1621787176013.33,-0.342,1.393,2.075,1.6700296788568911,-5.4368121591336,-8.07383843094581
1621787176017.301,-0.31617067157006146,1.3896014041539555,2.0879146642149693,1.697,-5.472,-8.14
1621787176019.172,-0.304,1.388,2.094,1.7279590625161323,-5.470021785142739,-8.170068865830366
1621787176025.021,-0.26,1.374,2.119,1.82473440968458,-5.4638380568891645,-8.264061535284705
1621787176030.875,-0.209,1.354,2.135,1.9215945872696296,-5.457648908161685,-8.358136595942389
1621787176036.218,-0.16342713756195076,1.3467083420099122,2.14411457248761,2.01,-5.452,-8.444
1621787176036.737,-0.159,1.346,2.145,2.010820100037289,-5.449321006544856,-8.43809527973152
1621787176042.604,-0.099,1.333,2.15,2.0200900078435406,-5.419039307711101,-8.371351943526507
1621787176048.479,-0.052,1.326,2.15,2.0293726453305214,-5.388716025253629,-8.304516953620244
1621787176054.361,-0.01,1.328,2.154,2.0386664695066283,-5.358356199611681,-8.237601419552275
1621787176055.205,-0.005126342414064768,1.325706514077207,2.1547167143508728,2.04,-5.354,-8.228
1621787176060.249,0.024,1.312,2.159,2.0613843254863453,-5.348790997637941,-8.133963799463892
1621787176065.871,0.051,1.323,2.166,2.085219671435017,-5.342984951829932,-8.0291493935614
1621787176071.493,0.08,1.342,2.173,2.1090539823243715,-5.337179158151756,-7.924339539265904
1621787176073.603,0.09238574778530485,1.3446272798332466,2.174876628452319,2.118,-5.335,-7.885
1621787176077.115,0.113,1.349,2.178,2.1065937667992687,-5.260956147188474,-7.8925397134716695
1621787176082.737,0.136,1.37,2.189,2.0883342785721966,-5.142424215138157,-7.904609544672616
1621787176088.359,0.159,1.381,2.194,2.0700755832706164,-5.02389743038383,-7.916678851736373
1621787176091.769,0.16324669909659487,1.3925267546907574,2.194,2.059,-4.952,-7.924
1621787176093.98,0.166,1.4,2.194,2.066180733254489,-4.900761208472208,-7.909638533491023
1621787176099.601,0.169,1.417,2.189,2.0844370497795937,-4.770491560047306,-7.873125900440813
1621787176105.222,0.161,1.429,2.185,2.1026925733792066,-4.64022756961617,-7.836614853241587
1621787176109.935,0.1417184731631058,1.4440898905680042,2.1833233454924437,2.118,-4.531,-7.806
1621787176110.844,0.138,1.447,2.183,2.121953185483871,-4.513786129032257,-7.798644072580645
1621787176116.465,0.117,1.456,2.185,2.1464007123655913,-4.407331075268817,-7.7531531048387095
1621787176122.086,0.082,1.463,2.185,2.170847177419355,-4.300880645161291,-7.707664112903226
1621787176127.707,0.045,1.473,2.183,2.1952947043010753,-4.19442559139785,-7.66217314516129
1621787176128.099,0.04186041965332986,1.4739767583300754,2.1836279160693337,2.197,-4.187,-7.659
1621787176133.327,0.0,1.487,2.192,2.151808498339853,-4.127704144318534,-7.647774085574868
1621787176138.948,-0.042,1.501,2.194,2.103217028941673,-4.06394718447124,-7.6357035931765935
1621787176144.569,-0.094,1.51,2.19,2.054625559543493,-4.000190224623946,-7.62363310077832
1621787176146.261,-0.10724644858595074,1.5178274468916981,2.187892610452235,2.04,-3.981,-7.62
1621787176150.189,-0.138,1.536,2.183,1.9783588078722374,-3.942933860300048,-7.694185715437974
1621787176155.809,-0.169,1.517,2.18,1.8901631311501854,-3.888469161692746,-7.800329986019251
1621787176161.428,-0.209,1.518,2.175,1.8019866107436682,-3.834016292950476,-7.906451201806743
1621787176164.422,-0.23244118158123372,1.5164017376194614,2.162746655082537,1.755,-3.805,-7.963
1621787176167.048,-0.253,1.515,2.152,1.7082882285714285,-3.846071650420168,-7.968640121008404
1621787176172.669,-0.278,1.518,2.142,1.6083026285714284,-3.933984685714286,-7.980712685714286
1621787176178.288,-0.311,1.522,2.126,1.5083474285714285,-4.021870991596639,-7.9927815798319335
1621787176182.58,-0.33620265867326987,1.5181814153525348,2.1114893783396327,1.432,-4.089,-8.002
1621787176183.908,-0.344,1.517,2.107,1.4069152626695889,-4.11627873768001,-8.032862271584355
1621787176189.527,-0.367,1.499,2.105,1.3007651772868456,-4.231713087090398,-8.163460918906564
1621787176195.146,-0.386,1.482,2.091,1.1946197039168494,-4.3471424211050005,-8.294053891974022
1621787176200.737,-0.386,1.4521550825369243,2.077072371850565,1.089,-4.462,-8.424
1621787176200.766,-0.386,1.452,2.077,1.0884815442333293,-4.462548859036938,-8.424548859036937
1621787176206.385,-0.375,1.436,2.053,0.9882104562507563,-4.5687000416851555,-8.530700041685156
1621787176212.003,-0.344,1.417,2.03,0.8879567953527774,-4.674832775290115,-8.636832775290115
1621787176217.622,-0.323,1.388,2.011,0.7876813505990561,-4.780988570199147,-8.742988570199147
1621787176218.893,-0.3146291338924862,1.3848326452566164,2.00489153013776,0.765,-4.805,-8.767
1621787176223.24,-0.286,1.374,1.984,0.6498386381056114,-4.844983258703457,-8.813926459316631
1621787176228.859,-0.25,1.33,1.953,0.5009793994648164,-4.896666196027808,-8.874584277972756
1621787176234.478,-0.206,1.302,1.915,0.3521136929014213,-4.948351378971856,-8.935244732206488
1621787176237.049,-0.18265575694353892,1.2878103620637198,1.8971485200156475,0.284,-4.972,-8.963
1621787176240.095,-0.155,1.271,1.876,0.22413989017561026,-4.968608492361224,-8.956386560104386
1621787176245.643,-0.106,1.246,1.84,0.11510486326319797,-4.962430870439841,-8.94434019735769
1621787176251.189,-0.065,1.216,1.803,0.006113018539661841,-4.956255695101397,-8.932298605447723
1621787176255.011,-0.034678214552977954,1.1946369238895982,1.7726782145529778,-0.069,-4.952,-8.924
1621787176256.735,-0.021,1.185,1.759,-0.1095281151596941,-4.955850652271705,-8.887226270805218
1621787176262.279,0.014,1.148,1.726,-0.23984706716285664,-4.968232500443027,-8.768979620769095
1621787176267.82,0.045,1.122,1.686,-0.37009715236031027,-4.98060780544991,-8.650795457953352
1621787176272.921,0.06985508459640465,1.0768926242509693,1.6537804458935494,-0.49,-4.992,-8.542
1621787176273.361,0.072,1.073,1.651,-0.5027903740689204,-4.990056847016453,-8.534743922403209
1621787176278.901,0.099,1.021,1.611,-0.6637589697416169,-4.96560200267387,-8.44342519985812
1621787176284.439,0.122,0.967,1.576,-0.8246779078333469,-4.9411547024637805,-8.352134648440698
1621787176289.975,0.141,0.908,1.531,-0.9855400944039726,-4.916716024119396,-8.260876292597747
1621787176290.817,0.14297715142693307,0.8991788628644524,1.5258289885757135,-1.01,-4.913,-8.247
1621787176295.51,0.154,0.85,1.497,-1.0512043279404737,-4.85893572257492,-8.198184681548229
1621787176301.043,0.169,0.799,1.456,-1.099782265001024,-4.795196518533689,-8.14063374974401
1621787176306.575,0.162,0.737,1.417,-1.148351628097481,-4.731468564407127,-8.083092975629736
1621787176308.699,0.16276790679200318,0.715498609823911,1.3997220971799287,-1.167,-4.707,-8.061
1621787176312.107,0.164,0.681,1.372,-1.0565488759822343,-4.692120573966519,-8.092857232661428
1621787176317.636,0.161,0.648,1.342,-0.8773536180389477,-4.667980280150324,-8.144542220703793
1621787176323.164,0.171,0.613,1.332,-0.6981900102494021,-4.643844250085412,-8.196218079945336
1621787176326.564,0.17223053812847927,0.5871586993019351,1.3221556949721658,-0.588,-4.629,-8.228
1621787176328.69,0.173,0.571,1.316,-0.6838663603293126,-4.602085965919969,-8.228
1621787176334.215,0.166,0.518,1.264,-0.9330110089986597,-4.532139766417767,-8.228
1621787176339.74,0.154,0.475,1.199,-1.1821446486693472,-4.462196657640655,-8.228
1621787176344.416,0.14807237598372977,0.44366827305685735,1.1515790078698382,-1.393,-4.403,-8.228
1621787176345.262,0.147,0.438,1.143,-1.3957817842065194,-4.425110388262163,-8.19883922762821
1621787176350.783,0.134,0.407,1.103,-1.4139368399197176,-4.569411779361893,-8.008524160841581
1621787176356.207,0.131,0.377,1.079,-1.4317731746141602,-4.711179887881514,-7.821550169561908
1621787176361.629,0.133,0.346,1.052,-1.4496022838950793,-4.852890566821233,-7.634651920548135
1621787176362.054,0.13354913711530664,0.3427051773081602,1.049568107060785,-1.451,-4.864,-7.62
1621787176367.047,0.14,0.304,1.021,-1.5043614800759013,-4.967584049559102,-7.465908025449269
1621787176372.462,0.14,0.26,0.979,-1.562228889943074,-5.079914904007143,-7.298804275030696
1621787176377.874,0.12,0.23,0.939,-1.6200675996204934,-5.192190046322135,-7.1317834021654205
1621787176379.552,0.11100189607692655,0.2241046905331588,0.9318635727506659,-1.638,-5.227,-7.08
1621787176383.282,0.091,0.211,0.916,-1.6881912404065256,-5.325460263095355,-7.130404820152936
1621787176388.689,0.059,0.188,0.885,-1.760948499294032,-5.468188332657655,-7.203471684397411
1621787176394.092,0.026,0.159,0.846,-1.8336531950288677,-5.610813288971523,-7.276485761816224
1621787176397.016,0.015711411520028935,0.14492087892214486,0.8178417578442897,-1.873,-5.688,-7.316
1621787176399.492,0.007,0.133,0.794,-1.8924557688806734,-5.811977271772466,-7.393965088434231
1621787176404.889,-0.005,0.115,0.74,-1.934866697475108,-6.082230853253791,-7.563918371633828
1621787176410.282,-0.01,0.117,0.691,-1.9772469296587263,-6.352288829139184,-7.733748645128766
1621787176414.45,-0.004589151498686951,0.1193189350719913,0.6399834284161913,-2.01,-6.561,-7.865
1621787176415.674,-0.003,0.12,0.625,-2.01485368762188,-6.621706266922937,-7.913958936012009
1621787176421.061,0.014,0.126,0.564,-2.0362132044501187,-6.888855006383367,-8.129411453583804
1621787176426.446,0.056,0.147,0.503,-2.057564977061968,-7.155906887021423,-8.344785855581588
1621787176431.827,0.11,0.155,0.442,-2.0789002932139904,-7.422752942661934,-8.559994261984595
1621787176431.852,0.11032717702046559,0.155084131233834,0.44171956255388667,-2.079,-7.424,-8.561
1621787176437.207,0.18,0.173,0.382,-2.133557588532884,-7.496435216413715,-8.464214221472737
1621787176442.582,0.251,0.152,0.326,-2.188319139966273,-7.569141231028667,-8.367066610455312
1621787176447.954,0.321,0.119,0.291,-2.2430508431703204,-7.641807616638561,-8.269971950534007
1621787176449.225,0.336387658587604,0.10692660633895684,0.2836612705197581,-2.256,-7.659,-8.247
1621787176453.323,0.386,0.068,0.26,-2.0838607450099587,-7.526457515785904,-7.879722168072212
1621787176458.691,0.431,0.038,0.251,-1.858372165953299,-7.352837521718862,-7.398617748018816
1621787176464.016,0.449,0.0,0.255,-1.6346783065643937,-7.1805994123546775,-6.92134255766976
1621787176466.508,0.4438482609892631,-0.01077181793154079,0.2606200789208039,-1.53,-7.1,-6.698
1621787176469.337,0.438,-0.023,0.267,-1.374863282971133,-6.967590317949884,-6.468588697642026
1621787176474.654,0.393,-0.037,0.286,-1.0832673081569708,-6.718712224796396,-6.0373857327629095
1621787176479.968,0.318,-0.044,0.312,-0.7918453885185553,-6.469982688289723,-5.606440155208437
1621787176483.685,0.2459,-0.034199999999999994,0.3456,-0.588,-6.296,-5.305
1621787176485.278,0.215,-0.03,0.36,-0.5506372765472545,-6.258637276547255,-5.311413004771739
1621787176490.585,0.098,-0.002,0.41,-0.42616930418061394,-6.134169304180614,-5.332776910476461
1621787176495.888,-0.014,0.014,0.456,-0.301792949220141,-6.009792949220142,-5.354125090805498
1621787176500.825,-0.11832834308351374,0.04008208577087844,0.4830135888341241,-0.186,-5.894,-5.374
1621787176501.188,-0.126,0.042,0.485,-0.19453304593599224,-5.902108516287435,-5.395226482427841
1621787176506.483,-0.213,0.075,0.52,-0.3189881234476261,-6.020371798897993,-5.704816227481657
1621787176511.775,-0.272,0.089,0.538,-0.4433743397950153,-6.138569646272875,-6.014234676107003
1621787176517.064,-0.3,0.103,0.559,-0.5676916949781596,-6.256702058412082,-6.32348182830388
1621787176517.928,-0.3003269586104952,0.10561566888396157,0.559,-0.588,-6.276,-6.374
1621787176522.349,-0.302,0.119,0.559,-0.6771060920312969,-6.34982336113058,-6.628107779891576
1621787176527.63,-0.269,0.113,0.559,-0.7835374118522122,-6.4380004720287225,-6.931622677404128
1621787176532.907,-0.23,0.117,0.545,-0.8898949235456509,-6.526116433751484,-7.234927093018267
1621787176534.996,-0.20742111841496158,0.117,0.5422271548930655,-0.932,-6.561,-7.355
1621787176538.181,-0.173,0.117,0.538,-0.9282594982078853,-6.529766810035842,-7.386233189964158
1621787176543.452,-0.127,0.124,0.529,-0.9220688172043011,-6.478074623655914,-7.4379253763440865
1621787176548.719,-0.08,0.136,0.525,-0.9158827240143369,-6.426420745519714,-7.489579254480287
1621787176552.025,-0.056125922145409,0.14039785644689834,0.519973878346402,-0.912,-6.394,-7.522
1621787176553.981,-0.042,0.143,0.517,-0.9052029448135047,-6.35897788514077,-7.482369712132977
1621787176559.24,-0.023,0.162,0.51,-0.886928435855405,-6.264817703390562,-7.375820032784056
1621787176564.496,-0.012,0.182,0.513,-0.8686641072096166,-6.170709976130906,-7.269329709832341
1621787176569.004,-0.01543980252433515,0.19833906199059198,0.5112800987378324,-0.853,-6.09,-7.178
1621787176569.738,-0.016,0.201,0.511,-0.8615061193857522,-6.082318453411846,-7.169493880614247
1621787176574.975,-0.021,0.215,0.511,-0.9221861216949544,-6.027520696224454,-7.108813878305046
1621787176580.208,-0.033,0.244,0.513,-0.9828180348689527,-5.972766366470385,-7.0481819651310476
1621787176585.437,-0.045,0.265,0.508,-1.0434046876804064,-5.918052909594735,-6.987595312319594
1621787176585.92,-0.04629341429238673,0.2664781877627277,0.508184773470341,-1.049,-5.913,-6.982
1621787176590.664,-0.059,0.281,0.51,-1.0765511574074074,-5.929586921296297,-6.957260185185185
1621787176595.885,-0.075,0.295,0.506,-1.1068713252314815,-5.94784089988426,-6.930033912037037
1621787176601.104,-0.079,0.319,0.503,-1.137180150462963,-5.966088049768519,-6.9028178240740745
1621787176602.795,-0.07932429648358852,0.32191866835229666,0.5007299246148804,-1.147,-5.972,-6.894
1621787176606.318,-0.08,0.328,0.496,-1.134861853935843,-6.019296913974129,-6.869305151110853
1621787176611.528,-0.072,0.351,0.478,-1.1169124369162944,-6.089237745808922,-6.832787371657289
1621787176616.735,-0.059,0.361,0.466,-1.0989731132896339,-6.159139248216254,-6.796290127037531
1621787176619.63,-0.050654309980761106,0.3715712073577026,0.4593234479846089,-1.089,-6.198,-6.776
1621787176621.938,-0.044,0.38,0.454,-1.0391111805666604,-6.24788881943334,-6.7544227420081695
1621787176627.137,-0.016,0.396,0.44,-0.9267373271889401,-6.36026267281106,-6.705820276497696
1621787176632.333,0.017,0.408,0.443,-0.8144267978891974,-6.4725732021108024,-6.657245199087063
1621787176636.424,0.043796068102718466,0.42612675195183897,0.44063564104976016,-0.726,-6.561,-6.619
1621787176637.524,0.051,0.431,0.44,-0.7298729818732879,-6.56224723145072,-6.616439893337996
1621787176642.711,0.089,0.445,0.438,-0.7481383254648248,-6.568129291251385,-6.604366191641895
1621787176647.895,0.127,0.463,0.422,-0.7663933525674652,-6.574008028792912,-6.592299309319811
1621787176653.074,0.164,0.483,0.41,-0.7846303258145364,-6.579880952380952,-6.580244360902256
1621787176653.179,0.1645677906154209,0.4835069559066258,0.40979721763734966,-0.785,-6.58,-6.58
1621787176658.251,0.192,0.508,0.4,-0.8174661525653946,-6.511730053016694,-6.547230425448014
1621787176663.424,0.208,0.515,0.386,-0.850579284055558,-6.442099636331771,-6.51380782543925
1621787176668.592,0.204,0.52,0.377,-0.8836595977741752,-6.372538228979539,-6.480418349910178
1621787176669.895,0.20147874149659864,0.5192436224489796,0.3734702380952381,-0.892,-6.355,-6.472
1621787176673.76,0.194,0.517,0.363,-1.039728214129004,-6.266316761737604,-6.42661641070645
1621787176678.927,0.175,0.508,0.339,-1.2372217346789527,-6.1477587392131055,-6.365944420067281
1621787176684.089,0.157,0.485,0.314,-1.4345286236653503,-6.029312754131929,-6.305329764516601
1621787176686.587,0.15215829823482088,0.47918995788178503,0.2980223841749089,-1.53,-5.972,-6.276
1621787176689.248,0.147,0.473,0.281,-1.5723440592245108,-5.953304698380122,-6.263536465586748
1621787176694.402,0.133,0.463,0.258,-1.6543555669574141,-5.917095844022576,-6.239397229348384
1621787176699.553,0.113,0.447,0.234,-1.7363165726013339,-5.880909286813751,-6.215272857875834
1621787176703.241,0.09365721331689272,0.43410480887792846,0.21895561035758324,-1.795,-5.855,-6.198
1621787176704.701,0.086,0.429,0.213,-1.7803239672579245,-5.848057445589078,-6.236755272091349
1621787176709.844,0.052,0.421,0.204,-1.7286240833541522,-5.823600614281306,-6.3732801152144845
1621787176714.984,0.003,0.403,0.192,-1.6769561038693843,-5.799158875483122,-6.5097207077461166
1621787176719.854,-0.03493657585698664,0.38498012646793134,0.18725792801787666,-1.628,-5.776,-6.639
1621787176720.119,-0.037,0.384,0.187,-1.6264338130238174,-5.777885816971321,-6.653415312780782
1621787176725.252,-0.07,0.361,0.178,-1.5960844294530938,-5.8144289522911725,-6.932753516666422
1621787176730.38,-0.11,0.337,0.171,-1.5657653591786835,-5.850935587927708,-7.21181271449824
1621787176735.505,-0.134,0.3,0.164,-1.5354636107878805,-5.887421366602348,-7.490712480299304
1621787176736.429,-0.13652670226969293,0.29097606332252524,0.16237569139805455,-1.53,-5.894,-7.541
1621787176740.625,-0.148,0.25,0.155,-1.495236239886612,-5.956168768085986,-7.755165062304377
1621787176745.742,-0.141,0.197,0.145,-1.45284293982165,-6.031981603968582,-8.016332545916258
1621787176750.856,-0.126,0.15,0.138,-1.4104739118880294,-6.107751033484911,-8.277350499025571
1621787176752.965,-0.10990017680508433,0.13142328092894345,0.13139494433029103,-1.393,-6.139,-8.385
1621787176755.965,-0.087,0.105,0.122,-1.362625127666188,-6.16391830844151,-8.422468405393804
1621787176761.071,-0.035,0.056,0.105,-1.3109275300108054,-6.206328912506105,-8.48623909471721
1621787176766.172,0.017,0.014,0.086,-1.2592793706241951,-6.248698959428055,-8.54994880030788
1621787176769.459,0.051165142446732106,-0.005983385204692363,0.07439674407469477,-1.226,-6.276,-8.591
1621787176771.271,0.07,-0.017,0.068,-1.1892181731853522,-6.2609128434921955,-8.541333521277227
1621787176776.365,0.11,-0.054,0.049,-1.0858157457415871,-6.218499272953885,-8.401709285417532
1621787176781.455,0.136,-0.08,0.035,-0.9824926108374384,-6.176118226600986,-8.2621921182266
1621787176785.913,0.15265098867344978,-0.08525820694951046,0.030618160875407946,-0.892,-6.139,-8.14
1621787176786.542,0.155,-0.086,0.03,-0.8717337299226651,-6.134096252230815,-8.118584414039264
1621787176791.625,0.175,-0.089,0.023,-0.7079356930398573,-6.09446270077335,-7.945497263533611
1621787176796.704,0.183,-0.099,0.023,-0.5442635336109458,-6.054859607376562,-7.772543129089828
1621787176801.779,0.183,-0.094,0.017,-0.3807251189767996,-6.015288875669245,-7.599730324211779
1621787176802.329,0.1834337906137184,-0.09215638989169675,0.01775913357400722,-0.363,-6.011,-7.581
1621787176806.851,0.187,-0.077,0.024,-0.22218818198080018,-5.9731740802575874,-7.442673096416433
1621787176811.918,0.183,-0.068,0.026,-0.06440778725180368,-5.930789935006857,-7.287677061594419
1621787176816.983,0.178,-0.047,0.035,0.09331178820583153,-5.888422127481963,-7.1327407727625065
1621787176818.707,0.17629634275788864,-0.03814098234102094,0.038407314484222715,0.147,-5.874,-7.08
1621787176822.043,0.173,-0.021,0.045,0.20907938785270205,-5.870120038259206,-6.994028216164515
1621787176827.099,0.169,-0.01,0.066,0.3031707317073171,-5.864239329268293,-6.863724085365853
1621787176832.152,0.159,0.0,0.086,0.39720301291248206,-5.85836231169297,-6.7335017485652795
1621787176835.043,0.15270159574468084,0.014887137330754351,0.09458873307543521,0.451,-5.855,-6.659
1621787176837.201,0.148,0.026,0.101,0.47388255254420736,-5.865083836714397,-6.622155212005089
1621787176842.386,0.136,0.051,0.12,0.5288638457825686,-5.8893128811923185,-6.533626011028067
1621787176847.568,0.129,0.07,0.143,0.5838140732181774,-5.913528235655468,-6.4451468312588664
1621787176851.735,0.12095550737616062,0.0933290286091342,0.16150233303483055,0.628,-5.933,-6.374
1621787176852.748,0.119,0.099,0.166,0.6160716704124223,-5.938933889845597,-6.37284955196871
1621787176857.926,0.11,0.129,0.187,0.5550960275531946,-5.969266950760339,-6.3669686524036075
1621787176863.102,0.103,0.152,0.208,0.4941433846064038,-5.999588570094276,-6.361089971104171
1621787176868.275,0.098,0.164,0.223,0.4332281165173229,-6.029891596859403,-6.355214894486442
1621787176868.464,0.09785364241537227,0.16425612577309853,0.22358543033851094,0.431,-6.031,-6.355
1621787176873.446,0.094,0.171,0.239,0.25266706124775307,-6.069171598930247,-6.468918365557456
1621787176878.615,0.091,0.185,0.248,0.06763986438101915,-6.108776082540517,-6.587112996331857
1621787176883.782,0.089,0.204,0.25,-0.117317418562848,-6.1483656012977335,-6.705262966372923
1621787176885.17,0.09276276475037822,0.2053438445537065,0.2502687689107413,-0.167,-6.159,-6.737
1621787176888.946,0.103,0.209,0.251,-0.28016544236003393,-6.229841566917381,-6.841338537855951
1621787176894.108,0.122,0.234,0.248,-0.43485975591910797,-6.326680207205362,-6.9839666949574175
1621787176899.267,0.14,0.258,0.239,-0.5894735871696567,-6.423468465568205,-7.126520647370424
1621787176901.854,0.15303999621337627,0.2660246130543854,0.2354892317887064,-0.667,-6.472,-7.198
1621787176904.425,0.166,0.274,0.232,-0.7259556972228329,-6.500860511467722,-7.204019037151022
1621787176909.58,0.195,0.29,0.213,-0.8441638015681102,-6.558726782443028,-7.216087403825017
1621787176914.733,0.227,0.298,0.195,-0.9623215212134535,-6.616568388656848,-7.228150626511321
1621787176918.513,0.24461516947143874,0.30313775776250296,0.18105465750177765,-1.049,-6.659,-7.237
1621787176919.883,0.251,0.305,0.176,-1.0425752718946766,-6.649280539532972,-7.21929081355584
1621787176925.031,0.276,0.302,0.162,-1.018435603892387,-6.612761554606432,-7.15275198508799
1621787176930.178,0.283,0.304,0.141,-0.9943005151688609,-6.576249497306739,-7.086225778991091
1621787176935.147,0.29072776459420974,0.29820417655434267,0.12264655908875177,-0.971,-6.541,-7.022
1621787176935.322,0.291,0.298,0.122,-0.9669639177530533,-6.538207410455769,-7.019207410455769
1621787176940.463,0.29,0.3,0.113,-0.8484314437308014,-6.456194079865959,-6.937194079865959
1621787176945.602,0.284,0.295,0.105,-0.7299383735798586,-6.374208013051338,-6.855208013051338
1621787176950.739,0.258,0.293,0.096,-0.6114959655491703,-6.292256999661959,-6.7732569996619585
1621787176951.758,0.25462634907050824,0.2920077497266201,0.09560309989064802,-0.588,-6.276,-6.757
1621787176955.874,0.241,0.288,0.094,-0.5224741770213768,-6.246960146634474,-6.713067914139332
1621787176961.006,0.211,0.279,0.087,-0.44077192155938993,-6.210751192509274,-6.658290265590955
1621787176966.135,0.183,0.281,0.086,-0.3591201931570579,-6.174564631058241,-6.603546493139391
1621787176968.341,0.17052646610814928,0.2736879284082255,0.08901085300837776,-0.324,-6.159,-6.58
1621787176971.264,0.154,0.264,0.093,-0.3204699464830677,-6.150351368883515,-6.631891786698905
1621787176976.389,0.124,0.244,0.099,-0.31428026360406314,-6.135186645829955,-6.722880125020271
1621787176981.512,0.094,0.23,0.091,-0.308092939598107,-6.120027702015363,-6.813833787907827
1621787176984.901,0.08407365560640732,0.21147082379862703,0.09232351258581235,-0.304,-6.11,-6.874
1621787176986.633,0.079,0.202,0.093,-0.3296640140553948,-6.111990270477765,-6.924385268410795
1621787176991.751,0.063,0.176,0.084,-0.4054913187267466,-6.11787075532983,-7.073254384928837
1621787176996.869,0.059,0.155,0.073,-0.4813186233980984,-6.123751240181893,-7.222123501446879
1621787177001.437,0.0706145251396648,0.12909067468844004,0.05781177481736141,-0.549,-6.129,-7.355
1621787177001.982,0.072,0.126,0.056,-0.5509302581240931,-6.129327162393913,-7.359809287190537
1621787177007.094,0.093,0.099,0.037,-0.5690385353912903,-6.132396361930727,-7.404926520381689
1621787177012.272,0.115,0.08,0.014,-0.5873803116251117,-6.1355051375635785,-7.450625522184601
1621787177017.449,0.133,0.058,0.0,-0.6057186286149832,-6.138613326883895,-7.4963159051932635
1621787177018.093,0.1342445157333585,0.05625767797329811,-0.0014934188800301929,-0.608,-6.139,-7.502
1621787177022.624,0.143,0.044,-0.012,-0.5548697290586431,-6.115145592638575,-7.398450186226539
1621787177027.796,0.159,0.028,-0.024,-0.4942246695391806,-6.087917198568612,-7.280254202877383
1621787177032.967,0.168,0.012,-0.04,-0.43358819834952167,-6.060692660483459,-7.162074958007741
1621787177034.808,0.16835604343720492,0.01093186968838527,-0.0432043909348442,-0.412,-6.051,-7.12
1621787177038.138,0.169,0.009,-0.049,-0.35915111858458837,-6.0196895306331335,-7.043618409124141
1621787177043.306,0.162,0.007,-0.063,-0.2771286006726129,-5.971095057756982,-6.925072656821173
1621787177048.472,0.148,0.002,-0.068,-0.19513708144465564,-5.922518950138909,-6.806571706389823
1621787177051.505,0.13507895234493192,0.00376196104387292,-0.068,-0.147,-5.894,-6.737
1621787177053.636,0.126,0.005,-0.068,-0.09691703989930037,-5.898982743479406,-6.714513773016012
1621787177058.799,0.096,0.005,-0.066,0.024420391674716796,-5.911054579783964,-6.660035742513393
1621787177063.961,0.077,0.016,-0.061,0.1457291355639472,-5.923123561956617,-6.605570592195779
1621787177068.185,0.054079106737320214,0.016,-0.05363257002271007,0.245,-5.933,-6.561
1621787177069.121,0.049,0.016,-0.052,0.2543817750230779,-5.935190953448503,-6.569819992087564
1621787177074.279,0.024,0.021,-0.044,0.3060794174102891,-5.947264055562882,-6.61842196726596
1621787177079.436,0.003,0.038,-0.035,0.357767271821472,-5.9593348718625,-6.667014740574677
1621787177084.59,-0.012,0.04,-0.023,0.4094257623045702,-5.971398830717834,-6.715579908274356
1621787177084.847,-0.012598123756277836,0.04054828010992135,-0.02245171989007865,0.412,-5.972,-6.718
1621787177089.743,-0.024,0.051,-0.012,0.42347153040570273,-6.006708733022383,-6.81300780310364
1621787177094.894,-0.035,0.059,-0.002,0.4355408342867201,-6.0432261139957175,-6.912966396784887
1621787177100.044,-0.031,0.084,0.002,0.44760727800756844,-6.0797348411511045,-7.0129013024729385
1621787177101.492,-0.0307187233235322,0.08090595655885421,0.0042502134117423885,0.451,-6.09,-7.041
1621787177105.192,-0.03,0.073,0.01,0.451,-6.118258893831945,-7.08461215111072
1621787177110.339,-0.031,0.075,0.016,0.451,-6.157571481008383,-7.145283545493253
1621787177115.483,-0.023,0.091,0.024,0.451,-6.196857962971119,-7.205914651514484
1621787177118.12,-0.01838507547707206,0.09253830817430932,0.027589385740055067,0.451,-6.217,-7.237
1621787177120.626,-0.014,0.094,0.031,0.43772303395560785,-6.211115890048507,-7.248919094517125
1621787177125.768,-0.003,0.106,0.037,0.4104783477877407,-6.1990415404968395,-7.273377392326915
1621787177130.908,0.003,0.099,0.044,0.38324530354255476,-6.186972350433632,-7.297825238865206
1621787177134.729,0.00448766693598213,0.09825616653200894,0.0462315004039732,0.363,-6.178,-7.316
1621787177136.045,0.005,0.098,0.047,0.35832124939310567,-6.17260754167341,-7.312907266547985
1621787177141.182,0.012,0.098,0.047,0.34005676117053363,-6.151556945077903,-7.300834130265268
1621787177146.317,0.016,0.094,0.049,0.32179921729023525,-6.130514352131119,-7.288765584310495
1621787177151.323,0.022826872770511295,0.09887633769322236,0.044123662306777646,0.304,-6.11,-7.277
1621787177151.45,0.023,0.099,0.044,0.304153186725781,-6.110145527389492,-7.276241725707384
1621787177156.581,0.028,0.093,0.052,0.3103445817560501,-6.116027352668247,-7.245594320307552
1621787177161.711,0.026,0.094,0.051,0.3165345038370329,-6.121907778645181,-7.214954206006687
1621787177166.839,0.028,0.091,0.051,0.32272236378901475,-6.127786245599563,-7.184324299244377
1621787177167.898,0.02903666698537145,0.09141466679414857,0.052036666985371446,0.324,-6.129,-7.178
1621787177171.946,0.033,0.093,0.056,0.3141716013159065,-6.13637129901307,-7.153920423223971
1621787177177.045,0.037,0.091,0.052,0.3017920037936042,-6.145655997154797,-7.12359040929433
1621787177182.142,0.037,0.087,0.063,0.289416555525918,-6.1549375833555615,-7.0932705610385
1621787177184.373,0.03918937179548613,0.08349700512722219,0.05905913076812497,0.284,-6.159,-7.08
1621787177187.237,0.042,0.079,0.054,0.2636333783442893,-6.162307400097935,-7.073211126114764
1621787177192.331,0.044,0.079,0.061,0.22740888249172736,-6.168190010535532,-7.0611362941639095
1621787177197.422,0.042,0.072,0.058,0.19120522028164,-6.174069237732041,-7.049068406760547
1621787177200.826,0.03932450585300326,0.06464239109575896,0.05532450585300326,0.167,-6.178,-7.041
1621787177202.511,0.038,0.061,0.054,0.167,-6.1861006982617734,-7.043050809686525
1621787177207.599,0.038,0.059,0.052,0.167,-6.2105612390432325,-7.049243351656515
1621787177212.685,0.044,0.047,0.051,0.167,-6.2350112167582825,-7.0554332194324765
1621787177217.259,0.04489985590778098,0.04520028818443804,0.051,0.167,-6.257,-7.061
1621787177217.768,0.045,0.045,0.051,0.16575944546914978,-6.260039358600583,-7.060379722734575
1621787177222.849,0.047,0.04,0.047,0.15337650978758852,-6.290377551020408,-7.054188254893794
1621787177227.93,0.056,0.031,0.044,0.14099416909620993,-6.320714285714286,-7.047997084548105
1621787177233.007,0.054,0.03,0.044,0.12862075325757125,-6.351029154518951,-7.041810376628786
1621787177233.672,0.05452407291616565,0.029082872396710115,0.043213890625751525,0.127,-6.355,-7.041
1621787177238.083,0.058,0.023,0.038,0.1428772807840684,-6.365495151704724,-7.030504848295277
1621787177243.156,0.07,0.017,0.031,0.16113786734587485,-6.3775657089235445,-7.0184342910764554
1621787177248.228,0.077,0.014,0.031,0.17939493870741915,-6.389633942535413,-7.006366057464588
1621787177250.063,0.08025728318967593,0.014723840708816873,0.03063807964559156,0.186,-6.394,-7.002
1621787177253.298,0.086,0.016,0.03,0.19390443808160343,-6.405659046170365,-6.98065801717967
1621787177258.365,0.091,0.007,0.024,0.20628453829634932,-6.4239196939871155,-6.947231746599857
1621787177263.431,0.098,0.012,0.024,0.21866225244571702,-6.442176822357433,-6.913811918396564
1621787177266.434,0.098,0.010813961336354433,0.023406980668177216,0.226,-6.453,-6.894
1621787177268.495,0.098,0.01,0.023,0.2284018508258337,-6.448069885146973,-6.87908324223956
1621787177273.557,0.101,0.003,0.017,0.23430063940342313,-6.435961845435079,-6.842448660547162
1621787177278.591,0.099,0.0,0.017,0.24016727811802757,-6.423919797547207,-6.806013746424881
1621787177282.738,0.099,0.0,0.020296492164378246,0.245,-6.414,-6.776
1621787177283.623,0.099,0.0,0.021,0.24608965206282407,-6.4118206958743516,-6.773875178477493
1621787177288.653,0.091,-0.005,0.016,0.2522827834974074,-6.399434433005185,-6.761798572180055
1621787177293.682,0.087,-0.003,0.01,0.2584744119636282,-6.3870511760727435,-6.749724896670925
1621787177298.707,0.087,-0.002,0.01,0.2646615315247614,-6.374676936950477,-6.737660013526716
1621787177298.982,0.08661689511033342,-0.0015074365704286965,0.01,0.265,-6.374,-6.737
1621787177303.73,0.08,0.007,0.01,0.2705610871986275,-6.362585136802817,-6.725585136802818
1621787177308.751,0.072,0.0,0.005,0.27644186256509046,-6.350514071576919,-6.7135140715769195
1621787177313.77,0.066,-0.002,0.007,0.28232035035969055,-6.338447701893267,-6.701447701893267
1621787177315.204,0.06314160583941605,-0.0022858394160583943,0.0064283211678832115,0.284,-6.335,-6.698
1621787177318.787,0.056,-0.003,0.005,0.2928492266875697,-6.3436279960203805,-6.711052609364166
1621787177323.801,0.051,-0.007,0.009,0.30523247610720855,-6.3557016642045285,-6.729317902258132
1621787177328.812,0.051,-0.016,0.003,0.3176084898549851,-6.36776827760861,-6.747572522536103
1621787177331.4,0.044286236297198536,-0.016,0.003,0.324,-6.374,-6.757
1621787177333.823,0.038,-0.016,0.003,0.324,-6.382839535059249,-6.774529247490376
1621787177338.831,0.04,-0.012,0.003,0.324,-6.401109095026039,-6.810758713865197
1621787177343.836,0.042,-0.016,0.005,0.324,-6.41936707676051,-6.846965220016605
1621787177347.573,0.043493584426989314,-0.014506415573010686,0.0035064155730106846,0.324,-6.433,-6.874
1621787177348.84,0.044,-0.014,0.003,0.324,-6.433,-6.88019696809395
1621787177353.841,0.049,-0.017,0.002,0.324,-6.433,-6.9046552907214
1621787177358.839,0.059,-0.023,0.003,0.324,-6.433,-6.929099285098922
1621787177363.726,0.06486922738601378,-0.023,0.003,0.324,-6.433,-6.953
1621787177363.835,0.065,-0.023,0.003,0.3242634057696676,-6.432338108578784,-6.952864920118119
1621787177368.829,0.073,-0.021,0.0,0.33634463542061027,-6.4019801468918,-6.946669417733021
1621787177373.822,0.075,-0.017,-0.003,0.3484229120920724,-6.371629605512228,-6.940475429696373
1621787177378.806,0.079,-0.021,-0.003,0.3604793367153782,-6.341333974407511,-6.934292647838268
1621787177379.848,0.07753599255157544,-0.022045719606017544,-0.004254863527221052,0.363,-6.335,-6.933
1621787177383.788,0.072,-0.026,-0.009,0.3725515880844348,-6.3398982502997105,-6.913896823831131
1621787177388.767,0.068,-0.031,-0.002,0.3846214243440521,-6.346087909920027,-6.889757151311896
1621787177393.744,0.058,-0.024,0.0,0.3966859341092918,-6.3522748380047656,-6.865628131781417
1621787177395.936,0.055356785398881364,-0.023559464233146893,0.0008810715337062114,0.402,-6.355,-6.855
1621787177398.72,0.052,-0.023,0.002,0.402,-6.36175882245661,-6.841309051946868
1621787177403.693,0.056,-0.024,0.003,0.402,-6.373832593695857,-6.816851925590443
1621787177408.663,0.049,-0.017,0.003,0.402,-6.385898659533725,-6.7924104076111735
1621787177412.0,0.049,-0.017,0.0043433583959899755,0.402,-6.394,-6.776
1621787177413.631,0.049,-0.017,0.005,0.39996621004566213,-6.396033789954338,-6.778033789954338
1621787177418.597,0.047,-0.016,0.007,0.3937744292237443,-6.402225570776256,-6.784225570776256
1621787177423.56,0.047,-0.014,0.003,0.38758599695586,-6.40841400304414,-6.79041400304414
1621787177428.04,0.044290846456692914,-0.010387795275590552,0.003,0.382,-6.414,-6.796
1621787177428.521,0.044,-0.01,0.003,0.3826006372242633,-6.412798725551473,-6.796600637224263
1621787177433.481,0.044,-0.01,0.007,0.38879482293397566,-6.400410354132048,-6.802794822933976
1621787177438.437,0.037,-0.014,0.009,0.3949841303718158,-6.388031739256368,-6.808984130371816
1621787177443.391,0.044,-0.007,0.007,0.40117099867371986,-6.37565800265256,-6.81517099867372
1621787177444.055,0.04306162796430508,-0.006329734260217917,0.007670265739782084,0.402,-6.374,-6.816
1621787177448.343,0.037,-0.002,0.012,0.402,-6.37936346285976,-6.800177784563707
1621787177453.292,0.033,0.003,0.012,0.402,-6.38555355370639,-6.78191701656615
1621787177458.24,0.028,0.002,0.016,0.402,-6.391742423085732,-6.763659851897091
1621787177460.045,0.028,0.002,0.016365068391684362,0.402,-6.394,-6.757
1621787177463.184,0.028,0.002,0.017,0.402,-6.397932049968655,-6.757
1621787177468.127,0.024,0.005,0.017,0.402,-6.404123392608676,-6.757
1621787177473.067,0.026,0.012,0.021,0.402,-6.410311065580037,-6.757
1621787177476.012,0.024807178878671017,0.012,0.022789231681993476,0.402,-6.414,-6.757
1621787177478.005,0.024,0.012,0.024,0.402,-6.4114999617169195,-6.766750149304014
1621787177482.941,0.023,0.023,0.024,0.402,-6.40530790315912,-6.7908991776794325
1621787177487.874,0.021,0.024,0.031,0.402,-6.399119519777039,-6.815033872869546
1621787177491.955,0.022655295340892213,0.027310590681784423,0.030172352329553894,0.402,-6.394,-6.835
1621787177492.805,0.023,0.028,0.03,0.39991806220095694,-6.389782741381426,-6.840231536007852
1621787177497.734,0.028,0.033,0.035,0.3878433014354067,-6.365323610599926,-6.870573242546927
1621787177502.66,0.031,0.03,0.035,0.3757757177033493,-6.340879017911913,-6.90089691448902
1621787177507.584,0.024,0.024,0.037,0.3637129186602871,-6.316444117286223,-6.931208563366458
1621787177507.875,0.024,0.0237043797430683,0.03717737215415902,0.363,-6.315,-6.933
1621787177512.506,0.024,0.019,0.04,0.3571728872914939,-6.292274260436827,-6.933
1621787177517.426,0.021,0.028,0.04,0.3509823672165392,-6.268131232144503,-6.933
1621787177522.343,0.016,0.033,0.038,0.3447955334377784,-6.244002580407336,-6.933
1621787177523.77,0.014838434022257553,0.030967259538950714,0.03916156597774245,0.343,-6.237,-6.933
1621787177527.257,0.012,0.026,0.042,0.343,-6.237,-6.933
1621787177532.169,0.007,0.038,0.042,0.343,-6.237,-6.933
1621787177537.08,0.005,0.031,0.044,0.343,-6.237,-6.933
1621787177539.642,0.0023899417997313836,0.031,0.042955976719892555,0.343,-6.237,-6.933
1621787177541.988,0.0,0.031,0.042,0.33145303424794714,-6.239960760449244,-6.935960760449245
1621787177546.893,0.0,0.033,0.044,0.30731003404766677,-6.246151273321111,-6.9421512733211115
1621787177551.797,-0.007,0.042,0.044,0.28317184057680755,-6.252340553698255,-6.948340553698254
1621787177555.489,-0.007,0.038986749028594204,0.042493374514297105,0.265,-6.257,-6.953
1621787177556.698,-0.007,0.038,0.042,0.26049172157328687,-6.259980048451556,-6.955215933463978
1621787177561.596,-0.007,0.031,0.04,0.24222736741401393,-6.27205309611616,-6.964193327881247
1621787177566.492,-0.005,0.035,0.042,0.22397029641859675,-6.2841213294860125,-6.973167142438317
1621787177571.311,-0.0030306295520303303,0.035,0.04396937044796967,0.206,-6.296,-6.982
1621787177571.386,-0.003,0.035,0.044,0.20581495734421365,-6.296,-6.981909851013848
1621787177576.279,-0.009,0.03,0.042,0.1937347459198813,-6.296,-6.976024619807122
1621787177581.167,0.0,0.033,0.037,0.1816671921364985,-6.296,-6.970145555143422
1621787177586.054,0.0,0.024,0.033,0.1696020493323442,-6.296,-6.964267665059348
1621787177587.108,0.0010787645559498227,0.024863011644759857,0.03386301164475986,0.167,-6.296,-6.963
1621787177590.939,0.005,0.028,0.037,0.15728584693956513,-6.3006142227037065,-6.951100162500968
1621787177595.822,0.005,0.024,0.031,0.14490420181072508,-6.306495504139906,-6.935932647218138
1621787177600.702,0.003,0.03,0.033,0.1325306043488354,-6.312372962934304,-6.920774990327323
1621787177602.883,0.003,0.025975071332031835,0.030763928517795466,0.127,-6.315,-6.914
1621787177605.579,0.003,0.021,0.028,0.12032490700557967,-6.318423124612524,-6.907153750774953
1621787177610.455,0.0,0.019,0.028,0.10825255734655921,-6.324614073155611,-6.894771853688779
1621787177615.328,0.0,0.014,0.026,0.09618806571605704,-6.3308009919404835,-6.882398016119033
1621787177618.635,0.0,0.01535785886126704,0.02464214113873296,0.088,-6.335,-6.874
1621787177620.199,0.0,0.016,0.024,0.08024238472286911,-6.3369891321223415,-6.874
1621787177625.067,0.0,0.016,0.023,0.05609641360037261,-6.343180406769135,-6.874
1621787177629.934,-0.002,0.016,0.016,0.03195407545412202,-6.349370749883558,-6.874
1621787177634.36,-0.00290995332028309,0.010540280078301462,0.01690995332028309,0.01,-6.355,-6.874
1621787177634.798,-0.003,0.01,0.017,0.008354358743139664,-6.35444215550615,-6.875115688987702
1621787177639.659,-0.003,0.009,0.012,-0.009909140378426282,-6.348251138854771,-6.887497722290458
1621787177644.518,-0.007,0.0,0.007,-0.028166218380260892,-6.342062298854149,-6.899875402291702
1621787177649.375,-0.005,-0.01,0.002,-0.04641504065672663,-6.335876257404499,-6.912247485191001
1621787177650.063,-0.004716584531831439,-0.010283415468168562,0.0017165845318314393,-0.049,-6.335,-6.914
1621787177654.23,-0.003,-0.012,0.0,-0.04368460472431136,-6.329684604724312,-6.919049625511904
1621787177659.082,0.0,-0.024,-0.005,-0.03749535198766758,-6.323495351987668,-6.924929415611715
1621787177663.932,-0.002,-0.024,-0.01,-0.03130890207253079,-6.317308902072531,-6.930806543031095
1621787177665.742,-0.002,-0.024,-0.01074670158122671,-0.029,-6.315,-6.933
1621787177668.78,-0.002,-0.024,-0.012,-0.029,-6.318881532774997,-6.938822299162495
1621787177673.625,0.0,-0.031,-0.021,-0.029,-6.325071585645441,-6.948107378468161
1621787177678.468,0.002,-0.035,-0.023,-0.029,-6.331259143155695,-6.9573887147335425
1621787177681.396,0.000790357557113319,-0.03681446366433002,-0.026024106107216703,-0.029,-6.335,-6.963
1621787177683.309,0.0,-0.038,-0.028,-0.03389688788901388,-6.332551556055493,-6.965326021747281
1621787177688.148,-0.003,-0.042,-0.031,-0.04628283964504437,-6.3263585801774775,-6.971209348831397
1621787177692.984,-0.003,-0.044,-0.035,-0.058661292338457696,-6.320169353830772,-6.977089113860767
1621787177697.023,-0.0004928268337037788,-0.04650717316629622,-0.04085007072135785,-0.069,-6.315,-6.982
1621787177697.817,0.0,-0.047,-0.042,-0.06696463777186669,-6.315,-6.982
1621787177702.649,-0.007,-0.049,-0.049,-0.05457721796276013,-6.315,-6.982
1621787177707.479,-0.005,-0.051,-0.049,-0.042194805194805195,-6.315,-6.982
1621787177712.305,-0.005,-0.047,-0.051,-0.029823032389297448,-6.315,-6.982
1621787177712.626,-0.004667240244951668,-0.04733275975504833,-0.051199655853029,-0.029,-6.315,-6.982
1621787177717.129,0.0,-0.052,-0.054,-0.020619516169466032,-6.309509338179995,-6.982
1621787177721.951,0.0,-0.051,-0.058,-0.011645164828277765,-6.303629590749561,-6.982
1621787177726.772,0.0,-0.054,-0.058,-0.002672630985209326,-6.297751034093758,-6.982
1621787177728.208,0.0,-0.055192438295068674,-0.06008676701637018,0.0,-6.296,-6.982
1621787177731.589,0.0,-0.058,-0.065,0.010648062137141064,-6.296,-6.971351937862859
1621787177736.404,0.002,-0.059,-0.065,0.02581168994194257,-6.296,-6.9561883100580575
1621787177741.217,0.0,-0.056,-0.066,0.04096916679742665,-6.296,-6.941030833202573
1621787177743.767,0.0015904476702872804,-0.05706029844685819,-0.06546985077657091,0.049,-6.296,-6.933
1621787177746.027,0.003,-0.058,-0.065,0.060349533944261936,-6.301674766972131,-6.921650466055738
1621787177750.836,0.0,-0.063,-0.065,0.08449901758908501,-6.313749508794543,-6.897500982410915
1621787177755.642,-0.002,-0.056,-0.061,0.10863501469686729,-6.325817507348433,-6.873364985303133
1621787177759.299,-0.0027612440920872085,-0.056,-0.05947751181582558,0.127,-6.335,-6.855
1621787177760.446,-0.003,-0.056,-0.059,0.12847910271546636,-6.336479102715466,-6.856405147579693
1621787177765.247,-0.009,-0.052,-0.058,0.13467036599763874,-6.3426703659976384,-6.8622868476977565
1621787177770.047,-0.012,-0.051,-0.054,0.1408603699330972,-6.348860369933098,-6.868167351436442
1621787177774.808,-0.012,-0.045043677458766036,-0.05201455915292201,0.147,-6.355,-6.874
1621787177774.843,-0.012,-0.045,-0.052,0.14708794033239772,-6.355087940332398,-6.874
1621787177779.637,-0.009,-0.045,-0.054,0.1591634394020625,-6.367163439402063,-6.874
1621787177784.43,-0.012,-0.044,-0.049,0.17123647860228958,-6.37923647860229,-6.874
1621787177789.22,-0.01,-0.042,-0.044,0.18330213819420355,-6.391302138194204,-6.874
1621787177790.291,-0.010447470420236638,-0.03998638310893513,-0.042657588739290084,0.186,-6.394,-6.874
1621787177794.007,-0.012,-0.033,-0.038,0.19561468005811383,-6.403374313056661,-6.8836146800581135
1621787177798.792,-0.009,-0.035,-0.035,0.2079948202893058,-6.415444949782073,-6.895994820289306
1621787177803.575,0.0,-0.024,-0.037,0.22036990714421073,-6.4275106594656055,-6.908369907144211
1621787177805.751,0.002275698309758464,-0.02354486033804831,-0.03517944135219323,0.226,-6.433,-6.914
1621787177808.356,0.005,-0.023,-0.033,0.226,-6.433,-6.910624592705071
1621787177813.134,0.007,-0.023,-0.024,0.226,-6.433,-6.9044333934389925
1621787177817.909,0.012,-0.017,-0.024,0.226,-6.433,-6.898246306665401
1621787177821.186,0.013372565059563373,-0.011509739761746511,-0.021941152410654943,0.226,-6.433,-6.894
1621787177822.684,0.014,-0.009,-0.021,0.22405598238471652,-6.434944017615283,-6.890209165650197
1621787177827.455,0.017,-0.003,-0.017,0.21786465379314715,-6.441135346206853,-6.878136074896637
1621787177832.223,0.021,-0.007,-0.017,0.21167744388296608,-6.447322556117034,-6.866071015571785
1621787177836.598,0.02283550138277169,0.004013008296630133,-0.01057574516029909,0.206,-6.453,-6.855
1621787177836.99,0.023,0.005,-0.01,0.2050062827225131,-6.453484118673647,-6.854006282722514
1621787177841.755,0.021,0.0,-0.007,0.19293008091385055,-6.459367396477868,-6.84193008091385
1621787177846.517,0.026,0.007,0.0,0.18086068538791053,-6.465247358400762,-6.829860685387911
1621787177851.276,0.028,0.014,0.0,0.16879995240361734,-6.4711231001110585,-6.817799952403617
1621787177851.986,0.028,0.014447791061624507,0.00029852737441633744,0.167,-6.472,-6.816
1621787177856.034,0.028,0.017,0.002,0.15645996630749182,-6.451446934299609,-6.831283048854137
1621787177860.789,0.033,0.021,0.0,0.1440782874034519,-6.427302660436731,-6.849236483264995
1621787177865.542,0.038,0.014,0.007,0.13170232986872638,-6.403169543244017,-6.867181621690347
1621787177867.348,0.036859426398026314,0.016661338404605264,0.006239617598684211,0.127,-6.394,-6.874
1621787177870.292,0.035,0.021,0.005,0.10818930362116992,-6.394,-6.866514110624751
1621787177875.04,0.037,0.017,0.01,0.07785259052924791,-6.394,-6.854441337047353
1621787177879.786,0.037,0.017,0.003,0.047529916434540395,-6.394,-6.842374150417827
1621787177882.686,0.034554755043227664,0.01822262247838617,0.006667867435158501,0.029,-6.394,-6.835
1621787177884.53,0.033,0.019,0.009,0.02201606989127316,-6.394,-6.835
1621787177889.271,0.026,0.017,0.01,0.004060166438159617,-6.394,-6.835
1621787177894.009,0.03,0.017,0.01,-0.013884641137646269,-6.394,-6.835
1621787177898.0,0.024945008503839614,0.01278750708653301,0.007472504251919806,-0.029,-6.394,-6.835
1621787177898.746,0.024,0.012,0.007,-0.029975796666453797,-6.394,-6.8369028034995845
1621787177903.48,0.026,0.007,0.012,-0.03616712433744173,-6.394,-6.848975892458011
1621787177908.212,0.023,0.005,0.007,-0.04235589756689444,-6.394,-6.861044000255444
1621787177912.941,0.026,0.007,0.007,-0.04854083913404432,-6.394,-6.873104636311386
1621787177913.292,0.0263712692347413,0.00685149230610348,0.006480223071362181,-0.049,-6.394,-6.874
1621787177917.669,0.031,0.005,0.0,-0.06591483033229922,-6.382819010458311,-6.8797338407906095
1621787177922.394,0.033,-0.002,0.0,-0.08417507276041833,-6.37074868071769,-6.8859237534781075
1621787177927.116,0.033,-0.003,-0.003,-0.10242304986087569,-6.35868645856654,-6.892109508427415
1621787177928.559,0.03422273361948596,-0.0026943165951285103,-0.00422273361948596,-0.108,-6.355,-6.894
1621787177931.837,0.037,-0.002,-0.007,-0.10369920717546248,-6.359085753183311,-6.881312661167614
1621787177936.555,0.037,-0.009,-0.005,-0.09750876911988468,-6.36496666933611,-6.86305086890366
1621787177941.271,0.031,-0.01,-0.007,-0.09132089372947866,-6.370845150956995,-6.844796636501962
1621787177943.802,0.031,-0.009462961044343141,-0.009685194778284294,-0.088,-6.374,-6.835
1621787177945.984,0.031,-0.009,-0.012,-0.07681745993551181,-6.374,-6.826541412002502
1621787177950.696,0.028,-0.012,-0.014,-0.052666827085037775,-6.374,-6.808273625615605
1621787177955.404,0.021,-0.021,-0.014,-0.028537465710573168,-6.374,-6.79002192919133
1621787177959.021,0.017157935684647303,-0.01946317427385892,-0.015536825726141078,-0.01,-6.374,-6.776
1621787177960.111,0.016,-0.019,-0.016,-0.008565300515720643,-6.374,-6.776
1621787177964.815,0.01,-0.021,-0.016,-0.0023744035473868544,-6.374,-6.776
1621787177969.517,0.005,-0.026,-0.017,0.00381424417203541,-6.374,-6.776
1621787177974.216,0.003,-0.024,-0.021,0.009998714714907703,-6.374,-6.776
1621787177974.217,0.002999792088985914,-0.023999376266957743,-0.021000415822028173,0.01,-6.374,-6.776
1621787177978.913,0.002,-0.021,-0.023,0.028261859552008238,-6.386380921730175,-6.782190460865087
1621787177983.608,0.0,-0.024,-0.019,0.04651897206488157,-6.398758625128733,-6.788379312564366
1621787177988.301,-0.005,-0.023,-0.019,0.06476943872296602,-6.411131822863028,-6.794565911431514
1621787177989.389,-0.005,-0.023231962519521084,-0.01992785007808433,0.069,-6.414,-6.796
1621787177992.991,-0.005,-0.024,-0.023,0.07827565528581101,-6.4044865073991675,-6.800756746300416
1621787177997.679,-0.007,-0.019,-0.024,0.09034771254473353,-6.392104910210529,-6.806947544894735
1621787178002.365,-0.007,-0.017,-0.023,0.10241474030370443,-6.3797284714833795,-6.81313576425831
1621787178004.534,-0.01024199770618288,-0.01885257011781879,-0.023,0.108,-6.374,-6.816
1621787178007.048,-0.014,-0.021,-0.023,0.1178085690300917,-6.380649877308536,-6.812675061345732
1621787178011.729,-0.009,-0.023,-0.024,0.13607033772439622,-6.393030737440268,-6.806484631279866
1621787178016.407,-0.01,-0.031,-0.023,0.15432067674028155,-6.405403848637479,-6.800298075681261
1621787178019.657,-0.014864227175445008,-0.022661324842094273,-0.021610220807015714,0.167,-6.414,-6.796
1621787178021.084,-0.017,-0.019,-0.021,0.17257602755230736,-6.417685848721017,-6.797890178831291
1621787178025.758,-0.017,-0.028,-0.023,0.19084002199010447,-6.429758658603628,-6.8040813633864765
1621787178030.43,-0.019,-0.017,-0.016,0.20909543058564822,-6.441825793098988,-6.810269637486661
1621787178034.756,-0.019,-0.009587712418300653,-0.01692653594771242,0.226,-6.453,-6.816
1621787178035.099,-0.019,-0.009,-0.017,0.22688752652294336,-6.453887526522943,-6.818230194852524
1621787178039.767,-0.017,-0.007,-0.019,0.2389654675326779,-6.465965467532678,-6.8485798927744215
1621787178044.431,-0.012,-0.005,-0.016,0.2510326697873305,-6.47803266978733,-6.878902606132266
1621787178049.094,-0.003,-0.005,-0.012,0.263097976967557,-6.490097976967557,-6.9092205575082195
1621787178049.829,-0.002211243254571174,-0.004526745952742705,-0.011526745952742704,0.265,-6.492,-6.914
1621787178053.754,0.002,-0.002,-0.009,0.2597845834414742,-6.486784583441474,-6.903569166882948
1621787178058.412,0.007,-0.007,-0.01,0.2535946016091357,-6.480594601609136,-6.891189203218271
1621787178063.067,0.016,-0.009,-0.007,0.2474091616921879,-6.474409161692188,-6.878818323384375
1621787178064.88,0.017168896584290886,-0.004324413662836454,-0.008948160973818144,0.245,-6.472,-6.874
1621787178067.72,0.019,0.003,-0.012,0.25237139096950295,-6.457257218060994,-6.859257218060994
1621787178072.371,0.019,0.005,-0.003,0.2644432872438949,-6.433113425512211,-6.83511342551221
1621787178077.02,0.016,-0.003,-0.003,0.27650948055957236,-6.408981038880856,-6.810981038880856
1621787178079.906,0.012272937467157121,0.0007270625328428793,-0.003,0.284,-6.394,-6.796
1621787178081.666,0.01,0.003,-0.003,0.284,-6.39165362582997,-6.7914245703684415
1621787178086.31,0.012,0.0,0.0,0.284,-6.385462374690795,-6.779351630647051
1621787178090.951,0.005,0.005,-0.002,0.284,-6.379275354771514,-6.767286941804453
1621787178094.908,0.0007369805365597054,0.006705207785376118,0.0014104155707522358,0.284,-6.374,-6.757
1621787178095.592,0.0,0.007,0.002,0.284,-6.37669466992665,-6.757
1621787178100.228,-0.005,0.007,0.002,0.284,-6.3949562999185,-6.757
1621787178104.863,-0.009,0.014,0.012,0.284,-6.413214083129584,-6.757
1621787178109.496,-0.012,0.021,0.012,0.284,-6.431464172779136,-6.757
1621787178109.886,-0.012421060957603881,0.02041051465935457,0.012336848766083106,0.284,-6.433,-6.757
1621787178114.126,-0.017,0.014,0.016,0.284,-6.444058532523511,-6.7623874902037615
1621787178118.753,-0.017,0.016,0.016,0.284,-6.456126322492163,-6.768266669932079
1621787178123.378,-0.017,0.017,0.017,0.284,-6.468189018416928,-6.774143367946708
1621787178124.839,-0.016684002111932418,0.017631995776135164,0.018263991552270327,0.284,-6.472,-6.776
1621787178128.002,-0.016,0.019,0.021,0.2757385581372533,-6.484498078715437,-6.776
1621787178132.623,-0.005,0.023,0.023,0.2636681164870742,-6.502758490442631,-6.776
1621787178137.241,0.002,0.017,0.023,0.2516059649753912,-6.521006360678254,-6.776
1621787178139.77,-0.00019156926006241078,0.020287353890093618,0.023,0.245,-6.531,-6.776
1621787178141.857,-0.002,0.023,0.023,0.2423399066415527,-6.517279518466956,-6.776
1621787178146.471,0.0,0.026,0.024,0.2364586356563754,-6.486944541806568,-6.776
1621787178151.083,0.003,0.017,0.023,0.23057985422979282,-6.4566224060273525,-6.776
1621787178154.676,-0.0016775082106155314,0.02167750821061553,0.02144083059646149,0.226,-6.433,-6.776
1621787178155.692,-0.003,0.023,0.021,0.22729696343323982,-6.437027412766376,-6.769310399133816
1621787178160.298,-0.003,0.024,0.024,0.2331777154387519,-6.455288695309808,-6.738978099315911
1621787178164.904,-0.005,0.024,0.023,0.23905815574913464,-6.473549009957839,-6.708647407188674
1621787178169.506,-0.007,0.03,0.024,0.2449336089374477,-6.491793838279443,-6.678342438112112
1621787178169.558,-0.007101767797419971,0.029954769867813345,0.023988692466953336,0.245,-6.492,-6.678
1621787178174.105,-0.016,0.026,0.023,0.22694577897538692,-6.485879925076403,-6.690240149847195
1621787178178.704,-0.016,0.026,0.028,0.2086841050244816,-6.4796895271269435,-6.702620945746114
1621787178183.299,-0.016,0.03,0.023,0.19043891097893595,-6.47350471558608,-6.71499056882784
1621787178184.417,-0.016243395524371446,0.028539626853771326,0.023243395524371446,0.186,-6.472,-6.718
1621787178187.892,-0.017,0.024,0.024,0.17686362738643843,-6.4675489466754446,-6.745409117840684
1621787178192.482,-0.023,0.023,0.024,0.16479647794601712,-6.461670078999342,-6.781610566161949
1621787178197.071,-0.016,0.028,0.023,0.15273125411454905,-6.455792149440422,-6.817806237656352
1621787178199.251,-0.01409859454855196,0.02372183773424191,0.02347535136286201,0.147,-6.453,-6.835
1621787178201.657,-0.012,0.019,0.024,0.14375106319849668,-6.4434156364355655,-6.844584363564435
1621787178206.241,-0.012,0.016,0.019,0.13756110506708866,-6.425155259947911,-6.862844740052089
1621787178210.822,-0.012,0.017,0.019,0.13137510302311015,-6.406906553918175,-6.881093446081826
1621787178214.062,-0.012,0.016292590618336888,0.017585181236673776,0.127,-6.394,-6.894
1621787178215.402,-0.012,0.016,0.017,0.1306250165103685,-6.388653100647207,-6.892187491744816
1621787178219.978,-0.017,0.017,0.017,0.1430031699907542,-6.3703953242636375,-6.8859984150046225
1621787178224.552,-0.017,0.014,0.019,0.15537604015321624,-6.3521453407740065,-6.879811979923391
1621787178228.849,-0.01887934440232769,0.012120655597672308,0.01712065559767231,0.167,-6.335,-6.874
1621787178229.125,-0.019,0.012,0.017,0.16772885140163732,-6.334626230050443,-6.872916067146282
1621787178233.695,-0.023,0.003,0.017,0.17980262962044158,-6.328434548912594,-6.854960191846523
1621787178238.262,-0.026,0.007,0.014,0.19186802282312082,-6.322247167783015,-6.837016786570743
1621787178242.827,-0.033,0.007,0.012,0.20392825601587694,-6.316062432812371,-6.819081055155875
1621787178243.611,-0.033687426431246656,0.008202996254681648,0.012687426431246656,0.206,-6.315,-6.816
1621787178247.39,-0.037,0.014,0.016,0.21112762750327144,-6.320127627503272,-6.825998873631379
1621787178251.951,-0.044,0.009,0.012,0.21731669178910404,-6.3263166917891045,-6.838067548988753
1621787178256.51,-0.047,0.01,0.01,0.22350310579582913,-6.332503105795829,-6.850131056301867
1621787178258.35,-0.04619204588090261,0.01080795411909739,0.01080795411909739,0.226,-6.335,-6.855
1621787178261.065,-0.045,0.012,0.012,0.2186196323090197,-6.3386901838454905,-6.862195858498706
1621787178265.619,-0.051,0.005,0.009,0.20623959646910467,-6.344880201765448,-6.874266393442623
1621787178270.171,-0.051,0.01,0.014,0.1938648702462335,-6.3510675648768835,-6.886331751509923
1621787178273.064,-0.04845558000966235,0.0036389500241558867,0.012727790004831178,0.186,-6.355,-6.894
1621787178274.719,-0.047,0.0,0.012,0.186,-6.359394484890795,-6.898394484890795
1621787178279.266,-0.045,0.002,0.01,0.186,-6.371468136032712,-6.910468136032712
1621787178283.811,-0.04,0.002,0.01,0.186,-6.383535952927097,-6.922535952927097
1621787178287.752,-0.03392635992259729,0.0002646742635992261,0.007397011395398839,0.186,-6.394,-6.933
1621787178288.353,-0.033,0.0,0.007,0.186,-6.394,-6.933
1621787178292.892,-0.028,-0.002,0.007,0.186,-6.394,-6.933
1621787178297.43,-0.024,0.0,0.005,0.186,-6.394,-6.933
1621787178301.966,-0.024,-0.002,0.003,0.186,-6.394,-6.933
1621787178302.415,-0.024,-0.0020990680385713518,0.003198136077142703,0.186,-6.394,-6.933
1621787178306.498,-0.024,-0.003,0.005,0.19715732941941724,-6.37754293910636,-6.9165429391063595
1621787178311.028,-0.019,0.0,0.005,0.20953620094400988,-6.359284103607585,-6.898284103607585
1621787178315.557,-0.024,-0.002,0.005,0.22191173674466702,-6.341030188301616,-6.880030188301616
1621787178317.053,-0.024,-0.0029916392469928263,0.006652732078321377,0.226,-6.335,-6.874
1621787178320.083,-0.024,-0.005,0.01,0.23368495173377365,-6.335,-6.866315048266226
1621787178324.634,-0.031,-0.005,0.0,0.24522754985393116,-6.335,-6.8547724501460685
1621787178329.624,-0.037,0.003,0.01,0.25788347834370634,-6.335,-6.842116521656293
1621787178332.43,-0.04093615147512109,0.004124614707177455,0.01,0.265,-6.335,-6.835
1621787178334.614,-0.044,0.005,0.01,0.265,-6.332290240504029,-6.842993790513115
1621787178339.602,-0.044,0.007,0.01,0.265,-6.326101653843824,-6.86125012116072
1621787178344.59,-0.038,0.012,0.009,0.265,-6.319913067183619,-6.879506451808324
1621787178348.55,-0.038,0.012,0.015351443954968184,0.265,-6.315,-6.894
1621787178349.578,-0.038,0.012,0.017,0.26372437771751484,-6.315,-6.897763085733332
1621787178354.566,-0.042,0.016,0.016,0.2575338221703759,-6.315,-6.916025224597392
1621787178359.553,-0.038,0.012,0.016,0.25134447861590437,-6.315,-6.934283788083082
1621787178364.539,-0.038,0.014,0.012,0.24515634705410033,-6.315,-6.952538776190404
1621787178364.665,-0.03782313191656057,0.013898932523748898,0.012126334345313877,0.245,-6.315,-6.953
1621787178369.525,-0.031,0.01,0.017,0.23926861645703895,-6.315,-6.941235581148659
1621787178374.512,-0.035,0.016,0.017,0.2333872253371723,-6.315,-6.92916325200788
1621787178379.497,-0.033,0.019,0.017,0.22750813759660554,-6.315,-6.91709565085619
1621787178380.776,-0.03351317723131185,0.01720387969040854,0.01802635446262369,0.226,-6.315,-6.914
1621787178384.481,-0.035,0.012,0.021,0.22139856280888998,-6.3196014371911104,-6.90479712561778
1621787178389.466,-0.037,0.016,0.023,0.21520742245535307,-6.3257925775446475,-6.892414844910705
1621787178394.45,-0.038,0.017,0.016,0.20901779812619387,-6.331982201873807,-6.880035596252387
1621787178396.88,-0.03897525843907697,0.01895051687815394,0.019413404536769388,0.206,-6.335,-6.874
1621787178399.433,-0.04,0.021,0.023,0.2028286987900658,-6.331828698790066,-6.877171301209934
1621787178404.416,-0.042,0.014,0.016,0.1966395366467538,-6.325639536646754,-6.883360463353246
1621787178409.399,-0.045,0.016,0.023,0.1904503745034418,-6.319450374503442,-6.889549625496558
1621787178412.982,-0.042842505022786304,0.016,0.018685010045572596,0.186,-6.315,-6.894
1621787178414.381,-0.042,0.016,0.017,0.1808710049298445,-6.316738642396663,-6.894
1621787178419.363,-0.042,0.017,0.021,0.162608524838832,-6.3229293136139555,-6.894
1621787178424.344,-0.047,0.017,0.021,0.14434962457337885,-6.329118771331058,-6.894
1621787178429.077,-0.04414883812138445,0.017,0.0171984508285126,0.127,-6.335,-6.894
1621787178429.324,-0.044,0.017,0.017,0.127,-6.335,-6.894598789313186
1621787178434.305,-0.049,0.016,0.017,0.127,-6.335,-6.90667042920213
1621787178439.285,-0.042,0.016,0.019,0.127,-6.335,-6.9187397023348955
1621787178444.265,-0.045,0.012,0.019,0.127,-6.335,-6.930808975467662
1621787178445.169,-0.0444552809649897,0.012907865058350496,0.017728988918309305,0.127,-6.335,-6.933
1621787178449.244,-0.042,0.017,0.012,0.127,-6.329934215518157,-6.933
1621787178454.222,-0.044,0.016,0.021,0.127,-6.3237457699136534,-6.933
1621787178459.2,-0.044,0.016,0.014,0.127,-6.317557324309149,-6.933
1621787178461.257,-0.04317335426272932,0.01806661434317669,0.014826645737270676,0.127,-6.315,-6.933
1621787178464.177,-0.042,0.021,0.016,0.127,-6.31155111704711,-6.9259207139388055
1621787178469.155,-0.047,0.017,0.014,0.127,-6.305671290675085,-6.9138515966488585
1621787178474.132,-0.049,0.017,0.019,0.127,-6.299792617775619,-6.901784847013113
1621787178477.343,-0.052225901398086826,0.016354819720382635,0.01448373804267844,0.127,-6.296,-6.894
1621787178479.109,-0.054,0.016,0.012,0.12491334649255997,-6.296,-6.896196477376253
1621787178484.084,-0.049,0.014,0.007,0.11903448223504404,-6.296,-6.902384755542059
1621787178489.06,-0.058,0.009,0.012,0.11315446401457638,-6.296,-6.908574248405709
1621787178493.422,-0.0588769940607667,0.005492023756933196,0.012,0.108,-6.296,-6.914
1621787178494.034,-0.059,0.005,0.012,0.10872323232323232,-6.296723232323233,-6.914723232323232
1621787178499.009,-0.058,0.007,0.01,0.114604329004329,-6.302604329004329,-6.920604329004329
1621787178503.983,-0.056,0.005,0.009,0.1204839826839827,-6.308483982683983,-6.926483982683982
1621787178508.957,-0.065,0.012,0.007,0.12636392496392496,-6.314363924963925,-6.932363924963925
1621787178509.495,-0.06435077814325692,0.012,0.00678359271441897,0.127,-6.315,-6.933
1621787178513.93,-0.059,0.012,0.005,0.127,-6.320520102105935,-6.927755902999362
1621787178518.903,-0.059,0.002,0.005,0.127,-6.326710274409701,-6.9218752393107845
1621787178523.875,-0.054,0.007,0.007,0.127,-6.33289892727991,-6.915996019084085
1621787178525.563,-0.054679008102136016,0.003944463540387921,0.006320991897863983,0.127,-6.335,-6.914
1621787178528.847,-0.056,-0.002,0.005,0.127,-6.335,-6.914
1621787178533.818,-0.051,0.005,0.0,0.127,-6.335,-6.914
1621787178538.79,-0.056,0.009,0.0,0.127,-6.335,-6.914
1621787178541.627,-0.056,0.005004322837353244,0.0017124330697057524,0.127,-6.335,-6.914
1621787178543.76,-0.056,0.002,0.003,0.127,-6.335,-6.914
1621787178548.73,-0.059,-0.002,0.0,0.127,-6.335,-6.914
1621787178553.699,-0.056,-0.007,0.0,0.127,-6.335,-6.914
1621787178557.687,-0.056,0.00022184015326423383,0.0,0.127,-6.335,-6.914
1621787178558.669,-0.056,0.002,0.0,0.1294471790815473,-6.332614000395491,-6.914
1621787178563.637,-0.056,0.002,0.0,0.14182849363410963,-6.320542218706743,-6.914
1621787178568.605,-0.056,-0.002,-0.002,0.15420980818667196,-6.308470437017995,-6.914
1621787178573.573,-0.056,0.0,0.0,0.16659112273923427,-6.296398655329247,-6.914
1621787178573.737,-0.056099071207430344,0.0,-6.604747162022704e-05,0.167,-6.296,-6.914
1621787178578.541,-0.059,0.0,-0.002,0.16101296172336155,-6.296,-6.934355930140571
1621787178583.508,-0.052,0.0,-0.005,0.1548226738879085,-6.296,-6.955402908781111
1621787178588.474,-0.054,0.0,-0.005,0.14863360311568186,-6.296,-6.976445749406682
1621787178589.785,-0.05268044632324027,0.0013195536767597327,-0.005527821470703893,0.147,-6.296,-6.982
1621787178593.441,-0.049,0.005,-0.007,0.14244223277331386,-6.300329878865353,-6.991115534453373
1621787178598.406,-0.049,-0.002,-0.009,0.13625249573898224,-6.306210129047967,-7.0034950085220355
1621787178603.371,-0.044,-0.005,-0.012,0.1300627587046506,-6.3120903792305825,-7.015874482590699
1621787178605.828,-0.04301052114060964,-0.006978957718780727,-0.010515781710914454,0.127,-6.315,-7.022
1621787178608.337,-0.042,-0.009,-0.009,0.130128653190453,-6.315,-7.02497222053093
1621787178613.301,-0.037,-0.012,-0.012,0.1363186799805163,-6.315,-7.030852745981491
1621787178618.264,-0.031,-0.012,-0.01,0.14250718460789089,-6.315,-7.036731825377497
1621787178621.867,-0.027370210044763636,-0.010548084017905456,-0.014355747946283633,0.147,-6.315,-7.041
1621787178623.227,-0.026,-0.01,-0.016,0.147,-6.315,-7.041
1621787178628.191,-0.028,-0.012,-0.014,0.147,-6.315,-7.041
1621787178633.153,-0.023,-0.009,-0.012,0.147,-6.315,-7.041
1621787178637.901,-0.017258905727219054,-0.005172603818146035,-0.015827396181853966,0.147,-6.315,-7.041
1621787178638.115,-0.017,-0.005,-0.016,0.14752095042266392,-6.314479049577336,-7.040479049577336
1621787178643.076,-0.01,-0.009,-0.012,0.15959131825451223,-6.302408681745488,-7.028408681745488
1621787178648.038,-0.01,-0.014,-0.012,0.1716646561571853,-6.2903353438428145,-7.016335343842814
1621787178652.999,-0.01,-0.016,-0.012,0.18373502398903357,-6.278264976010966,-7.004264976010966
1621787178653.93,-0.009812278456085073,-0.016,-0.01331405080740449,0.186,-6.276,-7.002
1621787178657.958,-0.009,-0.016,-0.019,0.19605438839714195,-6.281027194198571,-6.98465618001493
1621787178662.919,-0.007,-0.014,-0.012,0.2084372705251451,-6.2872186352625725,-6.963295708344124
1621787178667.878,-0.01,-0.014,-0.01,0.2208152775027042,-6.2934076387513525,-6.941943646307835
1621787178669.955,-0.01,-0.011067940133910988,-0.01,0.226,-6.296,-6.933
1621787178672.837,-0.01,-0.007,-0.01,0.2294179036240056,-6.299417903624006,-6.933
1621787178677.795,-0.007,-0.009,-0.012,0.2352981803773355,-6.305298180377336,-6.933
1621787178682.754,-0.009,-0.01,-0.01,0.2411796153494468,-6.311179615349447,-6.933
1621787178685.975,-0.004451241134751773,-0.004801418439716312,-0.006750886524822695,0.245,-6.315,-6.933
1621787178687.711,-0.002,-0.002,-0.005,0.2429408581662983,-6.315,-6.935167517719686
1621787178692.668,-0.01,0.0,-0.01,0.2370605746513223,-6.315,-6.941357289840713
1621787178697.624,-0.005,-0.005,-0.007,0.23118144958463532,-6.315,-6.947545842542489
1621787178701.992,-0.006762312844759653,-0.006762312844759653,-0.007,0.226,-6.315,-6.953
1621787178702.581,-0.007,-0.007,-0.007,0.22526407124449122,-6.315735928755509,-6.953367964377755
1621787178707.537,-0.009,-0.005,-0.007,0.21907287616084908,-6.321927123839151,-6.956463561919576
1621787178712.492,-0.005,-0.005,-0.005,0.2128832060021044,-6.3281167939978955,-6.959558396998948
1621787178717.448,0.0,0.0,-0.007,0.20669201091846226,-6.3343079890815375,-6.962653994540769
1621787178718.002,0.00022363493002168345,-0.001118174650108417,-0.006776365069978317,0.206,-6.335,-6.963
1621787178722.402,0.002,-0.01,-0.005,0.20050224967589414,-6.335,-6.9602511248379475
1621787178727.355,0.005,-0.012,-0.002,0.1943138869823839,-6.335,-6.957156943491192
1621787178732.309,0.002,-0.005,-0.005,0.1881239990848776,-6.335,-6.954061999542439
1621787178734.009,0.0047457978015477895,-0.005,-0.004313550549613052,0.186,-6.335,-6.953
1621787178737.262,0.01,-0.005,-0.003,0.186,-6.335,-6.9550327088545805
1621787178742.215,0.014,-0.005,-0.005,0.186,-6.335,-6.9581278452431805
1621787178747.167,0.014,-0.003,-0.002,0.186,-6.335,-6.961222218832001
1621787178750.012,0.014,-0.0024254794655622935,-0.0037235616033131193,0.186,-6.335,-6.963
1621787178752.119,0.014,-0.002,-0.005,0.186,-6.3298634088273,-6.965502441853367
1621787178757.071,0.014,-0.002,0.0,0.186,-6.317790336365301,-6.9713841951040845
1621787178762.021,0.019,-0.005,-0.002,0.186,-6.305722620719126,-6.977263338624016
1621787178766.009,0.02222268803945746,-0.0025829839704069055,-0.002,0.186,-6.296,-6.982
1621787178766.971,0.023,-0.002,-0.002,0.18485715158084362,-6.29365415324489,-6.9802556524128665
1621787178771.922,0.019,-0.005,-0.003,0.17897467291574432,-6.281579591774422,-6.971277132345084
1621787178776.871,0.024,-0.007,-0.002,0.17309480481809994,-6.269510388837152,-6.962302596827627
1621787178781.82,0.021,-0.007,-0.002,0.16721493672045556,-6.257441185899882,-6.953328061310169
1621787178782.001,0.02067100784371763,-0.007,-0.002109664052094125,0.167,-6.257,-6.953
1621787178786.769,0.012,-0.007,-0.005,0.16103582171596098,-6.251035821715961,-6.947035821715962
1621787178791.717,0.012,-0.003,-0.005,0.15484657433845872,-6.2448465743384585,-6.940846574338459
1621787178796.665,0.014,-0.007,0.0,0.14865732696095646,-6.238657326960957,-6.934657326960957
1621787178797.99,0.01266112399467114,-0.00566112399467114,-0.0018744264074604037,0.147,-6.237,-6.933
1621787178801.613,0.009,-0.002,-0.007,0.14246697212676593,-6.228160595647194,-6.939799541809851
1621787178806.559,0.009,-0.003,-0.002,0.13627865597556318,-6.2160933791523485,-6.949082016036655
1621787178811.506,0.005,-0.005,-0.003,0.13008911798396333,-6.204023780068729,-6.958366323024055
1621787178813.975,0.005998617557025773,-0.005998617557025773,-0.004997235114051545,0.127,-6.198,-6.963
1621787178816.451,0.007,-0.007,-0.007,0.13009885408708938,-6.204042765469825,-6.963
1621787178821.396,0.005,-0.01,-0.009,0.13628831168831168,-6.216112207792208,-6.963
1621787178826.342,0.002,-0.012,-0.005,0.14247899159663865,-6.228184033613446,-6.963
1621787178829.954,0.002,-0.01053912614169341,-0.0035391261416934093,0.147,-6.237,-6.963
1621787178831.287,0.002,-0.01,-0.003,0.14866888267388015,-6.241923203887946,-6.963
1621787178836.23,0.002,-0.01,-0.009,0.15485719743860132,-6.260178732443874,-6.963
1621787178841.175,0.0,-0.016,-0.003,0.1610482631088289,-6.2784423761710455,-6.963
1621787178845.929,0.0,-0.005420527511607232,-0.008770621357305147,0.167,-6.296,-6.963
1621787178846.118,0.0,-0.005,-0.009,0.167,-6.29506534598982,-6.96369803274178
1621787178851.061,0.009,-0.002,-0.007,0.167,-6.270615811436695,-6.981957811711836
1621787178856.003,0.009,-0.012,-0.007,0.167,-6.246172314700172,-7.000213081426454
1621787178860.945,0.01,-0.014,-0.009,0.167,-6.22172761040033,-7.018469252992158
1621787178861.901,0.008646131805157593,-0.013226361031518625,-0.009193409742120344,0.167,-6.217,-7.022
1621787178865.887,0.003,-0.01,-0.01,0.1817299264492255,-6.221993195406517,-6.999780280440999
1621787178870.827,0.003,-0.012,-0.009,0.19998467819624755,-6.2281812468461855,-6.9722434515344744
1621787178875.768,-0.002,-0.009,-0.012,0.21824394085355597,-6.234370827407985,-6.944699818034466
1621787178877.867,-0.0024248789166749036,-0.011974152416724325,-0.010725363249975289,0.226,-6.237,-6.933
1621787178880.708,-0.003,-0.016,-0.009,0.22938202092511015,-6.240560022026432,-6.922497935022026
1621787178885.648,-0.005,-0.005,-0.009,0.23526255812530592,-6.246750061184533,-6.904237319505628
1621787178890.587,-0.005,-0.01,-0.003,0.24114193281938326,-6.2529388766519824,-6.885980313876652
1621787178893.828,-0.007624814631735047,-0.005406574394463668,-0.003,0.245,-6.257,-6.874
1621787178895.526,-0.009,-0.003,-0.003,0.24085023866348448,-6.261149761336515,-6.885491646778043
1621787178900.465,-0.007,-0.003,-0.002,0.22877923627684962,-6.27322076372315,-6.91891903800257
1621787178905.402,-0.005,0.002,-0.002,0.21671360381861574,-6.285286396181385,-6.952331558656141
1621787178909.786,-0.0023366953426283,0.00022446356175220014,-0.0028877682191239,0.206,-6.296,-6.982
1621787178910.34,-0.002,0.0,-0.003,0.2046450872359963,-6.296,-6.984744566880931
1621787178915.277,0.002,-0.003,-0.003,0.19257502295684115,-6.296,-7.009194184266912
1621787178920.214,0.003,-0.005,0.0,0.18050495867768596,-6.296,-7.033643801652893
1621787178925.149,0.009,-0.007,-0.002,0.1684402662993572,-6.296,-7.0580825374961735
1621787178925.738,0.009358047284597883,-0.006164556335938273,-0.002,0.167,-6.296,-7.061
1621787178930.085,0.012,0.0,-0.002,0.1776295253111271,-6.290548961378909,-7.050370474688873
1621787178935.021,0.016,0.0,-0.002,0.18969960353299553,-6.284359177675387,-7.038300396467005
1621787178939.955,0.023,-0.002,-0.005,0.2017649057816829,-6.27817184318888,-7.026235094218317
1621787178941.687,0.025457222029788708,-0.0030530951556237322,-0.004297936562917512,0.206,-6.276,-7.022
1621787178944.889,0.03,-0.005,-0.003,0.206,-6.272184113809684,-7.0041255857401
1621787178949.824,0.026,0.0,0.0,0.206,-6.266302731922452,-6.976575954794646
1621787178954.757,0.024,-0.003,-0.002,0.206,-6.260423677682153,-6.949037227037457
1621787178957.63,0.02108809700569166,-0.005329522395446672,-0.0008352388022766642,0.206,-6.257,-6.933
1621787178959.69,0.019,-0.007,0.0,0.20341494722975353,-6.254414947229753,-6.9279591470980195
1621787178964.622,0.012,-0.005,-0.003,0.19722589341788827,-6.248225893417888,-6.915890492164882
1621787178969.555,0.017,-0.005,-0.003,0.19103592053061286,-6.242035920530613,-6.903820045034695
1621787178973.568,0.012931590931590933,0.0006957726957726963,-0.0005589545589545592,0.186,-6.237,-6.894
1621787178974.487,0.012,0.002,0.0,0.18259690148183336,-6.238153592718023,-6.896249505800144
1621787178979.417,0.005,0.002,0.0,0.1643400554729761,-6.244342354076958,-6.908317590450067
1621787178984.349,0.003,-0.007,-0.003,0.1460750724060254,-6.250533873760669,-6.920391053833305
1621787178989.279,0.005,0.0,-0.002,0.1278182263971681,-6.256722635119604,-6.932459138483227
1621787178989.5,0.005179270044074679,-0.00031372257713068884,-0.0024481751101866982,0.127,-6.257,-6.933
1621787178994.209,0.009,-0.007,-0.012,0.127,-6.239557103661808,-6.9418692693245045
1621787178999.138,0.01,-0.009,-0.007,0.127,-6.221299397618062,-6.951152848668782
1621787179004.068,0.01,-0.01,-0.01,0.127,-6.203037169877838,-6.960438727180761
1621787179005.428,0.007792420113946,-0.0105518949715135,-0.01,0.127,-6.198,-6.963
1621787179008.996,0.002,-0.012,-0.01,0.11826071357384892,-6.198,-6.943056500206988
1621787179013.924,0.0,-0.005,-0.01,0.1061907514450867,-6.198,-6.915512227656736
1621787179018.852,-0.007,-0.005,-0.01,0.09412078931632449,-6.198,-6.887967955106483
1621787179021.351,-0.009536048758733463,-0.007536048758733462,-0.01,0.088,-6.198,-6.874
1621787179023.779,-0.012,-0.01,-0.01,0.09105061349693251,-6.203948696319019,-6.874
1621787179028.706,-0.023,-0.012,-0.01,0.09724110429447852,-6.216020153374234,-6.874
1621787179033.632,-0.03,-0.017,-0.01,0.1034303680981595,-6.228089217791411,-6.874
1621787179037.269,-0.03073831590424741,-0.017,-0.01,0.108,-6.237,-6.874
1621787179038.558,-0.031,-0.017,-0.01,0.108,-6.240159299774468,-6.877240307460991
1621787179043.483,-0.038,-0.021,-0.009,0.108,-6.252229260958284,-6.889619754829009
1621787179048.408,-0.044,-0.007,-0.003,0.108,-6.2642998204943305,-6.901999815891621
1621787179053.182,-0.044,-0.011846577108015665,-0.008815892529618797,0.108,-6.276,-6.914
1621787179053.333,-0.044,-0.012,-0.009,0.10743958691382273,-6.276560413086177,-6.914465427817333
1621787179058.257,-0.042,-0.016,-0.009,0.08917953596857353,-6.294820464031426,-6.929630554873557
1621787179063.18,-0.044,-0.017,-0.012,0.0709240117849251,-6.313075988215075,-6.944791922415909
1621787179068.104,-0.037,-0.012,-0.005,0.052663960839675915,-6.331336039160324,-6.959957049472133
1621787179069.092,-0.03659861145549219,-0.011598611455492189,-0.005,0.049,-6.335,-6.963
1621787179073.027,-0.035,-0.01,-0.005,0.05394880179308863,-6.3399488017930885,-6.972650163496523
1621787179077.949,-0.03,-0.01,-0.007,0.060138641980994494,-6.346138641980994,-6.984720351862939
1621787179082.87,-0.023,-0.012,-0.012,0.06632756106172955,-6.35232756106173,-6.996788744070372
1621787179084.995,-0.023431746031746033,-0.011136507936507938,-0.010704761904761904,0.069,-6.355,-7.002
1621787179087.792,-0.024,-0.01,-0.009,0.06548168053806702,-6.355,-6.9830010749055615
1621787179092.713,-0.019,-0.014,-0.012,0.05929145296520377,-6.355,-6.9495738460121
1621787179097.634,-0.021,-0.007,-0.016,0.053100918276465715,-6.355,-6.9161449586929145
1621787179100.894,-0.022325491363907088,-0.008988237045860631,-0.011360780226325192,0.049,-6.355,-6.894
1621787179102.553,-0.023,-0.01,-0.009,0.05108749347178274,-6.355,-6.881683788516482
1621787179107.474,-0.023,-0.012,-0.012,0.05727992995606894,-6.355,-6.845148413259193
1621787179112.393,-0.026,-0.005,-0.012,0.06346960154833953,-6.355,-6.808629350864797
1621787179116.788,-0.0340429904686259,-0.0032126687847498017,-0.0137873312152502,0.069,-6.355,-6.776
1621787179117.311,-0.035,-0.003,-0.014,0.0676834867319187,-6.355625343802339,-6.77471639956362
1621787179122.23,-0.028,-0.009,-0.012,0.05530014904503619,-6.361507429203608,-6.76264264531891
1621787179127.147,-0.031,-0.007,-0.01,0.04292172830780105,-6.367387179053795,-6.750573685100106
1621787179132.065,-0.04,-0.01,-0.01,0.03054084909574222,-6.3732680966795225,-6.738502327868349
1621787179132.677,-0.03975099324592769,-0.01,-0.010249006754072308,0.029,-6.374,-6.737
1621787179136.981,-0.038,-0.01,-0.012,0.03441888880350419,-6.374,-6.747566833166833
1621787179141.898,-0.042,-0.007,-0.014,0.04060962114808269,-6.374,-6.759638761238761
1621787179146.814,-0.04,-0.005,-0.016,0.04679912395297011,-6.374,-6.771708291708292
1621787179148.562,-0.04142232816845451,-0.006777910210568137,-0.015288835915772746,0.049,-6.374,-6.776
1621787179151.73,-0.044,-0.01,-0.014,0.0529896078340943,-6.3819792156681885,-6.783979215668189
1621787179156.646,-0.049,-0.007,-0.017,0.05918063306123077,-6.394361266122461,-6.796361266122461
1621787179161.56,-0.045,-0.007,-0.014,0.06536919860412921,-6.406738397208258,-6.808738397208258
1621787179164.443,-0.0491068660572337,-0.004653219395866454,-0.015173390302066773,0.069,-6.414,-6.816
1621787179166.474,-0.052,-0.003,-0.016,0.06644140985421665,-6.408882819708433,-6.818430660638494
1621787179171.387,-0.045,-0.005,-0.016,0.06025238358860799,-6.396504767177215,-6.824310235590822
1621787179176.302,-0.044,-0.016,-0.017,0.054060589284615865,-6.384121178569232,-6.830192440179615
1621787179180.319,-0.044,-0.008639860834990059,-0.017,0.049,-6.374,-6.835
1621787179181.214,-0.044,-0.007,-0.017,0.047872052059135736,-6.375127947940864,-6.8316725535744505
1621787179186.126,-0.049,-0.005,-0.016,0.04168187622109749,-6.381318123778902,-6.8134115348522375
1621787179191.039,-0.051,-0.01,-0.019,0.035490161992523424,-6.387509838007476,-6.795145977877944
1621787179195.95,-0.051,-0.002,-0.017,0.029301216866913837,-6.393698783133086,-6.776888589757395
1621787179196.189,-0.051,-0.002340674090276397,-0.016853996818452975,0.029,-6.394,-6.776
1621787179200.861,-0.051,-0.009,-0.014,0.034889485589425576,-6.40548449689938,-6.776
1621787179205.772,-0.051,-0.012,-0.016,0.04107995445242895,-6.4175559111822364,-6.776
1621787179210.683,-0.056,-0.005,-0.016,0.047270731069290785,-6.429627925585117,-6.776
1621787179212.055,-0.056838364748595015,-0.0036027254190083057,-0.015441090167603323,0.049,-6.433,-6.776
1621787179215.592,-0.059,0.0,-0.014,0.062157326027059895,-6.4287628950082345,-6.780460110517647
1621787179220.501,-0.065,-0.005,-0.009,0.08041756584111934,-6.422882478796928,-6.786650022319024
1621787179225.41,-0.063,0.0,-0.014,0.09867780565517878,-6.41700206258562,-6.7928399341203995
1621787179227.916,-0.06402098667197136,0.0010209866719713546,-0.009405559976128904,0.108,-6.414,-6.796
1621787179230.319,-0.065,0.002,-0.005,0.1049690531177829,-6.422789745958429,-6.790089653579677
1621787179235.227,-0.061,0.002,-0.007,0.09877875288683602,-6.440741616628175,-6.778018568129331
1621787179240.134,-0.061,0.0,-0.007,0.0925896843725943,-6.458689915319477,-6.765949884526559
1621787179243.773,-0.06248286325424066,0.0014828632542406605,-0.0055171367457593394,0.088,-6.472,-6.757
1621787179245.042,-0.063,0.002,-0.005,0.0864789465578315,-6.476723271215155,-6.753877837671338
1621787179249.948,-0.059,0.007,-0.003,0.08059869089789004,-6.4949830124749734,-6.741807839211458
1621787179254.854,-0.056,0.003,-0.007,0.07471843523794856,-6.513242753734791,-6.729737840751579
1621787179259.625,-0.049192634983826825,0.00883488429957701,-0.0031100771336153273,0.069,-6.531,-6.718
1621787179259.76,-0.049,0.009,-0.003,0.06916186280097977,-6.531255572843652,-6.717659236208464
1621787179264.666,-0.051,0.007,-0.003,0.07504365843513626,-6.540542618581794,-6.705276508557608
1621787179269.571,-0.045,0.012,-0.003,0.08092428327145564,-6.5498278156917715,-6.692896245744304
1621787179274.475,-0.04,0.016,-0.003,0.08680373730993791,-6.559111164173586,-6.680518447768551
1621787179275.473,-0.039593049885492386,0.015593049885492384,-0.0023895748282385743,0.088,-6.561,-6.678
1621787179279.379,-0.038,0.014,0.0,0.088,-6.553603670657852,-6.658769543710416
1621787179284.282,-0.038,0.024,0.0,0.088,-6.544319310249179,-6.634630206647866
1621787179289.185,-0.044,0.019,0.0,0.088,-6.535034949840506,-6.610490869585317
1621787179291.316,-0.04095767353849218,0.021173090329648443,0.0008692361318593766,0.088,-6.531,-6.6
1621787179294.088,-0.037,0.024,0.002,0.08467464122208006,-6.517348527122223,-6.589673885900143
1621787179298.991,-0.049,0.028,0.0,0.07879273349467421,-6.493201748030768,-6.571409014536093
1621787179303.892,-0.056,0.023,0.002,0.07291316880674549,-6.469064587732955,-6.55315141892621
1621787179307.154,-0.05799676198067151,0.024996761980671516,0.005327936634452526,0.069,-6.453,-6.541
1621787179308.793,-0.059,0.026,0.007,0.069,-6.442874343938065,-6.545029597820567
1621787179313.702,-0.075,0.03,0.005,0.069,-6.41254564344092,-6.557099182712287
1621787179318.612,-0.084,0.035,0.005,0.069,-6.382209401117422,-6.569171768943067
1621787179323.016,-0.09655760529063696,0.035,0.008587887225896275,0.069,-6.355,-6.58
1621787179323.522,-0.098,0.035,0.009,0.06679947668154533,-6.355,-6.581243774049561
1621787179328.432,-0.112,0.037,0.003,0.04544101893181469,-6.355,-6.593315945821148
1621787179333.342,-0.122,0.031,0.007,0.024081499153455442,-6.355,-6.605388717869786
1621787179338.25,-0.141,0.038,0.01,0.002731537632753578,-6.355,-6.617456087424965
1621787179338.878,-0.14151176441327165,0.038255882206635825,0.009360294483410437,0.0,-6.355,-6.619
1621787179343.158,-0.145,0.04,0.005,-0.039676941078659295,-6.360128312112208,-6.634924758664224
1621787179348.066,-0.154,0.04,0.003,-0.08517494726794045,-6.366009006789734,-6.653185863189173
1621787179352.973,-0.159,0.042,0.009,-0.13066390047882248,-6.371888531354405,-6.671443334205786
1621787179354.735,-0.16007758148793233,0.040204030853446135,0.006485643194824583,-0.147,-6.374,-6.678
1621787179357.879,-0.162,0.037,0.002,-0.15096624212649962,-6.3819324842529985,-6.693666656399674
1621787179362.785,-0.168,0.031,0.0,-0.15715569895122666,-6.394311397902453,-6.718115010857345
1621787179367.691,-0.169,0.038,-0.005,-0.16334515577595368,-6.406690311551907,-6.742563365315017
1621787179370.588,-0.1648657110148823,0.038,-0.0032281618635209798,-0.167,-6.414,-6.757
1621787179372.596,-0.162,0.038,-0.002,-0.1694074159657393,-6.411465877930801,-6.759407415965739
1621787179377.5,-0.159,0.03,-0.009,-0.1752867794312475,-6.405277074282897,-6.765286779431247
1621787179382.405,-0.162,0.021,-0.009,-0.18116731367655667,-6.399087038235203,-6.771167313676557
1621787179386.436,-0.16364427625354777,0.019355723746452225,-0.014754966887417217,-0.186,-6.394,-6.776
1621787179387.308,-0.164,0.019,-0.016,-0.18060422960725075,-6.394,-6.776
1621787179392.21,-0.161,0.019,-0.021,-0.1502749244712991,-6.394,-6.776
1621787179397.113,-0.162,0.019,-0.016,-0.1199380664652568,-6.394,-6.776
1621787179402.015,-0.168,0.024,-0.021,-0.08960876132930513,-6.394,-6.776
1621787179402.275,-0.168,0.024,-0.021106102117061022,-0.088,-6.394,-6.776
1621787179406.916,-0.168,0.024,-0.023,-0.09386176593022,-6.376707790505851,-6.776
1621787179411.816,-0.168,0.021,-0.019,-0.10005038466875318,-6.358451365227178,-6.776
1621787179416.717,-0.171,0.023,-0.024,-0.10624054516581613,-6.340190391760842,-6.776
1621787179418.11,-0.171,0.02499053124688528,-0.024,-0.108,-6.335,-6.776
1621787179421.616,-0.171,0.03,-0.024,-0.108,-6.308866345872083,-6.784858865806073
1621787179426.515,-0.168,0.023,-0.024,-0.108,-6.2723483860022515,-6.7972378352534735
1621787179431.413,-0.175,0.026,-0.03,-0.108,-6.2358358858094665,-6.8096149539628925
1621787179433.94,-0.18170537227150402,0.024968404265922457,-0.03051579786703877,-0.108,-6.217,-6.816
1621787179436.312,-0.188,0.024,-0.031,-0.09615761783537762,-6.217,-6.821846239296459
1621787179441.209,-0.188,0.03,-0.038,-0.07170985111471109,-6.217,-6.8339153899560285
1621787179446.105,-0.197,0.033,-0.042,-0.047266959808686254,-6.217,-6.845982133765332
1621787179449.764,-0.19998813677599442,0.030758897418004187,-0.038264829030006976,-0.029,-6.217,-6.855
1621787179451.003,-0.201,0.03,-0.037,-0.03213295778995293,-6.218566478894976,-6.859621112740181
1621787179455.898,-0.202,0.026,-0.04,-0.044510456053707854,-6.224755228026853,-6.877877922679219
1621787179460.793,-0.206,0.028,-0.04,-0.056887954317462776,-6.230943977158732,-6.896134732618258
1621787179465.583,-0.206,0.028,-0.04,-0.069,-6.237,-6.914
1621787179465.688,-0.206,0.028,-0.04,-0.06925893215576075,-6.236867214279097,-6.914843189327733
1621787179470.583,-0.202,0.024,-0.047,-0.0813323966278603,-6.230675694036995,-6.954159342865084
1621787179475.476,-0.201,0.023,-0.049,-0.0934010437575271,-6.224486644226909,-6.993459809159127
1621787179480.369,-0.201,0.028,-0.051,-0.1054690887193898,-6.218297903220825,-7.032758314547757
1621787179481.395,-0.2001611615607225,0.027161161560722482,-0.052467967268735656,-0.108,-6.217,-7.041
1621787179485.262,-0.197,0.024,-0.058,-0.09356554579014843,-6.217,-7.045893035325373
1621787179490.154,-0.194,0.024,-0.059,-0.07530444386092275,-6.217,-7.052083239369179
1621787179495.045,-0.19,0.016,-0.061,-0.057047898549605354,-6.217,-7.058271898796744
1621787179497.201,-0.18867759808325846,0.019526405111310773,-0.060118398722172305,-0.049,-6.217,-7.061
1621787179499.936,-0.187,0.024,-0.059,-0.05246215059412519,-6.210248806341456,-7.081253580975632
1621787179504.827,-0.183,0.026,-0.063,-0.05865310505740377,-6.1981764451380625,-7.117470664585812
1621787179509.717,-0.183,0.019,-0.07,-0.06484313240725004,-6.1861058918058625,-7.153682324582412
1621787179513.001,-0.1796414481897628,0.016984868913857677,-0.0733585518102372,-0.069,-6.178,-7.178
1621787179514.606,-0.178,0.016,-0.075,-0.0649354519599357,-6.174037065660937,-7.186027482379127
1621787179519.496,-0.176,0.005,-0.084,-0.052551378756028194,-6.161962594287128,-7.210486026956844
1621787179524.384,-0.168,0.0,-0.089,-0.04017287003833313,-6.149893548287375,-7.234933581674292
1621787179528.796,-0.15987495628715592,-0.002708347904281361,-0.09351391317380227,-0.029,-6.139,-7.257
1621787179529.271,-0.159,-0.003,-0.094,-0.026051515151515152,-6.1357506493506495,-7.257
1621787179534.159,-0.155,-0.005,-0.089,0.004283333333333337,-6.102320408163266,-7.257
1621787179539.046,-0.152,0.0,-0.098,0.03461212121212122,-6.068896846011132,-7.257
1621787179543.932,-0.154,-0.002,-0.099,0.0649348484848485,-6.035479962894248,-7.257
1621787179544.587,-0.1537318206806937,-0.002134089659653156,-0.09953635863861263,0.069,-6.031,-7.257
1621787179548.817,-0.152,-0.003,-0.103,0.1424334240811781,-5.978470981314193,-7.267452202697686
1621787179553.703,-0.155,-0.005,-0.094,0.22725525925009282,-5.917795507981685,-7.279525383615889
1621787179558.587,-0.161,-0.002,-0.094,0.31204318772429157,-5.857144289073134,-7.2915937383987135
1621787179560.37,-0.16355576105973507,-0.0005395651087228193,-0.0936348912771807,0.343,-5.835,-7.296
1621787179563.471,-0.168,0.002,-0.093,0.4143495156148442,-5.813772044941038,-7.303665650437958
1621787179568.355,-0.175,0.01,-0.087,0.5267301990157541,-5.780336469714321,-7.315739608158718
1621787179573.238,-0.176,0.01,-0.075,0.6390884118976137,-5.746907579931289,-7.3278111516914795
1621787179576.146,-0.1718305245786868,0.019530229534430163,-0.06904360654098114,0.706,-5.727,-7.335
1621787179578.12,-0.169,0.026,-0.065,0.7747163555307884,-5.72211851026284,-7.320355530788521
1621787179583.002,-0.162,0.044,-0.049,0.9446461409863471,-5.710046995449058,-7.284140986347172
1621787179587.884,-0.154,0.063,-0.035,1.1145844246308163,-5.697974876938794,-7.247924630816383
1621787179591.918,-0.14490871348539414,0.07705017006802721,-0.015990946378551422,1.255,-5.688,-7.218
1621787179592.765,-0.143,0.08,-0.012,1.2787448198965528,-5.6722059342769535,-7.208491327778982
1621787179597.645,-0.133,0.096,0.012,1.4155667296435097,-5.581197695666987,-7.153700653513798
1621787179602.525,-0.129,0.113,0.031,1.5523817945303064,-5.490194009973054,-7.0989127202899
1621787179607.404,-0.129,0.136,0.056,1.6891763248366216,-5.399203983027225,-7.04413301018986
1621787179607.683,-0.12922878302642113,0.13651476180944758,0.05720111088871097,1.697,-5.394,-7.041
1621787179612.283,-0.133,0.145,0.077,1.7941922761142006,-5.382325252118415,-6.923668783790064
1621787179617.161,-0.14,0.162,0.099,1.8972601428283735,-5.369944727588184,-6.799244512261243
1621787179622.039,-0.166,0.185,0.127,2.000333168094434,-5.35756358341208,-6.674814013291404
1621787179623.443,-0.1763642370845014,0.19162159591509811,0.13362159591509812,2.03,-5.354,-6.639
1621787179626.916,-0.202,0.208,0.15,1.952196699721103,-5.438415478772854,-6.593596374341494
1621787179631.792,-0.248,0.232,0.162,1.8429603191819026,-5.556935404400372,-6.529849364735048
1621787179636.669,-0.305,0.251,0.171,1.733702060737527,-5.675479067245119,-6.466089587852495
1621787179639.2,-0.3278439503205128,0.26138361378205127,0.1767109875801282,1.677,-5.737,-6.433
1621787179641.544,-0.349,0.271,0.182,1.532499860499721,-5.808431582863165,-6.5234800049600095
1621787179646.419,-0.394,0.284,0.18,1.2319708754417509,-5.9569937999875995,-6.7116588133176265
1621787179651.294,-0.431,0.3,0.18,0.9314418903837808,-6.1055560171120336,-6.8998376216752435
1621787179654.951,-0.4482569124423963,0.3,0.1657442897214987,0.706,-6.217,-7.041
1621787179656.168,-0.454,0.3,0.161,0.6476375914898895,-6.2693329146507875,-7.100135420543357
1621787179661.041,-0.456,0.298,0.136,0.41395380535913656,-6.478874534797171,-7.336914356159285
1621787179665.913,-0.435,0.291,0.106,0.1803168496464458,-6.688374162634909,-7.573645841086714
1621787179670.695,-0.39672689012475576,0.28314910566661655,0.0795032316248309,-0.049,-6.894,-7.806
1621787179670.786,-0.396,0.283,0.079,-0.051204290567266976,-6.896942901019126,-7.8062250453720505
1621787179675.658,-0.344,0.269,0.054,-0.16945381357904044,-7.054815300851598,-7.818297640653357
1621787179680.529,-0.279,0.251,0.019,-0.2876796345417035,-7.212656056587091,-7.830367816091954
1621787179685.4,-0.222,0.229,-0.019,-0.40589952999208895,-7.370488901298339,-7.842437386569872
1621787179686.434,-0.20925887306998195,0.2236911971124925,-0.026007619811509924,-0.431,-7.404,-7.845
1621787179690.27,-0.162,0.204,-0.052,-0.4836577501939488,-7.344272459270752,-7.716037269200931
1621787179695.14,-0.103,0.176,-0.098,-0.550508828549263,-7.268446004654771,-7.5523140263770365
1621787179700.009,-0.058,0.143,-0.134,-0.6173498525989138,-7.1926309542280835,-7.388615407292475
1621787179702.169,-0.049127713984856845,0.13678939978939977,-0.15041372912801484,-0.647,-7.159,-7.316
1621787179704.878,-0.038,0.129,-0.171,-0.5777555031202459,-7.083037753422956,-7.192669005557453
1621787179709.745,-0.051,0.106,-0.197,-0.4533450588344873,-6.946557639169177,-6.971082244093266
1621787179714.613,-0.075,0.094,-0.218,-0.3289158930733646,-6.8100569871774965,-6.749462137911763
1621787179717.896,-0.09051447203411087,0.08455640832706296,-0.22541996488587912,-0.245,-6.718,-6.6
1621787179719.48,-0.098,0.08,-0.229,-0.20157943199639758,-6.66752736758746,-6.571288023477896
1621787179724.346,-0.12,0.077,-0.248,-0.06819235726153322,-6.51247649881213,-6.483085433456003
1621787179729.212,-0.148,0.079,-0.262,0.06519471747333117,-6.357425630036801,-6.394882843434108
1621787179733.619,-0.17879911677623325,0.0817175691273147,-0.2728702765092588,0.186,-6.217,-6.315
1621787179734.077,-0.182,0.082,-0.274,0.1965800978792822,-6.207002827623708,-6.311006960304514
1621787179738.943,-0.22,0.087,-0.283,0.30899081799114425,-6.100785535617183,-6.268581977782957
1621787179743.807,-0.244,0.093,-0.283,0.4213451409927756,-5.994621533442087,-6.226178280121184
1621787179748.67,-0.283,0.103,-0.295,0.5336825448613377,-5.888473518216422,-6.183780967917347
1621787179749.333,-0.28913461828037945,0.10422692365607589,-0.295,0.549,-5.874,-6.178
1621787179753.534,-0.328,0.112,-0.295,0.6933809435017715,-5.842717462241283,-6.154471253651563
1621787179758.396,-0.37,0.12,-0.302,0.8604842438933433,-5.806511747156442,-6.127239604698863
1621787179763.259,-0.4,0.134,-0.297,1.027621107589036,-5.770298760022375,-6.100002486170675
1621787179765.045,-0.41322585505499476,0.1424498518406911,-0.29553046054944504,1.089,-5.757,-6.09
1621787179768.12,-0.436,0.157,-0.293,1.2002125847167817,-5.768356214636572,-6.118782130199589
1621787179772.981,-0.461,0.168,-0.284,1.376001927501088,-5.786306534850463,-6.164276907293416
1621787179777.842,-0.475,0.182,-0.283,1.5518000994839272,-5.804257756637443,-6.209773969408692
1621787179780.751,-0.4875698281925048,0.18798563247262132,-0.2806057470109515,1.657,-5.815,-6.237
1621787179782.702,-0.496,0.192,-0.279,1.691170281911337,-5.8345081245821095,-6.263839203246723
1621787179787.562,-0.511,0.209,-0.274,1.7762945219324844,-5.883106327066909,-6.330700424499697
1621787179792.42,-0.527,0.225,-0.265,1.8613802770910108,-5.931682558193778,-6.397531417642394
1621787179796.452,-0.5369572928704216,0.23412751846455307,-0.25338315831784153,1.932,-5.972,-6.453
1621787179797.279,-0.539,0.236,-0.251,1.9330540889504222,-5.983911205139773,-6.466966678593097
1621787179802.137,-0.541,0.243,-0.243,1.9392448392265451,-6.05386668325996,-6.548994119751723
1621787179806.994,-0.529,0.253,-0.234,1.945434345005678,-6.123808098564162,-6.631005071325234
1621787179811.851,-0.506,0.267,-0.223,1.9516241619090584,-6.19375302957236,-6.713020145295023
1621787179812.146,-0.5051497234791352,0.2671214680744093,-0.22293926596279537,1.952,-6.198,-6.718
1621787179816.707,-0.492,0.269,-0.222,1.8720530640191715,-6.24916603902773,-6.729337929102735
1621787179821.563,-0.473,0.276,-0.216,1.786936665525505,-6.3036405340636765,-6.741408981980019
1621787179826.418,-0.463,0.271,-0.208,1.7018373844573778,-6.358104073947278,-6.753477607295135
1621787179827.835,-0.45832924253093255,0.271,-0.2068323106327331,1.677,-6.374,-6.757
1621787179831.272,-0.447,0.271,-0.204,1.6103814015752935,-6.382765605055882,-6.744070732542573
1621787179836.127,-0.424,0.264,-0.202,1.5162787273123501,-6.395147535879953,-6.725807384577068
1621787179840.98,-0.407,0.264,-0.199,1.4222139099031785,-6.407524485539055,-6.707551383829894
1621787179843.519,-0.3928738303652279,0.264,-0.19795361706409095,1.373,-6.414,-6.698
1621787179845.833,-0.38,0.264,-0.197,1.3425957768192223,-6.416804273011819,-6.680583988663439
1621787179850.687,-0.377,0.257,-0.194,1.278816839777629,-6.422686796331189,-6.644050422785244
1621787179855.538,-0.374,0.25,-0.188,1.2150763972156906,-6.428565769188844,-6.607538907142969
1621787179859.197,-0.3687199657758317,0.2447199657758317,-0.18950858120690522,1.167,-6.433,-6.58
1621787179860.389,-0.367,0.243,-0.19,1.149127523678963,-6.430033929461615,-6.5815210618145565
1621787179865.24,-0.36,0.227,-0.19,1.076385593220339,-6.41796186440678,-6.58771186440678
1621787179870.091,-0.354,0.213,-0.192,1.003643662761715,-6.405889799351944,-6.593902666999003
1621787179874.869,-0.35104455071734203,0.20807425119557008,-0.192,0.932,-6.394,-6.6
1621787179874.941,-0.351,0.208,-0.192,0.9319080538586212,-6.394179294975689,-6.599908053858621
1621787179879.79,-0.342,0.188,-0.195,0.9257174292482234,-6.406251012965964,-6.5937174292482235
1621787179884.639,-0.346,0.18,-0.199,0.9195271163196609,-6.418322123176662,-6.587527116319661
1621787179889.487,-0.344,0.159,-0.199,0.9133377384366039,-6.430391410048622,-6.581337738436604
1621787179890.535,-0.344,0.15705469104094275,-0.1994322908797905,0.912,-6.433,-6.58
1621787179894.335,-0.344,0.15,-0.201,0.9168528403067906,-6.487837095466733,-6.599168719211822
1621787179899.182,-0.337,0.145,-0.208,0.9230425890129077,-6.557781255845856,-6.6236182266009855
1621787179904.029,-0.328,0.126,-0.213,0.9292326494980359,-6.627728939327804,-6.648068965517242
1621787179906.196,-0.3217395334777571,0.12286976673887853,-0.21434152854048064,0.932,-6.659,-6.659
1621787179908.875,-0.314,0.119,-0.216,0.9840185257379888,-6.692538260015282,-6.714269683596613
1621787179913.72,-0.297,0.108,-0.213,1.0780955915604973,-6.753193210348216,-6.814226566033028
1621787179918.566,-0.283,0.096,-0.213,1.1721916197545497,-6.813860386420696,-6.914203595989209
1621787179921.852,-0.27350249483392974,0.09260803386926061,-0.21028642709540848,1.236,-6.855,-6.982
1621787179923.41,-0.269,0.091,-0.209,1.251628482730648,-6.855,-7.005492496333968
1621787179928.254,-0.248,0.077,-0.208,1.3002234875666905,-6.855,-7.07853976474993
1621787179933.098,-0.237,0.059,-0.195,1.348818492402733,-6.855,-7.1515870331658915
1621787179937.502,-0.21789956133716532,0.041718650733625774,-0.19227136590530933,1.393,-6.855,-7.218
1621787179937.94,-0.216,0.04,-0.192,1.4020425080365782,-6.864042508036579,-7.221835367185793
1621787179942.783,-0.201,0.024,-0.183,1.502029259386411,-6.964029259386411,-7.264244608470397
1621787179947.625,-0.176,0.017,-0.171,1.601995849068381,-7.063995849068381,-7.3066452982116665
1621787179952.466,-0.14,0.003,-0.15,1.701942277082488,-7.163942277082488,-7.349037436409601
1621787179953.147,-0.1342329533992334,0.0025780209804317127,-0.14704614686302198,1.716,-7.178,-7.355
1621787179957.307,-0.099,0.0,-0.129,1.737012160094908,-7.316307889232307,-7.464582404545597
1621787179962.146,-0.038,0.002,-0.11,1.7614550279416814,-7.477197652274359,-7.592056601417378
1621787179966.987,0.026,-0.016,-0.093,1.785907761231307,-7.638152352408604,-7.719582248446818
1621787179968.787,0.05799182643794147,-0.026415943491422803,-0.09039601412714429,1.795,-7.698,-7.767
1621787179971.826,0.112,-0.044,-0.086,1.7395996532983509,-7.776143646926537,-7.8050998875562225
1621787179976.664,0.197,-0.08,-0.086,1.6513961769115442,-7.900556971514243,-7.8657591204397805
1621787179981.503,0.298,-0.117,-0.082,1.563179347826087,-8.024989130434783,-7.926427536231884
1621787179984.42,0.3643342250037854,-0.15197622772926866,-0.08320607681825065,1.51,-8.1,-7.963
1621787179986.34,0.408,-0.175,-0.084,1.4751061503132177,-8.090416477902926,-7.8665504506897035
1621787179991.177,0.532,-0.234,-0.096,1.3872082545732898,-8.066275506537734,-7.623593238873354
1621787179996.014,0.649,-0.297,-0.106,1.2993103588333619,-8.042134535172544,-7.380636027057004
1621787180000.048,0.736587460245343,-0.34788414357110403,-0.1176783280327124,1.226,-8.022,-7.178
1621787180000.85,0.754,-0.358,-0.12,1.2828751171948247,-7.949006844177761,-7.157364804050253
1621787180005.685,0.841,-0.424,-0.127,1.6257532970810675,-7.508959216201013,-7.032963153947121
1621787180010.521,0.911,-0.496,-0.136,1.9687007312957059,-7.068822707669229,-6.908536377273579
1621787180015.354,0.948,-0.525,-0.115,2.311440402525158,-6.628952840802549,-6.784184980311269
1621787180015.672,0.9497110101010101,-0.5245393434343435,-0.11111732323232323,2.334,-6.6,-6.776
1621787180020.188,0.974,-0.518,-0.056,2.2943844325980582,-5.548018728406834,-7.513370050182125
1621787180025.022,0.972,-0.487,0.04,2.2519781918801884,-4.421931839854926,-8.302683289821314
1621787180029.854,0.895,-0.483,0.086,2.2095890849969515,-3.296299935904451,-9.091677615020245
1621787180031.289,0.8391774095776925,-0.48359385734491817,0.06966892301475044,2.197,-2.962,-9.326
1621787180034.687,0.707,-0.485,0.031,2.2716687834329155,-3.0131579128476242,-9.06781581005412
1621787180039.518,0.464,-0.438,-0.019,2.3778295742484437,-3.0858919823568054,-8.700740889041825
1621787180044.35,0.241,-0.321,0.0,2.4840118246942158,-3.158640754528107,-8.333591766509214
1621787180046.898,0.16187145528989536,-0.2592797351261184,0.022155992518829302,2.54,-3.197,-8.14
1621787180049.18,0.091,-0.204,0.042,2.3133085589109688,-3.600072007510562,-7.9663982318885935
1621787180054.01,0.028,-0.164,0.038,1.8334900641527148,-4.453220247222657,-7.598950132999531
1621787180058.84,0.047,-0.143,0.012,1.353671569394461,-5.306368486934753,-7.231502034110468
1621787180062.501,0.08566449264371304,-0.12177243541129482,0.0013862177056474037,0.99,-5.953,-6.953
1621787180063.669,0.098,-0.115,-0.002,0.9702344987323547,-5.996274468684466,-6.9441654198879466
1621787180068.497,0.159,-0.077,0.005,0.888528279445366,-6.175161570002191,-6.9076452158127015
1621787180073.326,0.225,-0.066,0.044,0.806809665404238,-6.354075808319509,-6.871119471657955
1621787180078.101,0.28732131296783325,-0.07490304470969048,0.09247213230831478,0.726,-6.531,-6.835
1621787180078.153,0.288,-0.075,0.093,0.7212900902029566,-6.526847140440992,-6.83581722939113
1621787180082.979,0.321,-0.094,0.117,0.28419719368579305,-6.14145007516913,-6.911658418942621
1621787180087.806,0.316,-0.119,0.106,-0.1529841518416437,-5.755975021924329,-6.987514955524931
1621787180092.632,0.246,-0.136,0.105,-0.5900991606113757,-5.370558459659232,-7.063359981834127
1621787180093.691,0.22142154531194658,-0.1338054951171381,0.10982791074229621,-0.686,-5.286,-7.08
1621787180097.457,0.134,-0.126,0.127,-0.5415043310725083,-5.572575022321079,-7.089665262135618
1621787180102.281,0.0,-0.112,0.176,-0.35642135931454705,-5.93964593286446,-7.102045394025783
1621787180107.106,-0.133,-0.096,0.243,-0.1713009194718127,-6.306791153020786,-7.114428032142354
1621787180109.277,-0.1847689192609466,-0.09509967096937484,0.2664085547962541,-0.088,-6.472,-7.12
1621787180111.929,-0.248,-0.094,0.295,-0.14313014599912274,-6.68401284541638,-7.495361426154521
1621787180116.752,-0.349,-0.131,0.333,-0.24339676671470642,-7.069606084341125,-8.178040948680996
1621787180121.575,-0.4,-0.183,0.358,-0.3436633874302901,-7.455199323265869,-8.86072047120747
1621787180124.862,-0.39113806895853376,-0.22594628120095184,0.3593633740063794,-0.412,-7.718,-9.326
1621787180126.397,-0.387,-0.246,0.36,-0.5143742379362766,-7.757609666650994,-9.533802952654097
1621787180131.219,-0.311,-0.321,0.353,-0.8359892488284986,-7.8820458883821525,-10.186628802482486
1621787180136.039,-0.208,-0.407,0.333,-1.1574739918817687,-8.006431708119798,-10.839190229912079
1621787180140.44,-0.10302253506861801,-0.4845920392971084,0.31383020205600853,-1.451,-8.12,-11.435
1621787180140.86,-0.093,-0.492,0.312,-1.4840821430251336,-8.094581257153608,-11.435
1621787180145.68,0.026,-0.562,0.284,-1.8635752677213504,-7.802996817134166,-11.435
1621787180150.499,0.14,-0.628,0.255,-2.2430107245331534,-7.5114566863701215,-11.435
1621787180155.319,0.239,-0.675,0.209,-2.622523071857508,-7.2198574765988806,-11.435
1621787180156.011,0.2524993412384717,-0.6816060606060607,0.2005270092226614,-2.677,-7.178,-11.435
1621787180160.137,0.333,-0.721,0.15,-2.5341390483359993,-6.84801505598946,-11.003501615382204
1621787180164.954,0.403,-0.761,0.108,-2.3673467739405916,-6.462752752423073,-10.499720868228726
1621787180169.772,0.447,-0.782,0.077,-2.2005291396129354,-6.07743187164769,-9.995863523728866
1621787180171.578,0.4503748859373416,-0.7857498732637129,0.074375088715401,-2.138,-5.933,-9.807
1621787180174.588,0.456,-0.792,0.07,-1.8231116689153148,-5.781165024630542,-9.395401493520756
1621787180179.404,0.443,-0.799,0.077,-1.319275014903831,-5.538221674876847,-8.736823852405008
1621787180184.22,0.419,-0.801,0.093,-0.8154639013523266,-5.2952906403940885,-8.078279595870855
1621787180187.14,0.39231710779839774,-0.801,0.1020964405232735,-0.51,-5.148,-7.679
1621787180189.035,0.375,-0.801,0.108,-0.388181989390753,-5.057245582096111,-7.531965661194639
1621787180193.85,0.333,-0.791,0.131,-0.07864622241752722,-4.826641435701058,-7.158355990457956
1621787180198.664,0.29,-0.78,0.152,0.23081107379390442,-4.596095750023541,-6.784841033930758
1621787180202.696,0.2514722588497819,-0.7582234506542246,0.1813145856577746,0.49,-4.403,-6.472
1621787180203.478,0.244,-0.754,0.187,0.5220838082677846,-4.376850187618733,-6.438005243904354
1621787180208.29,0.195,-0.75,0.209,0.7195149231469706,-4.215934545397453,-6.22881490901669
1621787180213.103,0.119,-0.698,0.22,0.9169861052234939,-4.054986246526306,-6.019582120484198
1621787180217.915,0.049,-0.644,0.248,1.11441722010268,-3.8940706043050257,-5.810391785596534
1621787180218.246,0.04494011976047904,-0.6417292195270476,0.2512341418857201,1.128,-3.883,-5.796
1621787180222.726,-0.01,-0.611,0.295,1.2381046117114853,-3.832271173661724,-5.730859575270169
1621787180227.537,-0.063,-0.567,0.333,1.3563455642121136,-3.7777936667504397,-5.660905503895451
1621787180232.347,-0.12,-0.501,0.351,1.4745565154561446,-3.72332998240764,-5.590969181955265
1621787180233.789,-0.13888848847832708,-0.47851370419246775,0.35609689371637393,1.51,-3.707,-5.57
1621787180237.157,-0.183,-0.426,0.368,1.4590695500534154,-3.7579304499465844,-5.487210928171935
1621787180241.966,-0.253,-0.347,0.398,1.386345519386665,-3.830654480613335,-5.36899569534343
1621787180246.774,-0.311,-0.279,0.422,1.3136399484698045,-3.9033600515301954,-5.2508104694275115
1621787180249.329,-0.33597217991674283,-0.24393268352116967,0.4342204284698954,1.275,-3.942,-5.188
1621787180251.583,-0.358,-0.213,0.445,1.2480105150653065,-3.97479367524323,-5.179438819294909
1621787180256.391,-0.408,-0.157,0.461,1.1904356757776275,-4.044750200399227,-5.16117583263914
1621787180261.198,-0.454,-0.084,0.473,1.1328754538453074,-4.114688964682584,-5.14291748267136
1621787180264.862,-0.4829715011430023,-0.03444348488696977,0.5012090932181864,1.089,-4.168,-5.129
1621787180266.004,-0.492,-0.019,0.51,1.0420880877890797,-4.217706038643546,-5.115985253195403
1621787180270.81,-0.536,0.012,0.55,0.8446307639096327,-4.426924143569105,-5.061204773059568
1621787180275.615,-0.588,0.065,0.576,0.6472235917430471,-4.636089109689186,-5.006438206486707
1621787180280.391,-0.6436642447030131,0.09581413546059651,0.5948860830242365,0.451,-4.844,-4.952
1621787180280.42,-0.644,0.096,0.595,0.4493667193518192,-4.845137139963478,-4.952800343732257
1621787180285.235,-0.681,0.122,0.628,0.17637354796139149,-5.035203339113355,-5.0865730507772335
1621787180290.208,-0.716,0.143,0.649,-0.10556114290975499,-5.231494897724309,-5.2247273006276185
1621787180295.181,-0.731,0.161,0.668,-0.3874958337809014,-5.427786456335262,-5.3628815504780025
1621787180296.301,-0.7307748552360388,0.16437717145941702,0.669576013347728,-0.451,-5.472,-5.394
1621787180300.156,-0.73,0.176,0.675,-0.7733476874003189,-5.596717855244171,-5.701957165641376
1621787180305.129,-0.705,0.176,0.674,-1.1891741626794259,-5.75760309865573,-6.09921995898838
1621787180310.102,-0.658,0.187,0.648,-1.605021052631579,-5.918496240601504,-6.496502255639098
1621787180312.374,-0.6278465314939369,0.187,0.631095782807207,-1.795,-5.992,-6.678
1621787180315.075,-0.592,0.187,0.611,-1.9564975163676686,-6.1171983867782656,-6.913776290805243
1621787180320.05,-0.51,0.195,0.559,-2.25397527000957,-6.347813294648418,-7.348075238109705
1621787180325.023,-0.415,0.201,0.508,-2.551321641779708,-6.57832635080737,-7.782182376084215
1621787180328.446,-0.33722027491408935,0.21132474226804124,0.47083092783505154,-2.756,-6.737,-8.081
1621787180329.996,-0.302,0.216,0.454,-2.789080266136015,-6.812708480806915,-8.139637906153636
1621787180334.97,-0.176,0.215,0.403,-2.8952299372635992,-7.055645774786955,-8.327798256140724
1621787180339.943,-0.052,0.22,0.358,-3.0013639774574288,-7.298547295347177,-8.515930898816666
1621787180344.518,0.0666769600864058,0.2006804948696549,0.30832127252196967,-3.099,-7.522,-8.689
1621787180344.916,0.077,0.199,0.304,-3.0846637450441285,-7.529527152861114,-8.67758546885206
1621787180349.89,0.208,0.175,0.246,-2.9054781485926084,-7.623607327854658,-8.534917835062508
1621787180354.863,0.337,0.171,0.188,-2.7263189378864063,-7.71767364919263,-8.392271209612492
1621787180359.835,0.461,0.169,0.138,-2.5472037034224,-7.811716881104647,-8.249659598061703
1621787180360.59,0.47815465789732015,0.169,0.13344566604495928,-2.52,-7.826,-8.228
1621787180364.809,0.574,0.169,0.108,-2.048943477071748,-7.756418072142705,-7.921576944115234
1621787180369.782,0.668,0.18,0.089,-1.4937122800619929,-7.674402315616738,-7.560398121980126
1621787180374.755,0.744,0.175,0.084,-0.9384810830522381,-7.592386559090771,-7.1992192998450175
1621787180376.658,0.7639027791417068,0.1788274575272513,0.08782745752725131,-0.726,-7.561,-7.061
1621787180379.727,0.796,0.185,0.094,-0.555453185056895,-7.403630934475791,-6.787513954088996
1621787180384.701,0.838,0.208,0.119,-0.2790590826914604,-7.148593151330083,-6.344292952311502
1621787180389.673,0.864,0.246,0.162,-0.0027599471309420753,-6.893642997128663,-5.901224237728453
1621787180392.728,0.8738290539545388,0.27794442535225095,0.18350105552555354,0.167,-6.737,-5.629
1621787180394.646,0.88,0.298,0.197,0.08379635313782101,-6.386995562984349,-5.7823955325938305
1621787180399.619,0.887,0.333,0.232,-0.13193367269411946,-5.479505698222155,-6.1801187509497035
1621787180404.592,0.887,0.353,0.225,-0.34767428962163804,-4.571971280960341,-6.577861495213493
1621787180408.795,0.8641762828382028,0.39103952860299535,0.19879499140682544,-0.53,-3.805,-6.914
1621787180409.564,0.86,0.398,0.194,-0.5022899162855711,-3.6848272535286166,-7.014407177258846
1621787180414.537,0.763,0.459,0.206,-0.3230980415989304,-2.9077101596803354,-7.663706923532718
1621787180419.51,0.567,0.459,0.262,-0.14391496376426255,-2.1306312159102996,-8.312974794512224
1621787180424.482,0.332,0.422,0.295,0.035232926662513986,-1.353704872453243,-8.962115164314255
1621787180424.864,0.31724599823234806,0.4223073750368261,0.29607581262889127,0.049,-1.294,-9.012
1621787180429.454,0.14,0.426,0.309,1.1161771980735045,-2.137229948798979,-8.821473449915679
1621787180434.427,0.007,0.463,0.408,2.272356781476473,-3.0507851228368708,-8.61505702000942
1621787180439.399,-0.087,0.473,0.567,3.4283093179780915,-3.96416089578997,-8.40868112551087
1621787180440.933,-0.10798163606010017,0.4622006284984778,0.6064948443484238,3.785,-4.246,-8.345
1621787180444.371,-0.155,0.438,0.695,3.3758709314693816,-4.554558638504787,-8.229664974927823
1621787180449.344,-0.164,0.394,0.747,2.7840835435344173,-5.000875277313479,-8.062837881780885
1621787180454.316,-0.112,0.323,0.747,2.1924123689408903,-5.447104269867801,-7.896043549612521
1621787180457.0,-0.08177000883825984,0.2798142983403712,0.7232478640872041,1.873,-5.688,-7.806
1621787180459.288,-0.056,0.243,0.703,1.7096458377655532,-5.69355432635322,-7.842316749232593
1621787180464.26,-0.03,0.166,0.63,1.3546834483177825,-5.705623666534966,-7.92123166580555
1621787180469.233,-0.024,0.108,0.586,0.9996513387836976,-5.717695377321217,-8.000162082484879
1621787180473.066,-0.0340235733228563,0.08641076515077105,0.5690370297613201,0.726,-5.727,-8.061
1621787180474.204,-0.037,0.08,0.564,0.7349971279651101,-5.797205935538773,-8.036700670141474
1621787180479.176,-0.047,0.054,0.539,0.7742992538787666,-6.103886303888644,-7.930553983618764
1621787180484.149,-0.075,0.044,0.518,0.8136090993359368,-6.4106269089914445,-7.824386448250186
1621787180489.12,-0.138,0.059,0.504,0.8529054355919583,-6.71726209977662,-7.718255398361876
1621787180489.132,-0.13818045666584827,0.05910105573287503,0.5039759391112202,0.853,-6.718,-7.718
1621787180494.092,-0.213,0.101,0.494,0.6652833956414699,-6.7936423816905265,-7.95418947752348
1621787180499.064,-0.298,0.173,0.487,0.4771140390869579,-6.869467204644236,-8.190948618583022
1621787180504.036,-0.386,0.276,0.475,0.2889446825324459,-6.9452920275979455,-8.427707759642564
1621787180505.197,-0.40304743199450066,0.29678385544535013,0.46729362663262297,0.245,-6.963,-8.483
1621787180509.008,-0.459,0.365,0.442,0.21249794826590473,-6.92812553573057,-9.017979026718137
1621787180513.98,-0.508,0.459,0.396,0.1700953676403538,-6.882627876227241,-9.71591931365695
1621787180518.951,-0.529,0.553,0.34,0.1277011155354266,-6.83713915316575,-10.413722514362139
1621787180521.261,-0.5108806834920947,0.5929554158892272,0.3135179220269076,0.108,-6.816,-10.738
1621787180523.923,-0.49,0.639,0.283,0.28349676281953856,-6.846823794036292,-10.827488434298914
1621787180528.895,-0.386,0.714,0.25,0.6112656159761695,-6.904392261162953,-10.994622693698897
1621787180533.866,-0.25,0.777,0.227,0.9389700902763002,-6.961949420955044,-11.161724125353354
1621787180537.325,-0.1574532685035116,0.8166628849270664,0.20960399783900596,1.167,-7.002,-11.278
1621787180538.837,-0.117,0.834,0.202,1.2067192315875863,-6.901384221404906,-11.119217195051522
1621787180543.809,0.012,0.887,0.182,1.3373379737985958,-6.570504042676069,-10.597051749293291
1621787180548.781,0.129,0.927,0.166,1.4679503024408036,-6.239640110641661,-10.074911942612237
1621787180553.389,0.2133706833030407,0.9622317139067642,0.15765564670629267,1.589,-5.933,-9.591
1621787180553.751,0.22,0.965,0.157,1.5814711658306733,-5.904034275725794,-9.545691746466028
1621787180558.722,0.281,0.99,0.154,1.4781032679738562,-5.506346405228758,-8.923627450980392
1621787180563.694,0.307,0.991,0.143,1.3747099863201093,-5.108560875512996,-8.301410396716827
1621787180568.665,0.298,0.972,0.147,1.2713420884632922,-4.7108730050159595,-7.67934610123119
1621787180569.451,0.2897789892441432,0.9672571091793134,0.14889715632827463,1.255,-4.648,-7.581
1621787180573.636,0.246,0.942,0.159,1.1400876782294105,-4.527876235065211,-7.177113154774572
1621787180578.608,0.176,0.923,0.176,1.0035698020855501,-4.385167072021403,-6.697288420028578
1621787180583.579,0.093,0.908,0.188,0.8670720366035326,-4.242478931687593,-6.217534369014684
1621787180585.512,0.05878282009724473,0.8998345366141153,0.188,0.814,-4.187,-6.031
1621787180588.55,0.005,0.887,0.188,0.64696263415524,-4.176028123194795,-5.954953543522544
1621787180593.521,-0.087,0.85,0.188,0.37365438873856066,-4.1580758262138575,-5.8305255541029455
1621787180598.492,-0.161,0.82,0.188,0.1003461433218813,-4.140123529232921,-5.706097564683348
1621787180601.572,-0.20190268703640027,0.8026473448936484,0.17746445939971509,-0.069,-4.129,-5.629
1621787180603.462,-0.227,0.792,0.171,-0.16362490687668194,-4.147477749228407,-5.644064661791312
1621787180608.434,-0.293,0.759,0.148,-0.41257605704468403,-4.196091344472656,-5.683698675748407
1621787180613.405,-0.349,0.716,0.124,-0.6614660879084122,-4.244693004728384,-5.723322959269001
1621787180617.63,-0.38725342633983395,0.6768964975192808,0.08404642137839563,-0.873,-4.286,-5.757
1621787180618.375,-0.394,0.67,0.077,-0.8811651415194722,-4.317825494786124,-5.766092998510321
1621787180623.345,-0.424,0.606,0.042,-0.9356270635089532,-4.53010321344967,-5.826743775271334
1621787180628.317,-0.447,0.539,-0.002,-0.9901103882284984,-4.742464354117898,-5.887418386890828
1621787180633.287,-0.447,0.473,-0.049,-1.0445749855592374,-4.954752500532028,-5.948072143009151
1621787180633.691,-0.44602500368423637,0.4680437687282016,-0.053062484649015085,-1.049,-4.972,-5.953
1621787180638.257,-0.435,0.412,-0.099,-0.8093491564067486,-5.1698611947104425,-6.084054613163095
1621787180643.228,-0.412,0.344,-0.145,-0.5484535339717281,-5.3852625626994985,-6.226727070983432
1621787180648.199,-0.386,0.278,-0.185,-0.2875579115367076,-5.600663930688555,-6.369399528803769
1621787180649.753,-0.37443125214913786,0.2576765240457828,-0.1959434101291939,-0.206,-5.668,-6.414
1621787180653.169,-0.349,0.213,-0.22,0.10899334204846015,-5.797315295047579,-6.5641588787888
1621787180658.139,-0.304,0.159,-0.232,0.5672780378804,-5.985456480102149,-6.782625452223877
1621787180663.11,-0.257,0.113,-0.232,1.0256752956556106,-6.173643875596632,-7.001145684492141
1621787180665.814,-0.22653382128997399,0.09341459940069755,-0.22655961094463822,1.275,-6.276,-7.12
1621787180668.08,-0.201,0.077,-0.222,1.308159070870451,-6.298153081390046,-7.187729166033262
1621787180673.051,-0.143,0.037,-0.215,1.3808968258794199,-6.3467480921832715,-7.336299899668602
1621787180678.021,-0.086,-0.023,-0.204,1.4536202912650877,-6.395333556291995,-7.484841445988264
1621787180681.874,-0.02708011986049024,-0.07804357223559463,-0.1946968610306037,1.51,-6.433,-7.6
1621787180682.991,-0.01,-0.094,-0.192,1.4458680613625652,-6.431678409073632,-7.6
1621787180687.961,0.063,-0.169,-0.208,1.1605054657686285,-6.425797834977878,-7.6
1621787180692.931,0.168,-0.253,-0.229,0.8751428701746917,-6.419917260882125,-7.6
1621787180697.901,0.298,-0.337,-0.241,0.589780274580755,-6.414036686786371,-7.6
1621787180697.932,0.2988733667354357,-0.33743668336771787,-0.24105614500442085,0.588,-6.414,-7.6
1621787180702.871,0.438,-0.407,-0.25,0.4071518744869105,-6.254066283559853,-7.458212609079023
1621787180707.841,0.586,-0.469,-0.244,0.22517741494116578,-6.093136489403752,-7.315542156952173
1621787180712.811,0.721,-0.517,-0.244,0.04320295539542096,-5.932206695247651,-7.172871704825321
1621787180713.991,0.7459282801984575,-0.5298202583877781,-0.2428129390381687,0.0,-5.894,-7.139
1621787180717.781,0.826,-0.571,-0.239,-0.09014879450305555,-5.433344379921559,-7.134516159435712
1621787180722.751,0.909,-0.621,-0.236,-0.20836310844911982,-4.829275424888268,-7.1286363898938925
1621787180727.72,0.942,-0.675,-0.23,-0.32655419415645615,-4.225325164938737,-7.122757775683318
1621787180730.051,0.9373097214717296,-0.6914159748489463,-0.22530972147172962,-0.382,-3.942,-7.12
1621787180732.69,0.932,-0.71,-0.22,-0.33368831524217824,-3.698633996168932,-7.082862446410654
