time,gyro_x,gyro_y,gyro_z,acc_x,acc_y,acc_z
1621786536803.163,,,,0.304,-3.707,-8.287
1621786536821.824,,,,-0.265,-4.286,-8.385
1621786536838.595,0.475,1.648,1.365,-0.21283651878450904,-4.44160631684621,-8.896025290551759
1621786536840.793,0.47277272914690965,1.6576515070300581,1.3809621077804808,-0.206,-4.462,-8.963
1621786536844.516,0.469,1.674,1.408,-0.06383587288318071,-4.44693369305012,-9.122162011880786
1621786536850.466,0.463,1.672,1.442,0.16335638560626206,-4.42285625261238,-9.376518562146142
1621786536856.446,0.464,1.695,1.489,0.3916952793504832,-4.398657293764487,-9.63215884535978
1621786536860.068,0.4694258198220163,1.710674590596936,1.521554918932098,0.53,-4.384,-9.787
1621786536862.454,0.473,1.721,1.543,0.6076205503534781,-4.4329850254978,-9.83123274690473
1621786536868.492,0.476,1.733,1.585,0.8040427166066108,-4.556943755221126,-9.9431656297146
1621786536874.559,0.48,1.744,1.613,1.001417964415296,-4.681503958704786,-10.05564163435283
1621786536879.649,0.49001785928803104,1.7406607135706562,1.6255223241100387,1.167,-4.786,-10.15
1621786536880.656,0.492,1.74,1.628,1.185686819255883,-4.7814436459221765,-10.168686819255884
1621786536885.504,0.51,1.733,1.628,1.275641769550202,-4.759510185819549,-10.258641769550202
1621786536891.115,0.534,1.712,1.613,1.3797579312369794,-4.7341238377539465,-10.36275793123698
1621786536896.732,0.546,1.674,1.583,1.483982816235791,-4.70871097999189,-10.466982816235792
1621786536897.11,0.5450586039242925,1.6702344156971696,1.5807809949644036,1.491,-4.707,-10.474
1621786536902.356,0.532,1.618,1.55,1.5304923328727245,-4.661742363058265,-10.225227129422182
1621786536907.986,0.496,1.573,1.51,1.5728776211110962,-4.613169441500422,-9.958230751687037
1621786536913.622,0.435,1.513,1.482,1.6153070204859201,-4.564545969224165,-9.690956505990153
1621786536915.308,0.41079358691418927,1.494172789822147,1.4751265740620538,1.628,-4.55,-9.611
1621786536919.264,0.354,1.45,1.459,1.4198443553238418,-4.562779586926007,-9.394180228594346
1621786536924.913,0.264,1.363,1.421,1.1225837577702025,-4.581029717264888,-9.08454666131943
1621786536930.569,0.164,1.272,1.365,0.8249634516409331,-4.599301931689058,-8.774538413207672
1621786536933.571,0.11892474231250269,1.2269247423125027,1.3416669254323543,0.667,-4.609,-8.61
1621786536936.23,0.079,1.187,1.321,0.6413229170829171,-4.672975104895105,-8.507581804861804
1621786536941.898,0.005,1.133,1.278,0.5865878921078921,-4.809348811188811,-8.289260179820179
1621786536947.572,-0.051,1.091,1.244,0.5317939260739261,-4.945869370629371,-8.070703456543455
1621786536951.9,-0.09214584139264989,1.078808639587363,1.2257129593810445,0.49,-5.05,-7.904
1621786536953.252,-0.105,1.075,1.22,0.48206232249502323,-5.068741738553417,-7.868721433311214
1621786536958.939,-0.145,1.061,1.19,0.4486747710683477,-5.1475734571997345,-7.720332315859324
1621786536964.632,-0.176,1.054,1.15,0.41525138686131385,-5.226489781021898,-7.5717839416058395
1621786536970.296,-0.1899136357794628,1.052012337745791,1.1142220794242386,0.382,-5.305,-7.424
1621786536970.331,-0.19,1.052,1.114,0.38289694116402395,-5.305765542139994,-7.422952616475132
1621786536976.038,-0.192,1.066,1.087,0.5285003901239139,-5.4300385495325125,-7.252927357604771
1621786536981.75,-0.178,1.077,1.075,0.674228414245474,-5.554417882222252,-7.082756628800402
1621786536987.469,-0.173,1.098,1.063,0.8201370723514554,-5.678951386592962,-6.912374968591719
1621786536988.757,-0.16984961187409364,1.1007003326793483,1.0605246950439307,0.853,-5.707,-6.874
1621786536993.193,-0.159,1.11,1.052,0.9375216508973987,-5.71897190522626,-6.812943283346072
1621786536998.924,-0.148,1.112,1.033,1.0467159950451994,-5.734438526210368,-6.734063516327122
1621786537004.661,-0.145,1.115,1.014,1.1560219803389293,-5.74992096038795,-6.655103102021453
1621786537007.284,-0.13997687861271677,1.1181965317919076,1.0044104046242774,1.206,-5.757,-6.619
1621786537010.405,-0.134,1.122,0.993,1.220772786364293,-5.7799985424080464,-6.652070896747337
1621786537016.155,-0.14,1.126,0.977,1.2479887332081467,-5.822368823289955,-6.712997505022783
1621786537021.912,-0.143,1.131,0.967,1.2752381915354616,-5.864791275458616,-6.773999133323703
1621786537025.876,-0.13818525736072867,1.122746155475535,0.9546192332133022,1.294,-5.894,-6.816
1621786537027.675,-0.136,1.119,0.949,1.3073050987164894,-5.909136960133977,-6.866038740825058
1621786537033.444,-0.133,1.115,0.929,1.349970247674373,-5.957676296267222,-7.026496801036228
1621786537039.219,-0.122,1.136,0.922,1.392678729834753,-6.0062649317685235,-7.187117831769831
1621786537044.536,-0.10636743655786851,1.1396782502216778,0.9164826246674831,1.432,-6.051,-7.335
1621786537045.001,-0.105,1.14,0.916,1.4344339652160307,-6.056588185444969,-7.343046987040755
1621786537050.789,-0.089,1.131,0.906,1.464725013689343,-6.126133960001043,-7.443192902401502
1621786537056.583,-0.068,1.148,0.895,1.4950467262913614,-6.195750136893432,-7.543440197126541
1621786537062.385,-0.044,1.161,0.887,1.5254106020703502,-6.265463116998252,-7.643826888477484
1621786537063.262,-0.039460825610783484,1.1603947767481044,0.8877565290648695,1.53,-6.276,-7.659
1621786537068.181,-0.014,1.157,0.892,1.54023140625,-6.32243484375,-7.664246875
1621786537073.981,0.005,1.154,0.895,1.5522955078125,-6.3771873046875,-7.67043359375
1621786537079.788,0.04,1.136,0.901,1.5643743359375,-6.432006601562501,-7.676627864583334
1621786537082.012,0.05338996220075598,1.1321742965140695,0.9040605627887442,1.569,-6.453,-7.679
1621786537085.601,0.075,1.126,0.909,1.604486619773146,-6.441743491577336,-7.633973966309342
1621786537091.419,0.119,1.108,0.916,1.6620096555662263,-6.423496937212864,-7.5609877488514545
1621786537097.243,0.157,1.086,0.932,1.7195930386482206,-6.40523124042879,-7.48792496171516
1621786537100.824,0.18402646566164155,1.0718725293132327,0.9405993299832496,1.755,-6.394,-7.443
1621786537103.073,0.201,1.063,0.946,1.793611746442432,-6.350740543337646,-7.3904451228978
1621786537108.909,0.232,1.031,0.962,1.8938044501940492,-6.238487606727038,-7.25407172056921
1621786537114.75,0.25,1.012,0.977,1.9940851746442434,-6.126136054333764,-7.1175785122897794
1621786537119.696,0.2542289066087755,0.9993132801736735,0.9863035945393062,2.079,-6.031,-7.002
1621786537120.598,0.255,0.997,0.988,2.0892884994777767,-6.019806493623715,-6.978660348406896
1621786537126.453,0.257,0.977,1.002,2.15608297551352,-5.947136577566309,-6.82713584258507
1621786537132.312,0.251,0.969,1.012,2.2229247998143205,-5.8744151483501605,-6.675503926347143
1621786537138.178,0.244,0.955,1.021,2.289844609492863,-5.801608873931376,-6.523695098835635
1621786537138.63,0.2425375499001996,0.9541533183632734,1.0226163922155689,2.295,-5.796,-6.512
1621786537144.049,0.225,0.944,1.042,2.3118314697717457,-5.770610155768044,-6.433548234114744
1621786537149.927,0.194,0.942,1.061,2.330087741620399,-5.743071033826856,-6.348455441599835
1621786537155.81,0.159,0.937,1.086,2.3483599372815136,-5.715507891219412,-6.263288427925149
1621786537157.626,0.1503658637701588,0.937,1.0918588781559637,2.354,-5.707,-6.237
1621786537161.699,0.131,0.937,1.105,2.333058101703599,-5.694605815293967,-6.295765530933777
1621786537167.595,0.101,0.944,1.124,2.3027429998719096,-5.6766642244139875,-6.380833418726784
1621786537173.497,0.082,0.958,1.141,2.272396515947227,-5.658704060458563,-6.465989368515435
1621786537176.686,0.08092027278363298,0.960159454432734,1.1534168629882207,2.256,-5.649,-6.512
1621786537179.404,0.08,0.962,1.164,2.256,-5.676522136126211,-6.5337513656481345
1621786537185.051,0.087,0.979,1.18,2.256,-5.7337023219341035,-6.578942157657598
1621786537190.697,0.093,1.005,1.192,2.256,-5.790872619253313,-6.624125134571166
1621786537195.055,0.09531557554267923,1.0150341606849433,1.2120683213698866,2.256,-5.835,-6.659
1621786537196.343,0.096,1.018,1.218,2.2615079702870906,-5.836412300073613,-6.660341685069932
1621786537201.988,0.091,1.04,1.243,2.285646576992572,-5.842601686408352,-6.666221602087934
1621786537207.633,0.096,1.054,1.264,2.3097851836980525,-5.848791072743091,-6.672101519105936
1621786537213.277,0.094,1.072,1.281,2.333919614535234,-5.854979388342368,-6.677980418925249
1621786537213.296,0.0940299831263791,1.0720166572924328,1.281083286462164,2.334,-5.855,-6.678
1621786537218.92,0.103,1.077,1.306,2.3219697907042143,-5.842661323799194,-6.6841693381004035
1621786537224.562,0.106,1.077,1.325,2.3099009360061062,-5.830283011288314,-6.690358494355843
1621786537230.204,0.105,1.084,1.351,2.297832081307998,-5.8179046987774345,-6.696547650611284
1621786537231.528,0.105,1.0856429777104524,1.3554595109283705,2.295,-5.815,-6.698
1621786537235.845,0.105,1.091,1.37,2.2670558754988885,-5.810500522326093,-6.7491519567139
1621786537241.486,0.101,1.086,1.389,2.2305398173197974,-5.804620818043019,-6.815994910668845
1621786537247.126,0.093,1.089,1.41,2.1940316609969734,-5.798742386092734,-6.88282340020893
1621786537249.757,0.0934665973936009,1.0913329869680046,1.418865350478417,2.177,-5.796,-6.914
1621786537252.765,0.094,1.094,1.429,2.1736979804612644,-5.792697980461265,-6.9641906969887835
1621786537258.403,0.094,1.101,1.45,2.1675083019525334,-5.786508301952534,-7.0582738103214915
1621786537264.041,0.098,1.108,1.466,2.161318891464869,-5.780318891464869,-7.152352849733989
1621786537267.975,0.10637489713716489,1.110791632379055,1.4736769890424013,2.157,-5.776,-7.218
1621786537269.678,0.11,1.112,1.477,2.146061243364967,-5.781516125140743,-7.237259691169374
1621786537275.315,0.117,1.119,1.487,2.109851214412096,-5.7997758833306525,-7.301014101120583
1621786537280.951,0.131,1.121,1.494,2.073647458581309,-5.818032478151306,-7.364757466087609
1621786537286.189,0.15238341205529315,1.1284377085409716,1.4986485678381074,2.04,-5.835,-7.424
1621786537286.585,0.154,1.129,1.499,2.038934154060723,-5.832868308121446,-7.426544979079498
1621786537292.22,0.176,1.127,1.506,2.023767205771913,-5.802534411543826,-7.462759937238494
1621786537297.853,0.195,1.134,1.51,2.008605514429782,-5.772211028859564,-7.498962343096235
1621786537303.486,0.216,1.127,1.518,1.9934438230876517,-5.741887646175303,-7.535164748953975
1621786537304.394,0.21777310159500693,1.1292566747572816,1.518322382108183,1.991,-5.737,-7.541
1621786537309.119,0.227,1.141,1.52,1.960366252163065,-5.678328584651294,-7.495308986277114
1621786537314.751,0.237,1.145,1.531,1.9238504701731793,-5.608391578467276,-7.440844769071861
1621786537320.382,0.244,1.154,1.531,1.8873410197593465,-5.5384666988611215,-7.386389995573262
1621786537322.594,0.24124978317432783,1.1598933217692975,1.5321786643538595,1.873,-5.511,-7.365
1621786537326.012,0.237,1.169,1.534,1.8692423168800494,-5.468726064900555,-7.326295863864509
1621786537331.642,0.232,1.171,1.541,1.8630526075636793,-5.399091835091392,-7.262541857905897
1621786537337.271,0.227,1.173,1.548,1.8568642402769948,-5.329472703116193,-7.198801674853048
1621786537340.786,0.21575819885476313,1.1742490890161374,1.5511227225403434,1.853,-5.286,-7.159
1621786537342.899,0.209,1.175,1.553,1.8325505436971405,-5.279144784534837,-7.121354409987918
1621786537348.528,0.188,1.173,1.555,1.7780730030876628,-5.260882427171432,-7.021066210229561
1621786537354.155,0.161,1.175,1.557,1.72361672707746,-5.242627198281649,-6.920817156665324
1621786537358.972,0.12589628536712377,1.1792809408088873,1.5612809408088875,1.677,-5.227,-6.835
1621786537359.781,0.12,1.18,1.562,1.67479543572408,-5.227899822153437,-6.835899822153436
1621786537365.345,0.08,1.19,1.562,1.659634898654611,-5.234087796467506,-6.8420877964675055
1621786537370.907,0.047,1.192,1.569,1.6444796834059652,-5.24027359860981,-6.84827359860981
1621786537376.467,0.009,1.199,1.573,1.6293297899781425,-5.24645722858035,-6.85445722858035
1621786537376.955,0.0068056116624220595,1.1994388776675156,1.5737022042680249,1.628,-5.247,-6.855
1621786537382.027,-0.016,1.204,1.581,1.6361911436806613,-5.263382287361322,-6.913185365455733
1621786537387.583,-0.045,1.196,1.587,1.6451637480965846,-5.281327496193169,-6.976921796824016
1621786537393.138,-0.063,1.201,1.595,1.6541347753969982,-5.299269550793996,-7.040647025233848
1621786537394.912,-0.06843052441865577,1.201,1.5940416721614137,1.657,-5.305,-7.061
1621786537398.692,-0.08,1.201,1.592,1.686076948202183,-5.3071070252320425,-7.098083644083943
1621786537404.243,-0.091,1.208,1.595,1.7287796075015651,-5.3102014208334465,-7.152545006668663
1621786537409.792,-0.11,1.211,1.595,1.7714672418955333,-5.31329472767359,-7.206987207055173
1621786537412.851,-0.11275687568756876,1.2082431243124312,1.5977568756875689,1.795,-5.315,-7.237
1621786537415.34,-0.115,1.206,1.6,1.8194471088342687,-5.313610959725326,-7.247973418169928
1621786537420.887,-0.12,1.196,1.611,1.8739285519646847,-5.3105154231838245,-7.272428156847784
1621786537426.431,-0.134,1.204,1.611,1.9283812196849965,-5.3074215216088065,-7.296869979290425
1621786537430.77,-0.14809312775330397,1.204,1.614914757709251,1.971,-5.305,-7.316
1621786537431.973,-0.152,1.204,1.616,1.9749646081667167,-5.308292640680833,-7.324533987070729
1621786537437.514,-0.168,1.204,1.618,1.9932273942336542,-5.323460039278798,-7.3638454079266795
1621786537443.052,-0.18,1.203,1.628,2.0114805242628404,-5.338619418455579,-7.403136043752216
1621786537448.59,-0.195,1.203,1.634,2.0297336542920266,-5.353778797632361,-7.4424266795777525
1621786537448.671,-0.19502920029994267,1.2030146001499713,1.6341022010497992,2.03,-5.354,-7.443
1621786537454.125,-0.197,1.204,1.641,2.0001079996177005,-5.378096612553078,-7.520780205076392
1621786537459.658,-0.197,1.21,1.644,1.969783809614833,-5.402541622861512,-7.599684985185894
1621786537465.189,-0.195,1.204,1.646,1.939470323998853,-5.426978004123374,-7.678561912043801
1621786537466.552,-0.19549295836828398,1.204985916736568,1.645014083263432,1.932,-5.433,-7.698
1621786537470.719,-0.197,1.208,1.642,1.8948894859295369,-5.456164524706404,-7.718800797695547
1621786537476.154,-0.185,1.204,1.646,1.8464857910480832,-5.48637829603368,-7.7459315311322845
1621786537481.586,-0.169,1.206,1.649,1.7981103617327718,-5.516574423886549,-7.773046421449147
1621786537484.181,-0.1575283086747313,1.1993081800602599,1.6499559742771057,1.775,-5.531,-7.786
1621786537487.015,-0.145,1.192,1.651,1.732142180424939,-5.5246926227795194,-7.775002521769418
1621786537492.439,-0.127,1.189,1.646,1.6501149425287356,-5.512620689655172,-7.753954022988506
1621786537497.861,-0.11,1.176,1.646,1.5681172413793103,-5.500553103448276,-7.732913103448276
1621786537501.704,-0.1021961871281774,1.177418875067604,1.6431622498647918,1.51,-5.492,-7.718
1621786537503.278,-0.099,1.178,1.642,1.4791307182243316,-5.476070370628882,-7.695050533956865
1621786537508.694,-0.082,1.161,1.646,1.372910127730858,-5.421256829761988,-7.616081873385915
1621786537514.105,-0.08,1.145,1.639,1.2667900886438195,-5.366495176938647,-7.537187966776018
1621786537519.193,-0.08188206077572584,1.1412358784485483,1.6371179392242743,1.167,-5.315,-7.463
1621786537519.512,-0.082,1.141,1.637,1.1585779652244463,-5.3133923230797215,-7.45815870018325
1621786537524.917,-0.087,1.127,1.621,1.015809643711444,-5.286139367996979,-7.376090142263629
1621786537530.318,-0.094,1.098,1.614,0.8731445017975297,-5.258906108802999,-7.294080895827213
1621786537535.715,-0.103,1.086,1.607,0.7305889882076462,-5.231693776490831,-7.212134667841706
1621786537536.646,-0.10420784686396958,1.0813411620961173,1.6045843062720608,0.706,-5.227,-7.198
1621786537541.11,-0.11,1.059,1.593,0.587842094196804,-5.232126156433979,-7.207996005046257
1621786537546.5,-0.127,1.042,1.58,0.4451802354920101,-5.238315391084946,-7.220065012615644
1621786537551.887,-0.133,1.014,1.56,0.302595920941968,-5.24450126156434,-7.232127460050463
1621786537554.063,-0.13784995238743028,1.0043000952251395,1.551512583321997,0.245,-5.247,-7.237
1621786537557.271,-0.145,0.99,1.539,0.18704216943628932,-5.2741331244995715,-7.260626122013233
1621786537562.651,-0.148,0.958,1.517,0.08984591720630997,-5.31963582856902,-7.300247524196154
1621786537568.028,-0.152,0.932,1.501,-0.007301816291842844,-5.365115818455099,-7.339849148042535
1621786537571.443,-0.152,0.9173868095930233,1.4889282340116279,-0.069,-5.394,-7.365
1621786537573.403,-0.152,0.909,1.482,-0.11902611275964392,-5.431774819838915,-7.365
1621786537578.773,-0.145,0.874,1.459,-0.25608694362017803,-5.535269732937685,-7.365
1621786537584.104,-0.127,0.826,1.429,-0.39215697329376853,-5.638016490038152,-7.365
1621786537588.721,-0.10879884504331087,0.7921978550804345,1.4047317933910812,-0.51,-5.727,-7.365
1621786537589.431,-0.106,0.787,1.401,-0.50917388710548,-5.736335075708077,-7.36458694355274
1621786537594.754,-0.087,0.757,1.372,-0.5029800289764496,-5.80632567256612,-7.361490014488225
1621786537600.073,-0.065,0.724,1.354,-0.496790716172836,-5.876264907246954,-7.358395358086418
1621786537605.389,-0.056,0.695,1.326,-0.4906050964461237,-5.946162410158802,-7.3553025482230625
1621786537605.909,-0.054139310344827586,0.6916703448275862,1.3238455172413794,-0.49,-5.953,-7.355
1621786537610.699,-0.037,0.661,1.304,-0.5860970470142666,-5.930931201412421,-7.316728792322807
1621786537616.007,-0.031,0.621,1.265,-0.6925874647606572,-5.906475553150895,-7.274318364324971
1621786537621.31,-0.03,0.585,1.225,-0.7989750263405189,-5.882043525927613,-7.231948899393456
1621786537623.056,-0.03032947843715444,0.5751156468853668,1.2141272115739035,-0.834,-5.874,-7.218
1621786537626.609,-0.031,0.555,1.192,-0.8115695508841032,-5.894353555679239,-7.209692426253372
1621786537631.905,-0.031,0.531,1.162,-0.7781342638181273,-5.924692982831699,-7.197308986599307
1621786537637.196,-0.031,0.51,1.14,-0.7447313439225928,-5.955003039773944,-7.184937534786146
1621786537640.163,-0.029316370353267143,0.4987758023551143,1.1254085430616485,-0.726,-5.972,-7.178
1621786537642.483,-0.028,0.49,1.114,-0.737963487566887,-5.977302000171689,-7.214026411423012
1621786537647.766,-0.019,0.471,1.093,-0.7652093169656908,-5.989376856382522,-7.296073511317137
1621786537653.045,-0.009,0.443,1.075,-0.7924324834749763,-6.001441668812774,-7.3780523650098715
1621786537657.227,0.002097126463375133,0.41446453195132105,1.0504277914025266,-0.814,-6.011,-7.443
1621786537658.321,0.005,0.407,1.044,-0.8316731061583914,-6.0084936322175375,-7.428540185870407
1621786537663.592,0.014,0.374,1.011,-0.9168242692826205,-5.996417649083556,-7.358871052405128
1621786537668.859,0.024,0.349,0.977,-1.0019083842469092,-5.984351174597712,-7.289256776525256
1621786537674.123,0.024,0.321,0.939,-1.0869491151077073,-5.972290852766544,-7.2196779967300575
1621786537674.25,0.023831019915509958,0.3202516596258298,0.9384930597465299,-1.089,-5.972,-7.218
1621786537679.382,0.017,0.29,0.918,-1.0947460041145751,-6.0225043519544235,-7.253383288495015
1621786537684.638,0.014,0.264,0.888,-1.1006305945992605,-6.0742268051619215,-7.289619977269131
1621786537689.881,0.021,0.239,0.859,-1.106500971097268,-6.125824324907566,-7.325769137809492
1621786537691.22,0.021766671326716065,0.23542220047532503,0.8482666014259751,-1.108,-6.139,-7.335
1621786537695.12,0.024,0.225,0.817,-1.0900132513424563,-6.170592109821583,-7.452605664299324
1621786537700.355,0.042,0.209,0.785,-1.0658710375887754,-6.212995741670997,-7.610458600381084
1621786537705.586,0.052,0.199,0.747,-1.0417468387320286,-6.255367731970668,-7.768193746752122
1621786537708.133,0.05833484353106025,0.19120326950023353,0.7265335824381131,-1.03,-6.276,-7.845
1621786537710.813,0.065,0.183,0.705,-1.0611399748158226,-6.313495071717011,-7.876139974815822
1621786537716.037,0.075,0.168,0.661,-1.1218426423123127,-6.38658603870258,-7.936842642312313
1621786537721.255,0.101,0.147,0.625,-1.1824715520111158,-6.45958819527869,-7.997471552011116
1621786537725.001,0.12111291606198213,0.13263363138429848,0.596267262768597,-1.226,-6.512,-8.041
1621786537726.47,0.129,0.127,0.585,-1.2559474860335196,-6.514532003192338,-7.999090981644055
1621786537731.68,0.164,0.105,0.538,-1.3621597765363127,-6.5235120510774145,-7.850455706304868
1621786537736.886,0.199,0.065,0.492,-1.4682924327069578,-6.532485366030618,-7.701931872596677
1621786537741.826,0.22558370870870872,0.03651745495495495,0.44927618243243245,-1.569,-6.541,-7.561
1621786537742.089,0.227,0.035,0.447,-1.5626959981379922,-6.537769591085638,-7.549003578546179
1621786537747.287,0.246,0.023,0.415,-1.4381890374292654,-6.473967516692609,-7.312068690630319
1621786537752.481,0.251,0.0,0.391,-1.3137814904790306,-6.410216385668359,-7.075322985613081
1621786537757.671,0.246,-0.002,0.374,-1.189467509419141,-6.346513201344137,-6.838755335088663
1621786537758.609,0.2434673698088332,-0.0016381956869761748,0.3711055654958094,-1.167,-6.335,-6.796
1621786537762.856,0.232,0.0,0.358,-1.1022968975626832,-6.305058956519202,-6.629294359602678
1621786537768.037,0.225,0.007,0.333,-1.0233632783442,-6.268532811155355,-6.4259242112632915
1621786537773.216,0.215,0.031,0.319,-0.9444631339430272,-6.232022156099126,-6.2226403098061525
1621786537775.347,0.2075852369265622,0.03923862563715311,0.3148806871814234,-0.912,-6.217,-6.139
1621786537778.389,0.197,0.051,0.309,-0.8119789445979735,-6.252890979807284,-6.0907202555891855
1621786537783.558,0.164,0.087,0.307,-0.642015396762732,-6.3138797210159225,-6.008679563100408
1621786537788.723,0.138,0.119,0.318,-0.4721963416238979,-6.374816613297071,-5.926708616630843
1621786537792.044,0.11420503971255674,0.14343806732223902,0.32250174924357033,-0.363,-6.414,-5.874
1621786537793.887,0.101,0.157,0.325,-0.32831988295537673,-6.45398153621068,-5.897856386247256
1621786537799.054,0.072,0.195,0.34,-0.23109243599122165,-6.566071777615216,-5.964738961228968
1621786537804.216,0.04,0.227,0.363,-0.1339568690563277,-6.678056093635698,-6.031558332114118
1621786537808.731,0.007606826681816031,0.24976277043980497,0.38926473512285187,-0.049,-6.776,-6.09
1621786537809.373,0.003,0.253,0.393,-0.04220991638550682,-6.800999853307906,-6.100223705442277
1621786537814.527,-0.028,0.272,0.433,0.012294058970221504,-7.001673580753997,-6.182289350154027
1621786537819.677,-0.058,0.3,0.473,0.06675414405163561,-7.202185712190113,-6.264288910077747
1621786537824.822,-0.084,0.304,0.52,0.12116259351620946,-7.402507730673317,-6.34621072319202
1621786537825.374,-0.08507329345865376,0.304858634766923,0.5248298205639419,0.127,-7.424,-6.355
1621786537829.965,-0.094,0.312,0.565,0.0077831874678237906,-7.451107303081563,-6.5502832242406415
1621786537835.103,-0.094,0.316,0.602,-0.12563440464808412,-7.481443553725087,-6.768828050305214
1621786537840.236,-0.084,0.316,0.63,-0.25892520408913733,-7.511750974479665,-6.9871651834963595
1621786537841.972,-0.08230778750952018,0.31667688499619195,0.6387995049504951,-0.304,-7.522,-7.061
1621786537845.365,-0.079,0.318,0.656,-0.38227896552741,-7.497819586564832,-7.13927896552741
1621786537850.491,-0.072,0.316,0.674,-0.5005366400283094,-7.461289728996491,-7.2575366400283094
1621786537855.613,-0.056,0.311,0.693,-0.6187041962784938,-7.424787709002978,-7.375704196278494
1621786537858.53,-0.04687895414857579,0.30472928097714586,0.7009809151199962,-0.686,-7.404,-7.443
1621786537860.73,-0.04,0.3,0.707,-0.7343488485529311,-7.376562361427262,-7.443
1621786537865.844,-0.024,0.295,0.714,-0.8467407396458451,-7.31278073728087,-7.443
1621786537870.953,-0.005,0.29,0.723,-0.9590199544742365,-7.249063056138588,-7.443
1621786537875.047,0.011841375352685188,0.2867921189804409,0.7270098512744488,-1.049,-7.198,-7.443
1621786537876.058,0.016,0.286,0.728,-1.0736732869910626,-7.178114067201234,-7.433977678637596
1621786537881.16,0.037,0.288,0.73,-1.1981837140019862,-7.077762379759593,-7.388447746372408
1621786537886.257,0.054,0.278,0.731,-1.32258093346574,-6.977501934221642,-7.342959210896856
1621786537891.35,0.063,0.281,0.724,-1.4468768619662364,-6.877323126176466,-7.297507714654138
1621786537891.519,0.063,0.281,0.724,-1.451,-6.874,-7.296
1621786537896.439,0.063,0.281,0.724,-1.4745961404496881,-6.80978265573819,-7.231483970416043
1621786537901.542,0.068,0.278,0.723,-1.499070461989951,-6.743175324964057,-7.1645668381034255
1621786537906.643,0.073,0.272,0.723,-1.5235354162652477,-6.676593487379389,-7.0976753175532465
1621786537907.991,0.07167773147482875,0.27067773147482876,0.7232644537050342,-1.53,-6.659,-7.08
1621786537911.74,0.068,0.267,0.724,-1.5523346740082222,-6.636665325991777,-7.03305160361537
1621786537916.832,0.066,0.269,0.721,-1.5826703275501268,-6.606329672449873,-6.969284821680345
1621786537921.92,0.075,0.267,0.721,-1.6129812552872556,-6.576018744712744,-6.905570014396177
1621786537924.441,0.08045457164809834,0.267,0.7140578179024203,-1.628,-6.561,-6.874
1621786537927.004,0.086,0.267,0.707,-1.6448687734333154,-6.553346575016366,-6.8219879485806105
1621786537932.085,0.101,0.264,0.696,-1.6783106588109264,-6.538173867761709,-6.71887546866631
1621786537937.162,0.113,0.258,0.679,-1.7117268344938403,-6.523012825090757,-6.615842260310659
1621786537940.85,0.11590793589681891,0.25436508012897635,0.673911112180567,-1.736,-6.512,-6.541
1621786537942.235,0.117,0.253,0.672,-1.7235619938252271,-6.505315629334645,-6.496155487941295
1621786537947.304,0.115,0.232,0.668,-1.6780414783659223,-6.4808522230674,-6.332033901591421
1621786537952.369,0.106,0.239,0.67,-1.6325560427759631,-6.456407669246946,-6.168038793682044
1621786537957.219,0.08779189580318378,0.2504998552821997,0.6652083936324168,-1.589,-6.433,-6.011
1621786537957.43,0.087,0.251,0.665,-1.5892454251883745,-6.430209903121636,-6.007073196986006
1621786537962.488,0.07,0.253,0.661,-1.595130516684607,-6.3633057050592035,-5.912911733046286
1621786537967.542,0.047,0.255,0.651,-1.6010107792130128,-6.296456404736276,-5.818827532591795
1621786537972.591,0.021,0.257,0.644,-1.6068853606027989,-6.229671689989235,-5.724834230355221
1621786537973.549,0.01663240418118467,0.25965853658536586,0.6422909407665506,-1.608,-6.217,-5.707
1621786537977.636,-0.002,0.271,0.635,-1.6303303706590326,-6.180117252956429,-5.712018060822254
1621786537982.678,-0.031,0.276,0.623,-1.6578791648555884,-6.134615311980095,-5.718208801091143
1621786537987.716,-0.068,0.284,0.611,-1.685406615806592,-6.0891486233306855,-5.724394745125077
1621786537989.838,-0.07769272171846967,0.28863564951752896,0.6013072782815303,-1.697,-6.07,-5.727
1621786537992.751,-0.091,0.295,0.588,-1.7109844933285252,-6.073585767520135,-5.7639334054573865
1621786537997.781,-0.11,0.293,0.569,-1.7351315362423367,-6.079777316985215,-5.82770636494771
1621786538002.807,-0.129,0.29,0.541,-1.7592586548864046,-6.085963757663181,-5.891426703930761
1621786538006.086,-0.14075236984103834,0.287388362257547,0.5305534490301882,-1.775,-6.09,-5.933
1621786538007.829,-0.147,0.286,0.525,-1.7570403060609712,-6.101614652367755,-5.954078443185926
1621786538012.848,-0.157,0.295,0.496,-1.7053319827690083,-6.135054765634414,-6.014766056151343
1621786538017.863,-0.162,0.293,0.475,-1.6536613899264971,-6.168470478370888,-6.075409386673093
1621786538022.295,-0.1558089646772229,0.29653773447015835,0.4581957612667479,-1.608,-6.198,-6.129
1621786538022.874,-0.155,0.297,0.456,-1.6087163566078764,-6.199396895385359,-6.133584682290408
1621786538027.88,-0.141,0.305,0.435,-1.6149086735926552,-6.211471913505678,-6.173215510992993
1621786538032.883,-0.138,0.311,0.414,-1.621097668518966,-6.223540453611983,-6.212825078521382
1621786538037.882,-0.129,0.312,0.394,-1.6272815293549165,-6.235598982242087,-6.252401787871467
1621786538038.463,-0.1287674373136517,0.3126976880590449,0.3917906544796911,-1.628,-6.237,-6.257
1621786538042.877,-0.127,0.318,0.375,-1.668236779555811,-6.148314853223926,-6.331999167335321
1621786538047.869,-0.136,0.319,0.356,-1.7137412835147532,-6.048019211845034,-6.4168170862792
1621786538052.857,-0.136,0.321,0.335,-1.7592101797041768,-5.947802052896916,-6.5015686342785335
1621786538054.589,-0.1401712801920533,0.3199571799519867,0.3266574396158934,-1.775,-5.913,-6.531
1621786538057.84,-0.148,0.318,0.311,-1.7293252792617775,-5.897236158329286,-6.540902926177756
1621786538062.82,-0.162,0.316,0.281,-1.659358851384167,-5.873088453132588,-6.556072638416707
1621786538067.796,-0.173,0.326,0.262,-1.5894507345798932,-5.8489608729966,-6.571229707989315
1621786538070.675,-0.1787905332416773,0.3271581066483355,0.2527351468133163,-1.549,-5.835,-6.58
1621786538072.768,-0.183,0.328,0.246,-1.5234323189287888,-5.847783840535605,-6.587696393791845
1621786538077.736,-0.19,0.335,0.232,-1.4627444917833232,-5.8781277541083385,-6.605964668289714
1621786538082.7,-0.19,0.333,0.222,-1.4021073645769933,-5.908446317711503,-6.624217681071212
1621786538086.72,-0.1875685174246899,0.3402944477259303,0.20579011616459936,-1.353,-5.933,-6.639
1621786538087.66,-0.187,0.342,0.202,-1.3622207831830733,-5.934174622061538,-6.649395405244611
1621786538092.616,-0.19,0.346,0.19,-1.4108394581483685,-5.940368083840556,-6.704207541988925
1621786538097.57,-0.182,0.358,0.173,-1.459438973044712,-5.94655910484646,-6.758998077891172
1621786538102.518,-0.185,0.365,0.155,-1.5079786127255808,-5.95274249843638,-6.813721111161961
1621786538102.724,-0.18470830453243803,0.36512501234324085,0.15429159672163523,-1.51,-5.953,-6.816
1621786538107.463,-0.178,0.368,0.138,-1.51,-5.958577164461248,-6.82744786389414
1621786538112.403,-0.188,0.375,0.12,-1.51,-5.964391379962193,-6.8393823062381855
1621786538117.483,-0.195,0.38,0.105,-1.51,-5.970369950850662,-6.851654109640832
1621786538118.868,-0.198545625,0.3854548076923077,0.10199985576923076,-1.51,-5.972,-6.855
1621786538122.561,-0.208,0.4,0.094,-1.4482718553599618,-6.007369776308344,-6.828416346468889
1621786538127.635,-0.211,0.401,0.082,-1.3634634974533106,-6.055964346349746,-6.791893039049237
1621786538132.707,-0.218,0.414,0.075,-1.2786877848270932,-6.104540210883745,-6.755383790545975
1621786538135.261,-0.218,0.4165186594115664,0.07046641305918043,-1.236,-6.129,-6.737
1621786538137.777,-0.218,0.419,0.066,-1.195258745431491,-6.175737137316327,-6.731004117252182
1621786538142.844,-0.215,0.421,0.056,-1.1132148877452077,-6.269855374058327,-6.718929738196465
1621786538147.909,-0.197,0.429,0.054,-1.0312026553293054,-6.3639373312448715,-6.706860013425823
1621786538151.627,-0.19332682103232032,0.4370809937288953,0.048857549445248435,-0.971,-6.433,-6.698
1621786538152.97,-0.192,0.44,0.047,-0.9645080294587771,-6.441053330544808,-6.7229817600573645
1621786538158.029,-0.18,0.457,0.052,-0.9400530915283608,-6.471389835825578,-6.817086837663017
1621786538163.086,-0.175,0.457,0.052,-0.9156087748913222,-6.501713165324689,-6.911151043456178
1621786538167.97,-0.1682353509492295,0.45893275687164875,0.052,-0.892,-6.531,-7.002
1621786538168.14,-0.168,0.459,0.052,-0.8886355173755575,-6.532531204166542,-7.0054686461731865
1621786538173.192,-0.159,0.45,0.054,-0.788605001646263,-6.578055928043342,-7.1085960818941
1621786538178.241,-0.15,0.452,0.063,-0.6886324942380795,-6.623554251848304,-7.2116637133706485
1621786538183.287,-0.143,0.447,0.073,-0.5887179951510072,-6.66902617558143,-7.3146715406028315
1621786538184.283,-0.14201263555383423,0.4456176897753679,0.07576462044926413,-0.569,-6.678,-7.335
1621786538188.33,-0.138,0.44,0.087,-0.47880497931530663,-6.7413601384975115,-7.396123898315246
1621786538193.371,-0.127,0.428,0.103,-0.36645975478146164,-6.820280337550213,-7.472258678577853
1621786538198.411,-0.112,0.415,0.117,-0.25414173511601407,-6.899181425744948,-7.548375022483363
1621786538200.571,-0.10427923211169285,0.4119974791545472,0.12386290478960636,-0.206,-6.933,-7.581
1621786538203.447,-0.094,0.408,0.133,-0.21643620583509768,-6.936537696893254,-7.631235295884199
1621786538208.48,-0.072,0.394,0.148,-0.23469956604651862,-6.942728666456447,-7.719147063681548
1621786538213.511,-0.045,0.374,0.169,-0.25295583885159995,-6.948917233509017,-7.807024715828041
1621786538216.83,-0.02321208294886115,0.3621156816084697,0.173621679374484,-0.265,-6.953,-7.865
1621786538218.538,-0.012,0.356,0.176,-0.3073138794854435,-6.928264274430151,-7.887735815842925
1621786538223.563,0.009,0.33,0.185,-0.43179990972692395,-6.855492590085007,-7.954623832092079
1621786538228.584,0.044,0.307,0.182,-0.5561891672308734,-6.782777476867524,-8.021459851049425
1621786538233.057,0.0734148584217184,0.29006417242385907,0.18021728130777465,-0.667,-6.718,-8.081
1621786538233.602,0.077,0.288,0.18,-0.6719471153846154,-6.712043269230769,-8.070096153846153
1621786538238.618,0.113,0.271,0.182,-0.7174636785628165,-6.657237611526405,-7.969773932963587
1621786538243.632,0.145,0.258,0.178,-0.7629647335423198,-6.602450626959248,-7.869485893416927
1621786538248.643,0.169,0.244,0.183,-0.808436987581384,-6.547698321075477,-7.769261333494092
1621786538249.256,0.1713263604447045,0.24277559976594498,0.1821429198361615,-0.814,-6.541,-7.757
1621786538253.65,0.188,0.234,0.176,-0.8672552086478652,-6.442369179902168,-7.589083066610303
1621786538258.655,0.199,0.229,0.175,-0.9279200434808865,-6.330015429675705,-7.397803128208225
1621786538263.658,0.195,0.22,0.171,-0.98855824627091,-6.217711003079896,-7.206607162268253
1621786538265.427,0.1907551259519625,0.22176869752001563,0.171,-1.01,-6.178,-7.139
1621786538268.659,0.183,0.225,0.171,-0.9863757297117449,-6.117137473155682,-7.046705181331478
1621786538273.656,0.169,0.234,0.162,-0.9498489458879041,-6.023034572456973,-6.904003085206134
1621786538278.65,0.147,0.244,0.162,-0.9133453616043072,-5.928991440065333,-6.761391624572759
1621786538281.57,0.13120642605633803,0.24809463028169013,0.15907526408450703,-0.892,-5.874,-6.678
1621786538283.642,0.12,0.251,0.157,-0.8655162917518746,-5.884156373551465,-6.654087525562372
1621786538288.631,0.096,0.258,0.157,-0.8017488146633341,-5.908610891464061,-6.596511065666894
1621786538293.619,0.073,0.267,0.154,-0.7379969400893737,-5.933059425888056,-6.538948693478755
1621786538297.687,0.05749194219936321,0.27434592211609116,0.15481621356845457,-0.686,-5.953,-6.492
1621786538298.603,0.054,0.276,0.155,-0.6781994658249363,-5.963021124195703,-6.500369916231638
1621786538303.584,0.035,0.281,0.152,-0.6357830217312129,-6.017512322447493,-6.545882451135122
1621786538308.562,0.024,0.29,0.152,-0.5933915260410344,-6.071971470195459,-6.5913682165837075
1621786538313.538,0.007,0.297,0.148,-0.5510166626198859,-6.126409250940876,-6.636836135729028
1621786538313.775,0.0065722684958353745,0.297,0.1480950514453699,-0.549,-6.129,-6.639
1621786538318.521,-0.002,0.297,0.15,-0.49974000455200673,-6.166756164175707,-6.740174721189591
1621786538323.501,-0.012,0.298,0.15,-0.4480524846369775,-6.2063729459069865,-6.84633531598513
1621786538328.479,-0.003,0.295,0.148,-0.39638523632501327,-6.245974190122145,-6.952454275092937
1621786538329.865,-0.0013280812840524225,0.295,0.14855730623864918,-0.382,-6.257,-6.982
1621786538333.453,0.003,0.295,0.15,-0.3645786802030457,-6.287598984771574,-7.052131979695432
1621786538338.425,0.017,0.295,0.147,-0.3404358795100155,-6.33000364752728,-7.149322228639169
1621786538343.396,0.037,0.293,0.14,-0.31629900604881606,-6.372397899632208,-7.246488616675279
1621786538345.929,0.05127869255345294,0.2914701400835586,0.13541042025067584,-0.304,-6.394,-7.296
1621786538348.363,0.065,0.29,0.131,-0.30096425309055475,-6.388080293526582,-7.312393033311005
1621786538353.327,0.086,0.283,0.12,-0.2947733999147433,-6.37600812983375,-7.345823640460386
1621786538358.288,0.108,0.286,0.108,-0.2885858961086413,-6.363942497411851,-7.379236161013337
1621786538361.965,0.12505410594722333,0.2837755513981882,0.1013266541945648,-0.284,-6.355,-7.404
1621786538363.247,0.131,0.283,0.099,-0.27302921934332725,-6.347152288289387,-7.385902215851036
1621786538368.205,0.148,0.284,0.087,-0.23060023180272365,-6.316801625669101,-7.315909871440989
1621786538373.158,0.164,0.281,0.08,-0.18821511902764856,-6.2864823479175875,-7.245989904381377
1621786538377.974,0.1747005769515262,0.27808166083140196,0.0751361013856699,-0.147,-6.257,-7.178
1621786538378.109,0.175,0.278,0.075,-0.1468313525404051,-6.254925636246982,-7.176844764901775
1621786538383.058,0.176,0.269,0.063,-0.1406378356909352,-6.178745378998503,-7.134419174482906
1621786538388.003,0.176,0.269,0.052,-0.13444981821514773,-6.102632764046317,-7.0920312547737625
1621786538392.948,0.168,0.264,0.045,-0.1282614952186001,-6.026516391188782,-7.049641242247411
1621786538393.956,0.16575531283977465,0.26277562518533165,0.042959375308886036,-0.127,-6.011,-7.041
1621786538397.888,0.157,0.258,0.035,-0.0740157304402381,-5.9772379305595935,-7.02646013067895
1621786538402.826,0.15,0.244,0.021,-0.007473672935379733,-5.934836712521614,-7.008199752107848
1621786538407.761,0.129,0.23,0.014,0.05902890544903672,-5.892460650946427,-6.989950207341892
1621786538409.911,0.12507769969316046,0.22869256656438683,0.010949321983569238,0.088,-5.874,-6.982
1621786538412.694,0.12,0.227,0.007,0.1582527861665108,-5.877495163490871,-6.978679594683673
1621786538417.625,0.11,0.215,0.0,0.28271730565817915,-5.883687428142198,-6.972796943264912
1621786538422.552,0.094,0.211,0.0,0.40708322474821024,-5.889874787300906,-6.966918952064139
1621786538425.837,0.0919990581470282,0.20633113567639913,0.0,0.49,-5.894,-6.963
1621786538427.477,0.091,0.204,0.0,0.529502479465725,-5.889977554310279,-6.973107684040838
1621786538432.399,0.07,0.201,0.002,0.6480451984340216,-5.8779066247025415,-7.003439763567974
1621786538437.32,0.063,0.194,0.005,0.7665702771167575,-5.865837491364091,-7.033767329392799
1621786538441.739,0.058506454816286003,0.1904051638530288,0.009493545183714001,0.873,-5.855,-7.061
1621786538442.237,0.058,0.19,0.01,0.8815977973297238,-5.859298898664862,-7.065298898664862
1621786538447.151,0.045,0.182,0.012,0.9664251830431305,-5.901712591521566,-7.107712591521565
1621786538452.062,0.044,0.185,0.009,1.0512062080846614,-5.94410310404233,-7.150103104042331
1621786538456.971,0.044,0.187,0.01,1.1359493016673845,-5.986474650833692,-7.1924746508336925
1621786538457.611,0.04465214147142217,0.18804342635427548,0.009869571705715565,1.147,-5.992,-7.198
1621786538461.879,0.049,0.195,0.009,1.1760896596354447,-6.063377405586971,-7.198
1621786538466.783,0.059,0.202,0.002,1.2095158934376973,-6.145395479268424,-7.198
1621786538471.684,0.066,0.206,0.0,1.2429221583642778,-6.227364555245682,-7.198
1621786538473.456,0.06812512199882881,0.206,-0.004250243997657622,1.255,-6.257,-7.198
1621786538476.687,0.072,0.206,-0.012,1.2787836701746904,-6.338025723815471,-7.17421632982531
1621786538481.624,0.08,0.204,-0.019,1.3151259233311503,-6.461835772704427,-7.13787407666885
1621786538486.56,0.093,0.215,-0.023,1.3514609878310666,-6.5856213314244805,-7.101539012168933
1621786538489.486,0.10011663120391905,0.21677915780097975,-0.027744420802612697,1.373,-6.659,-7.08
1621786538491.494,0.105,0.218,-0.031,1.3581236030843284,-6.6886267226710405,-7.087438198457836
1621786538496.424,0.119,0.22,-0.044,1.32159466834271,-6.761375024910705,-7.1057026658286455
1621786538501.353,0.126,0.232,-0.059,1.2850747781031073,-6.834105314794659,-7.123962610948446
1621786538505.412,0.1342400753333003,0.23612003766665013,-0.06971209793329038,1.255,-6.894,-7.139
1621786538506.279,0.136,0.237,-0.072,1.256090434515584,-6.912700951942269,-7.139
1621786538511.202,0.143,0.246,-0.087,1.2622823583602025,-7.0188924458774755,-7.139
1621786538516.124,0.15,0.258,-0.103,1.268473360970367,-7.125068140641793,-7.139
1621786538521.043,0.159,0.284,-0.112,1.274660371564563,-7.231175372332259,-7.139
1621786538521.313,0.16004360349622568,0.2837253675009932,-0.11243941199841082,1.275,-7.237,-7.139
1621786538525.959,0.178,0.279,-0.12,1.1199086603518267,-7.297280784844384,-7.19635453315291
1621786538530.874,0.209,0.272,-0.138,0.955836203715094,-7.36105234346168,-7.257030385041211
1621786538535.785,0.255,0.255,-0.164,0.7919022942551359,-7.424770051666871,-7.317655000615082
1621786538537.19,0.26730189898588186,0.24698946112547226,-0.1725827202227083,0.745,-7.443,-7.335
1621786538540.696,0.298,0.227,-0.194,0.6560869859849068,-7.414910565224087,-7.265771707993223
1621786538545.602,0.349,0.209,-0.215,0.5316731557061452,-7.375605698444478,-7.168902233174188
1621786538550.507,0.387,0.164,-0.246,0.4072840905590636,-7.3363086554751265,-7.072052040659171
1621786538553.042,0.4071681940432314,0.15314020320749078,-0.2589283295148919,0.343,-7.316,-7.022
1621786538555.409,0.426,0.143,-0.271,0.3459908070088845,-7.258726045779862,-6.904610824901283
1621786538560.31,0.454,0.12,-0.3,0.35218373642645606,-7.140131447433366,-6.661538345261599
1621786538565.207,0.473,0.093,-0.323,0.35837142152023693,-7.0216372778874625,-6.418671705330701
1621786538568.87,0.4767416458852868,0.07429177057356609,-0.3387149127182045,0.363,-6.933,-6.237
1621786538570.102,0.478,0.068,-0.344,0.38053788405394134,-6.901665647156958,-6.177371194216599
1621786538574.995,0.471,0.044,-0.354,0.4501958848880856,-6.777210018999954,-5.940533991380509
1621786538579.885,0.449,0.023,-0.361,0.5198087029056027,-6.652835117475323,-5.7038504101209515
1621786538584.675,0.41764719101123593,0.007323595505617977,-0.3717775280898876,0.588,-6.531,-5.472
1621786538584.774,0.417,0.007,-0.372,0.5897857971687166,-6.528669064748201,-5.471260617312602
1621786538589.659,0.384,-0.009,-0.375,0.6780129960547691,-6.413509352517985,-5.434731461282587
1621786538594.543,0.344,-0.026,-0.374,0.7662225574379207,-6.298372661870503,-5.398209607797633
1621786538599.423,0.297,-0.038,-0.372,0.8543615688094686,-6.183328057553957,-5.361716964492922
1621786538600.455,0.289173789031225,-0.040326711369095276,-0.372,0.873,-6.159,-5.354
1621786538604.302,0.26,-0.049,-0.372,0.8681168340151233,-6.10870339035577,-5.44507104561795
1621786538609.179,0.227,-0.066,-0.377,0.8619261807363332,-6.044939661584232,-5.5605267292673854
1621786538614.052,0.194,-0.079,-0.382,0.8557404859303335,-5.9812270050824345,-5.6758899373992815
1621786538616.211,0.181592503507717,-0.08431749849669272,-0.3806706253758268,0.853,-5.953,-5.727
1621786538618.924,0.166,-0.091,-0.379,0.8868064255781468,-5.949550364736924,-5.779434455998759
1621786538623.792,0.148,-0.108,-0.377,0.9474620828806456,-5.943361011950954,-5.873512618345491
1621786538628.66,0.115,-0.131,-0.372,1.0081177401831445,-5.937171659164985,-5.967590780692224
1621786538631.941,0.09408904281483713,-0.14718912814335192,-0.36255634191637803,1.049,-5.933,-6.031
1621786538633.524,0.084,-0.155,-0.358,1.0629081074359612,-5.9448924396916185,-6.053777045511066
1621786538638.386,0.059,-0.168,-0.34,1.105625559562298,-5.9814189567271825,-6.123734612036807
1621786538643.245,0.031,-0.192,-0.326,1.1483172718229295,-6.01792346431236,-6.193650024869435
1621786538647.648,0.0056178747361013345,-0.221914647632452,-0.306963406052076,1.187,-6.051,-6.257
1621786538648.102,0.003,-0.225,-0.305,1.187,-6.058646097071052,-6.269772457607324
1621786538652.957,-0.021,-0.248,-0.291,1.187,-6.140393562853273,-6.406327883402625
1621786538657.81,-0.04,-0.281,-0.272,1.187,-6.222108142196478,-6.5428283738963895
1621786538662.66,-0.061,-0.309,-0.258,1.187,-6.303769281076284,-6.679239594525155
1621786538663.327,-0.06223819115721624,-0.3125769966764025,-0.2553860408903213,1.187,-6.315,-6.698
1621786538667.508,-0.07,-0.335,-0.239,1.1608212163279312,-6.362282088877104,-6.836907831729345
1621786538672.353,-0.073,-0.363,-0.229,1.1304861724197095,-6.417070892670525,-6.9978692892015415
1621786538677.196,-0.072,-0.391,-0.222,1.100163357302179,-6.471837609770554,-7.158765859212927
1621786538678.979,-0.06463402087851126,-0.39541958747289324,-0.2179487114831812,1.089,-6.492,-7.218
1621786538682.037,-0.052,-0.403,-0.211,1.0966311234691326,-6.528394588852787,-7.2543945888527865
1621786538686.875,-0.021,-0.417,-0.201,1.108703480379905,-6.585970444888778,-7.311970444888778
1621786538691.71,0.01,-0.428,-0.201,1.1207685266183454,-6.64351143464134,-7.36951143464134
1621786538694.608,0.03338030303030303,-0.428,-0.1974030303030303,1.128,-6.678,-7.404
1621786538696.544,0.049,-0.428,-0.195,1.1535590324498544,-6.685320305410396,-7.373602121600901
1621786538701.375,0.089,-0.415,-0.187,1.2173373595769315,-6.703586913665237,-7.297749256813844
1621786538706.204,0.127,-0.403,-0.173,1.2810899020558877,-6.721846136996589,-7.2219270582345025
1621786538710.212,0.150253300956139,-0.3913733495219305,-0.16386477462437396,1.334,-6.737,-7.159
1621786538711.03,0.155,-0.389,-0.162,1.341192564391803,-6.729807435608197,-7.139942329385223
1621786538715.854,0.18,-0.367,-0.159,1.3836031522215957,-6.6873968477784045,-7.027569749952999
1621786538720.676,0.197,-0.34,-0.15,1.4259965689039293,-6.645003431096071,-6.915242667794699
1621786538725.495,0.208,-0.312,-0.14,1.468364228865075,-6.602635771134925,-6.802983831547284
1621786538725.795,0.20743983781044095,-0.3105062341611759,-0.1393153573238723,1.471,-6.6,-6.796
1621786538730.312,0.199,-0.288,-0.129,1.4254142682276139,-6.611323844198236,-6.713539185838486
1621786538735.126,0.195,-0.251,-0.119,1.376832522519695,-6.623391921157528,-6.625658830545181
1621786538739.938,0.19,-0.23,-0.108,1.328270487429773,-6.635455101848655,-6.537814130127742
1621786538741.352,0.18647223632118567,-0.22088661049639632,-0.10653009846716069,1.314,-6.639,-6.512
1621786538744.748,0.178,-0.199,-0.103,1.2261156112970908,-6.656270812705298,-6.490575447530136
1621786538749.555,0.168,-0.173,-0.096,1.1017190815219955,-6.680716896914832,-6.460249925346158
1621786538754.36,0.162,-0.155,-0.091,0.9773667782545146,-6.705154289845506,-6.429935184748612
1621786538756.886,0.15936997305404443,-0.13974584371345772,-0.08994798922161777,0.912,-6.718,-6.414
1621786538759.162,0.157,-0.126,-0.089,0.8788298987736339,-6.7381075392389915,-6.393745690401599
1621786538763.962,0.154,-0.115,-0.089,0.8088820075250704,-6.780509579509139,-6.3510341461878745
1621786538768.761,0.155,-0.103,-0.089,0.7389447899119976,-6.822905149478125,-6.308329119503786
1621786538772.394,0.1565153767820774,-0.08708854378818737,-0.09051537678207738,0.686,-6.855,-6.276
1621786538773.556,0.157,-0.082,-0.091,0.7162418398561923,-6.850572534611625,-6.277500835724873
1621786538778.349,0.169,-0.066,-0.082,0.8410029329212527,-6.832307262922199,-6.283692453246712
1621786538783.139,0.182,-0.058,-0.077,0.9656750607083162,-6.814055015926078,-6.289879655618279
1621786538787.877,0.1899147634584013,-0.04909589110929853,-0.07897869086460033,1.089,-6.796,-6.296
1621786538787.928,0.19,-0.049,-0.079,1.0898088235294117,-6.795062424969989,-6.2954486794717885
1621786538792.714,0.195,-0.038,-0.077,1.1656756965944273,-6.707118784355847,-6.243735341505023
1621786538797.498,0.19,-0.044,-0.079,1.2415077399380805,-6.619215517786062,-6.192045744613635
1621786538802.279,0.173,-0.04,-0.086,1.3172933436532508,-6.531366083275415,-6.140387802489417
1621786538803.333,0.16836755237608583,-0.04,-0.08467644353602452,1.334,-6.512,-6.129
1621786538807.057,0.152,-0.04,-0.08,1.4073630567201962,-6.478697033462542,-6.09111184241753
1621786538811.834,0.127,-0.028,-0.075,1.5014753579621865,-6.435975001977691,-6.042507792105055
1621786538816.608,0.108,-0.03,-0.072,1.5955251325053397,-6.393281354323234,-5.99393603354165
1621786538818.764,0.0980602680855418,-0.0250301340427709,-0.06703013404277089,1.638,-6.374,-5.972
1621786538821.38,0.086,-0.019,-0.061,1.6546405717636246,-6.397432641871226,-6.003752927753039
1621786538826.149,0.061,-0.009,-0.051,1.6849771960128679,-6.440151561732406,-6.06164015973884
1621786538830.915,0.044,-0.009,-0.038,1.715295184064149,-6.482844238784209,-6.119491830816284
1621786538834.17,0.039219302289841704,-0.006268172737052405,-0.026389734132472725,1.736,-6.512,-6.159
1621786538835.681,0.037,-0.005,-0.021,1.6925822077612889,-6.520644266328069,-6.202319561939529
1621786538840.443,0.021,-0.002,-0.009,1.555741449091342,-6.547888580271406,-6.338850726132846
1621786538845.202,0.016,0.0,0.002,1.4189989048488216,-6.575113340211094,-6.475283898103325
1621786538849.552,0.010513317936874518,-0.001828894021041827,0.012973364126250964,1.294,-6.6,-6.6
1621786538849.959,0.01,-0.002,0.014,1.273750246446402,-6.6046648646929755,-6.610654975037364
1621786538854.714,0.014,-0.009,0.017,1.0371548955385252,-6.659168505739816,-6.735146246064807
1621786538859.468,0.017,-0.012,0.026,0.8006202817438866,-6.713658154990937,-6.859605558558845
1621786538864.218,0.017,-0.028,0.03,0.56428002671161,-6.768103030495754,-6.983962603745985
1621786538864.907,0.01888675169718165,-0.030031886443118702,0.03014513474593705,0.53,-6.776,-7.002
1621786538868.965,0.03,-0.042,0.031,0.35607100082818377,-6.801943747212843,-7.059182136714021
1621786538873.711,0.042,-0.059,0.024,0.15266552525960375,-6.832284289991718,-7.126055169777665
1621786538878.455,0.059,-0.087,0.014,-0.05066670382875704,-6.8626139071160095,-7.1929041218067145
1621786538880.236,0.0702722122070564,-0.09639351017254699,0.01061833633788308,-0.127,-6.874,-7.218
1621786538883.195,0.089,-0.112,0.005,-0.16121599119575097,-6.858921766591703,-7.191323125508397
1621786538887.933,0.106,-0.133,-0.005,-0.2160039236327097,-6.834777931958467,-7.148607110388057
1621786538892.669,0.134,-0.155,-0.016,-0.2707664481554141,-6.810645294033208,-7.105910904827982
1621786538895.543,0.14371337218297148,-0.17017714403589293,-0.022070857614357176,-0.304,-6.796,-7.08
1621786538897.403,0.15,-0.18,-0.026,-0.27296165827941526,-6.761431807652369,-7.019140506430226
1621786538902.135,0.157,-0.199,-0.04,-0.19400311526479752,-6.673493665628245,-6.864319833852544
1621786538906.863,0.164,-0.213,-0.049,-0.11510975317517372,-6.585628117261762,-6.709626967010145
1621786538910.825,0.15813304410701373,-0.22892459456667702,-0.05486695589298626,-0.049,-6.512,-6.58
1621786538911.59,0.157,-0.232,-0.056,-0.022928874242109137,-6.497209649810427,-6.559845014317938
1621786538916.313,0.152,-0.237,-0.065,0.13799835223727785,-6.405914396326929,-6.43543588923195
1621786538921.035,0.136,-0.25,-0.075,0.2988923035082948,-6.314638020125102,-6.311052488441664
1621786538925.755,0.117,-0.244,-0.079,0.45971970436257187,-6.223399398486618,-6.186720536242781
1621786538926.086,0.11538579783655091,-0.2436490864862067,-0.07984219243310388,0.471,-6.217,-6.178
1621786538930.472,0.094,-0.239,-0.091,0.6713563702789751,-6.211530501386062,-6.0904880221769995
1621786538935.187,0.059,-0.237,-0.087,0.8867464387007868,-6.205650600092938,-5.996409601487012
1621786538939.898,0.026,-0.222,-0.082,1.1019469130065538,-6.199775874501258,-5.902413992020126
1621786538941.322,0.015115280945469625,-0.21655764047273482,-0.07988352685050798,1.167,-6.198,-5.874
1621786538944.608,-0.01,-0.204,-0.075,1.2495307884936433,-6.24466662386028,-5.903598738281751
1621786538949.316,-0.044,-0.194,-0.066,1.367780563760113,-6.311530371131373,-5.946007689097213
1621786538954.021,-0.07,-0.176,-0.056,1.4859567548478232,-6.37835251059458,-5.988390249775266
1621786538956.531,-0.0822748650332226,-0.17066310215946845,-0.052264171511627905,1.549,-6.414,-6.011
1621786538958.724,-0.093,-0.166,-0.049,1.5264666666666666,-6.443611111111111,-6.0748444444444445
1621786538963.424,-0.101,-0.161,-0.035,1.4781766521948867,-6.507069142949027,-6.211666152114488
1621786538968.122,-0.105,-0.136,-0.023,1.42990670525808,-6.5705008039877795,-6.348431001768773
1621786538971.714,-0.1004105536781908,-0.13370527683909542,-0.017645645957889262,1.393,-6.619,-6.453
1621786538972.818,-0.099,-0.133,-0.016,1.3594260198740558,-6.626210030439194,-6.479436778277045
1621786538977.511,-0.087,-0.117,-0.009,1.216710618286064,-6.656858240324684,-6.5918135478571775
1621786538982.202,-0.075,-0.115,-0.005,1.0740546133900244,-6.687493694738368,-6.704143547374016
1621786538986.873,-0.05806108738673055,-0.11001796687845017,-1.796687845016104e-05,0.932,-6.718,-6.816
1621786538986.89,-0.058,-0.11,0.0,0.9314868936815447,-6.717977739422193,-6.816130224380172
1621786538991.577,-0.049,-0.106,0.003,0.7887243559756747,-6.711784136918684,-6.852362799025697
1621786538996.26,-0.033,-0.105,0.007,0.6460807994450986,-6.705595696288291,-6.8885651767135
1621786539000.942,-0.019,-0.108,0.005,0.5034744245318019,-6.699408868743245,-6.924758117852015
1621786539002.008,-0.017405040175310447,-0.11050636543879787,0.004544297192945842,0.471,-6.698,-6.933
1621786539005.621,-0.012,-0.119,0.003,0.43584741298516627,-6.693217335100023,-6.90956494199011
1621786539010.297,-0.005,-0.124,0.0,0.39035261610057204,-6.687027566816404,-6.879235077400382
1621786539014.972,0.0,-0.127,0.0,0.3448696958924474,-6.680839414407136,-6.848913130594965
1621786539017.117,0.0,-0.1288364424935988,-0.0013773318701990908,0.324,-6.678,-6.835
1621786539019.644,0.0,-0.131,-0.003,0.31729945624029,-6.668116697954428,-6.825116697954428
1621786539024.313,0.005,-0.14,-0.01,0.3049198601760746,-6.64985679375971,-6.80685679375971
1621786539028.98,0.005,-0.143,-0.016,0.29254544277576383,-6.631604528094251,-6.788604528094251
1621786539032.203,0.0015456876700858276,-0.1409274126020515,-0.0180725873979485,0.284,-6.619,-6.776
1621786539033.645,0.0,-0.14,-0.019,0.2980793365113338,-6.611529331647048,-6.759143107306158
1621786539038.307,0.0,-0.148,-0.019,0.3435922755131822,-6.587379608911372,-6.704651425235918
1621786539042.967,-0.002,-0.147,-0.026,0.38908853001264715,-6.563238739176963,-6.650179719168531
1621786539047.26,-0.011216415954714608,-0.14976492478641437,-0.02415671680905708,0.431,-6.541,-6.6
1621786539047.625,-0.012,-0.15,-0.024,0.4343505481120585,-6.540295899309785,-6.598567519285424
1621786539052.281,-0.024,-0.14,-0.023,0.4770918879415347,-6.531314023548518,-6.580294047909054
1621786539056.933,-0.035,-0.138,-0.021,0.5197973690621194,-6.5223396833130325,-6.562035907429964
1621786539061.583,-0.047,-0.134,-0.017,0.5624826796589525,-6.5133695818107995,-6.5437863905805935
1621786539062.293,-0.04868021851034773,-0.13354175858808698,-0.016236264313478306,0.569,-6.512,-6.541
1621786539066.231,-0.058,-0.131,-0.012,0.5637521676183039,-6.519609356953459,-6.566714378670311
1621786539070.877,-0.068,-0.129,-0.009,0.5575608315845981,-6.528586794202333,-6.597051925235469
1621786539075.521,-0.08,-0.131,-0.005,0.5513720983195874,-6.537560457436599,-6.6273767182340215
1621786539077.301,-0.07884939505523408,-0.1290823250920568,-0.0076847448711204625,0.549,-6.541,-6.639
1621786539080.162,-0.077,-0.126,-0.012,0.5453718266253871,-6.559713736353268,-6.676427472706535
1621786539084.8,-0.079,-0.129,-0.005,0.5394904024767803,-6.5900495030145025,-6.737099006029005
1621786539089.436,-0.065,-0.119,-0.009,0.5336114551083592,-6.620372494704253,-6.797744989408506
1621786539092.284,-0.0594701079799842,-0.119,-0.009,0.53,-6.639,-6.835
1621786539094.071,-0.056,-0.119,-0.009,0.5252220100846918,-6.650706075292505,-6.842047535125079
1621786539098.702,-0.037,-0.112,-0.009,0.5128410110801064,-6.681039522853739,-6.860309508656843
1621786539103.331,-0.021,-0.112,-0.01,0.5004645811915602,-6.711361776080678,-6.878564742742449
1621786539107.245,-0.00746231792273591,-0.10861557948068398,-0.011692210259658012,0.49,-6.737,-6.894
1621786539107.957,-0.005,-0.108,-0.012,0.4909534241200608,-6.734187398845821,-6.890281645931763
1621786539112.581,0.005,-0.098,-0.01,0.4971461034183982,-6.715918994915725,-6.866130196668247
1621786539117.204,0.017,-0.103,-0.009,0.503337474864719,-6.697654449149079,-6.841983848027596
1621786539121.823,0.028,-0.099,-0.009,0.5095232879399696,-6.67940630057709,-6.817859177034118
1621786539122.179,0.02877097985299561,-0.09861451007350219,-0.009231293955898683,0.51,-6.678,-6.816
1621786539126.44,0.038,-0.094,-0.012,0.49885376717375995,-6.64999151751355,-6.765413251019372
1621786539131.055,0.044,-0.093,-0.012,0.48678150228437617,-6.619656082663305,-6.710623741136784
1621786539135.668,0.037,-0.087,-0.012,0.47471434653740974,-6.589333486170927,-6.655857418900552
1621786539137.088,0.03638399618704655,-0.087,-0.011075994280569825,0.471,-6.58,-6.639
1621786539140.278,0.035,-0.087,-0.009,0.4667135593498335,-6.569498220407092,-6.617996440814185
1621786539144.885,0.026,-0.079,-0.009,0.46052352835047317,-6.554332644458659,-6.587665288917319
1621786539149.491,0.021,-0.077,-0.007,0.4543348094933491,-6.539170283258705,-6.557340566517411
1621786539151.973,0.016147236660655564,-0.07052964888087408,-0.004304020367030869,0.451,-6.531,-6.541
1621786539154.094,0.012,-0.065,-0.002,0.44543323968652965,-6.522578490807827,-6.54656676031347
1621786539158.695,0.003,-0.066,0.0,0.43335782936566614,-6.5043105623737,-6.558642170634334
1621786539163.293,-0.002,-0.065,0.002,0.4212907486815516,-6.486055235184912,-6.570709251318449
1621786539166.833,-0.004311248073959939,-0.05960708782742681,0.0004591679506933744,0.412,-6.472,-6.58
1621786539167.888,-0.005,-0.058,0.0,0.4112888881574616,-6.470648887499178,-6.585617783556053
1621786539172.482,-0.012,-0.051,0.005,0.40819215324863406,-6.4647650911724055,-6.610081989335791
1621786539177.073,-0.016,-0.04,0.007,0.40509739319333815,-6.4588850470673425,-6.634530593772628
1621786539181.662,-0.026,-0.044,0.005,0.40200394970706343,-6.453007504443421,-6.658968797314199
1621786539181.668,-0.026002555366269164,-0.044,0.004993611584327087,0.402,-6.453,-6.659
1621786539186.248,-0.028,-0.044,0.0,0.3958157244107467,-6.465059337399044,-6.659
1621786539190.832,-0.03,-0.045,0.0,0.38962617438602276,-6.4771289599472555,-6.659
1621786539195.413,-0.038,-0.042,0.0,0.3834405801879018,-6.4891908686335915,-6.659
1621786539196.48,-0.03893181939335785,-0.04106818060664215,-0.00046590969667892747,0.382,-6.492,-6.659
1621786539199.993,-0.042,-0.038,-0.002,0.37273348304958803,-6.5129090638881095,-6.668266516950412
1621786539204.57,-0.047,-0.033,0.0,0.36065976981125847,-6.540152314272032,-6.680340230188742
1621786539209.144,-0.044,-0.028,0.002,0.3485944285737876,-6.567376673987352,-6.692405571426213
1621786539211.265,-0.04446387568751001,-0.02382511881240989,0.0010722486249799754,0.343,-6.58,-6.698
1621786539213.716,-0.045,-0.019,0.0,0.3267298673810233,-6.59959056784734,-6.701320435228363
1621786539218.285,-0.038,-0.024,0.0,0.2964032476766875,-6.636106293613785,-6.707509541290472
1621786539222.853,-0.028,-0.03,-0.005,0.26608148956576383,-6.672616165624897,-6.713697655190661
1621786539226.029,-0.025217028559204192,-0.02721702855920419,-0.0015212856990052415,0.245,-6.698,-6.718
1621786539227.418,-0.024,-0.026,0.0,0.24688492950979904,-6.694324387455892,-6.719790683034309
1621786539231.98,-0.01,-0.03,0.0,0.25307613935689083,-6.682251528254063,-6.725672332389046
1621786539236.54,-0.005,-0.035,-0.007,0.25926469857362955,-6.670183837781423,-6.731551463644948
1621786539240.766,0.006123487201456571,-0.036853914533576095,-0.005146085466423905,0.265,-6.659,-6.737
1621786539241.099,0.007,-0.037,-0.005,0.26543009824747743,-6.657664431757833,-6.7352343335103555
1621786539245.654,0.012,-0.035,-0.01,0.2713130476633032,-6.639396325677111,-6.711083278013808
1621786539250.207,0.017,-0.044,-0.009,0.2771934745087626,-6.62113605284121,-6.686942578332448
1621786539254.757,0.016,-0.044,-0.007,0.2830701174986723,-6.602887529872543,-6.6628174123738715
1621786539255.477,0.015366759716555723,-0.044158310070861066,-0.006683379858277862,0.284,-6.6,-6.659
1621786539259.305,0.012,-0.045,-0.005,0.29937923524522025,-6.58462076475478,-6.663952635078969
1621786539263.852,0.01,-0.044,-0.003,0.31764814630091437,-6.566351853699086,-6.669835843724023
1621786539268.395,0.005,-0.042,-0.002,0.3359003823773899,-6.5480996176226105,-6.675713682460516
1621786539270.162,0.00383258064516129,-0.04122172043010753,-0.0012217204301075268,0.343,-6.541,-6.678
1621786539272.936,0.002,-0.04,0.0,0.33562097217365244,-6.539107941582988,-6.681784116834025
1621786539277.475,0.0,-0.04,0.003,0.32354643552979967,-6.536011906546102,-6.687976186907795
1621786539282.011,0.0,-0.047,0.002,0.31148034170954686,-6.532918036335781,-6.694163927328438
1621786539284.823,-0.0012401615074024226,-0.047,0.002,0.304,-6.531,-6.698
1621786539286.546,-0.002,-0.047,0.002,0.31553623913659945,-6.5345315017765095,-6.702590952309463
1621786539291.077,-0.002,-0.044,0.002,0.34587506046806454,-6.543818896061652,-6.714664564880148
1621786539295.606,-0.003,-0.045,0.005,0.3762008040167476,-6.553102286943902,-6.726732973027073
1621786539299.459,-0.004702205684085639,-0.04414889715795718,0.008404411368171277,0.402,-6.561,-6.737
1621786539300.133,-0.005,-0.044,0.009,0.4002006416790602,-6.56279935832094,-6.73879935832094
1621786539304.658,-0.009,-0.031,0.016,0.3881219357318316,-6.574878064268169,-6.750878064268169
1621786539309.18,-0.009,-0.033,0.017,0.37605105024814933,-6.58694894975185,-6.76294894975185
1621786539313.7,0.0,-0.038,0.017,0.3639853784068312,-6.599014621593168,-6.775014621593169
1621786539314.069,0.0,-0.038163441790076746,0.017490325370230247,0.363,-6.6,-6.776
1621786539318.217,0.0,-0.04,0.023,0.3519106640781898,-6.605402496987548,-6.776
1621786539322.733,0.0,-0.037,0.024,0.3398377125451868,-6.611284191324139,-6.776
1621786539327.245,0.007,-0.031,0.028,0.3277745514794484,-6.617161115945909,-6.776
1621786539328.657,0.006373863144218277,-0.030060794716327416,0.028,0.324,-6.619,-6.776
1621786539331.755,0.005,-0.028,0.028,0.303154423844168,-6.619,-6.771958510745297
1621786539336.263,0.007,-0.035,0.028,0.27281999530626616,-6.619,-6.766077346028766
1621786539340.768,0.005,-0.037,0.028,0.24250528045059846,-6.619,-6.760200003352667
1621786539343.221,0.007178447528187337,-0.03754461188204683,0.028,0.226,-6.619,-6.757
1621786539345.272,0.009,-0.038,0.028,0.2065336490026194,-6.621821210289475,-6.751498639935523
1621786539349.772,0.005,-0.044,0.024,0.16382399758210758,-6.628011014843173,-6.739428521055813
1621786539354.271,0.003,-0.038,0.024,0.12112361474914365,-6.634199476123313,-6.72736102155954
1621786539357.761,0.007657363162467419,-0.037223772806255426,0.024,0.088,-6.639,-6.718
1621786539358.767,0.009,-0.037,0.024,0.08259231843340455,-6.639,-6.7207038407832975
1621786539363.261,0.007,-0.045,0.017,0.05843818239935398,-6.639,-6.732780908800323
1621786539367.752,0.01,-0.049,0.024,0.034299793072121935,-6.639,-6.744850103463939
1621786539372.24,0.01,-0.056,0.012,0.010177150451708417,-6.639,-6.756911424774145
1621786539372.273,0.010066108058109799,-0.056,0.011985309320420044,0.01,-6.639,-6.757
1621786539376.727,0.019,-0.056,0.01,0.003850924349921637,-6.627009302482347,-6.745009302482347
1621786539381.211,0.017,-0.058,0.005,-0.002339270968503008,-6.614938421611419,-6.732938421611419
1621786539385.693,0.021,-0.068,0.005,-0.00852710696169467,-6.602872141424695,-6.720872141424695
1621786539386.76,0.020047203750136272,-0.068,0.004285402812602202,-0.01,-6.6,-6.718
1621786539390.172,0.017,-0.068,0.002,-0.007640982361380708,-6.6,-6.7132819647227615
1621786539394.649,0.019,-0.075,-0.002,-0.004545868849691957,-6.6,-6.707091737699384
1621786539399.124,0.017,-0.075,-0.003,-0.0014519368723098988,-6.6,-6.70090387374462
1621786539401.224,0.017939031712242783,-0.075,-0.0058170951367283435,0.0,-6.6,-6.698
1621786539403.597,0.019,-0.075,-0.009,0.004364302194143789,-6.596990136417832,-6.689120902432604
1621786539408.394,0.024,-0.075,-0.009,0.013187655812080954,-6.590905064957186,-6.671169941623698
1621786539413.448,0.023,-0.079,-0.014,0.0224834084328208,-6.584494201080814,-6.652257893188399
1621786539416.991,0.02159325319891431,-0.07407638619620008,-0.015406746801085693,0.029,-6.58,-6.639
1621786539418.485,0.021,-0.072,-0.016,0.03445982399370974,-6.581850787794478,-6.631781927601536
1621786539423.483,0.012,-0.082,-0.016,0.052722578401427404,-6.588041552000484,-6.607637947198113
1621786539428.48,0.012,-0.084,-0.024,0.07098265642483442,-6.594231408957571,-6.583497505065473
1621786539433.137,0.010135750586395622,-0.08679637412040656,-0.02306787529319781,0.088,-6.6,-6.561
1621786539433.476,0.01,-0.087,-0.023,0.08676075911084227,-6.6,-6.560369877513987
1621786539438.472,0.007,-0.079,-0.028,0.06850403750189021,-6.6,-6.5510867987297745
1621786539443.468,0.0,-0.086,-0.024,0.05024642371087252,-6.6,-6.541803266293663
1621786539448.464,-0.005,-0.086,-0.026,0.03198880991985483,-6.6,-6.532519733857553
1621786539449.282,-0.0061459707765234815,-0.08681855055465962,-0.027800811220251184,0.029,-6.6,-6.531
1621786539453.46,-0.012,-0.091,-0.037,0.03935425805475723,-6.604918272576009,-6.531
1621786539458.456,-0.017,-0.094,-0.031,0.051736045983966125,-6.610799621842384,-6.531
1621786539463.45,-0.017,-0.087,-0.035,0.06411238844350325,-6.616678384510664,-6.531
1621786539465.422,-0.018579276637341154,-0.08976373411534702,-0.035789638318670575,0.069,-6.619,-6.531
1621786539468.445,-0.021,-0.094,-0.037,0.07986518298863791,-6.615440715917515,-6.536619922235502
1621786539473.44,-0.026,-0.096,-0.04,0.09781791911887075,-6.609559647185197,-6.545905820233899
1621786539478.434,-0.033,-0.094,-0.042,0.11576802275443666,-6.603679440821822,-6.555190356597122
1621786539481.559,-0.033,-0.09525152774382792,-0.040748472256172084,0.127,-6.6,-6.561
1621786539483.428,-0.033,-0.096,-0.04,0.13163433829761473,-6.597682830851192,-6.567719790531541
1621786539488.421,-0.038,-0.094,-0.037,0.14401537716430562,-6.591492311417847,-6.585672296888243
1621786539493.415,-0.038,-0.094,-0.038,0.15639944303184405,-6.585300278484078,-6.603629192396173
1621786539497.69,-0.038,-0.09314380714879468,-0.038,0.167,-6.58,-6.619
1621786539498.408,-0.038,-0.093,-0.038,0.16873604867638378,-6.581736048676384,-6.619890281372505
1621786539503.401,-0.033,-0.089,-0.04,0.18080810970349181,-6.593808109703492,-6.626081081899226
1621786539508.393,-0.033,-0.091,-0.042,0.19287839985469735,-6.6058783998546975,-6.63227097428446
1621786539513.385,-0.033,-0.087,-0.044,0.2049480997139354,-6.617948099713935,-6.6384605639558645
1621786539513.82,-0.03343567551708963,-0.087,-0.043477189379492444,0.206,-6.619,-6.639
1621786539518.378,-0.038,-0.087,-0.038,0.21165247668644785,-6.630304953372896,-6.627977670461426
1621786539523.369,-0.04,-0.084,-0.042,0.2178420733922732,-6.642684146784546,-6.615907956885067
1621786539528.361,-0.033,-0.08,-0.038,0.2240331839651205,-6.655066367930241,-6.603835291268015
1621786539529.947,-0.035224331066868855,-0.0790467152570562,-0.035775668933131145,0.226,-6.659,-6.6
1621786539533.352,-0.04,-0.077,-0.031,0.23001188457578878,-6.654776963604433,-6.6040118845757885
1621786539538.342,-0.037,-0.073,-0.035,0.23589120692787502,-6.648588203233816,-6.609891206927875
1621786539543.333,-0.037,-0.075,-0.033,0.24177167988857262,-6.642398231696239,-6.615771679888573
1621786539546.073,-0.03974548656979304,-0.075,-0.03409819462791722,0.245,-6.639,-6.619
1621786539548.323,-0.042,-0.075,-0.035,0.245,-6.6362087952026165,-6.624582409594766
1621786539553.313,-0.037,-0.065,-0.031,0.245,-6.630018535344358,-6.636962929311284
1621786539558.303,-0.035,-0.068,-0.031,0.245,-6.623828275486098,-6.6493434490278025
1621786539562.195,-0.03655995890209893,-0.06410010274475268,-0.028660061646851608,0.245,-6.619,-6.659
1621786539563.293,-0.037,-0.063,-0.028,0.24370601687086368,-6.617706016870863,-6.656275824991292
1621786539568.282,-0.037,-0.063,-0.03,0.2378259756780906,-6.61182597567809,-6.643896790901243
1621786539573.271,-0.037,-0.066,-0.028,0.2319459344853175,-6.605945934485317,-6.631517756811195
1621786539578.259,-0.038,-0.051,-0.023,0.22606704426708668,-6.600067044267086,-6.619141145825445
1621786539578.316,-0.03802280401272327,-0.051,-0.023034206019084902,0.226,-6.6,-6.619
1621786539583.248,-0.04,-0.051,-0.026,0.226,-6.605813613231552,-6.625119592875318
1621786539588.236,-0.037,-0.059,-0.021,0.226,-6.61169312674179,-6.631308554465043
1621786539593.224,-0.04,-0.049,-0.023,0.226,-6.617572640252029,-6.6374975160547685
1621786539594.435,-0.040485655537060614,-0.04948565553706061,-0.02202868892587878,0.226,-6.619,-6.639
1621786539598.211,-0.042,-0.051,-0.019,0.22131383035132637,-6.623686169648673,-6.634313830351327
1621786539603.198,-0.037,-0.045,-0.019,0.21512448679685486,-6.629875513203145,-6.628124486796855
1621786539608.186,-0.031,-0.051,-0.017,0.20893393124971593,-6.636066068750284,-6.621933931249716
1621786539610.55,-0.03289648925231357,-0.04768114380845125,-0.016525877686921608,0.206,-6.639,-6.619
1621786539613.172,-0.035,-0.044,-0.016,0.2092550386422185,-6.639,-6.615907713289892
1621786539618.158,-0.037,-0.037,-0.014,0.21544446128201242,-6.639,-6.610027761782088
1621786539623.145,-0.035,-0.035,-0.019,0.2216353993029247,-6.639,-6.604146370662221
1621786539626.661,-0.033589727268275964,-0.036410272731724036,-0.016884590902413947,0.226,-6.639,-6.6
1621786539628.131,-0.033,-0.037,-0.016,0.22417457069673685,-6.639,-6.6
1621786539633.116,-0.031,-0.04,-0.016,0.21798532866518133,-6.639,-6.6
1621786539638.102,-0.03,-0.037,-0.016,0.2117945709998636,-6.639,-6.6
1621786539642.769,-0.03655491329479769,-0.037936416184971095,-0.0169364161849711,0.206,-6.639,-6.6
1621786539643.086,-0.037,-0.038,-0.017,0.206,-6.6386064877974835,-6.6
1621786539648.071,-0.038,-0.037,-0.012,0.206,-6.632416098226467,-6.6
1621786539653.056,-0.038,-0.037,-0.016,0.206,-6.626226011823556,-6.6
1621786539658.04,-0.042,-0.035,-0.012,0.206,-6.620036834924965,-6.6
1621786539658.875,-0.04132987165670619,-0.03533506417164691,-0.01233506417164691,0.206,-6.619,-6.6
1621786539663.024,-0.038,-0.037,-0.014,0.1959516965341581,-6.624152976136329,-6.6
1621786539668.008,-0.04,-0.042,-0.012,0.18388060584008006,-6.630343279056369,-6.6
1621786539672.991,-0.04,-0.038,-0.014,0.17181247157281906,-6.636532065860093,-6.6
1621786539674.978,-0.04079751114595071,-0.038,-0.014,0.167,-6.639,-6.6
1621786539677.974,-0.042,-0.038,-0.014,0.16327765897750884,-6.646258564993858,-6.603536223971366
1621786539682.957,-0.044,-0.038,-0.014,0.15708690113289958,-6.6583305427908455,-6.609417443923745
1621786539687.939,-0.045,-0.031,-0.017,0.15089735656763273,-6.670400154693116,-6.615297511260748
1621786539691.076,-0.04437048650237617,-0.03225902699524766,-0.016370486502376172,0.147,-6.678,-6.619
1621786539692.922,-0.044,-0.033,-0.016,0.147,-6.678,-6.616820749279539
1621786539697.904,-0.042,-0.031,-0.021,0.147,-6.678,-6.6109400576368875
1621786539702.885,-0.042,-0.035,-0.016,0.147,-6.678,-6.605060518731988
1621786539707.172,-0.037696500343103616,-0.03758209979413783,-0.022885599451034213,0.147,-6.678,-6.6
1621786539707.866,-0.037,-0.038,-0.024,0.1461378081152825,-6.678,-6.599137808115282
1621786539712.847,-0.035,-0.035,-0.017,0.13994835039817974,-6.678,-6.59294835039818
1621786539717.829,-0.037,-0.037,-0.021,0.13375737580583996,-6.678,-6.58675737580584
1621786539722.809,-0.037,-0.035,-0.023,0.1275691315889268,-6.678,-6.580569131588927
1621786539723.267,-0.037,-0.03564366238604059,-0.023,0.127,-6.678,-6.58
1621786539727.79,-0.037,-0.042,-0.023,0.127,-6.67265963709188,-6.585621434640126
1621786539732.769,-0.037,-0.037,-0.019,0.127,-6.666780798640612,-6.591809685641461
1621786539737.75,-0.04,-0.038,-0.023,0.127,-6.660899654084234,-6.598000364121859
1621786539739.359,-0.03903059723448073,-0.03929253702069236,-0.023,0.127,-6.659,-6.6
1621786539742.729,-0.037,-0.042,-0.023,0.127,-6.659,-6.620530132183995
1621786539747.708,-0.037,-0.042,-0.026,0.127,-6.659,-6.6508613054497445
1621786539752.687,-0.038,-0.031,-0.024,0.127,-6.659,-6.681192478715493
1621786539755.446,-0.03744586643130332,-0.033216534274786706,-0.024,0.127,-6.659,-6.698
1621786539757.666,-0.037,-0.035,-0.024,0.12437755009107468,-6.659,-6.7087658469945355
1621786539762.644,-0.026,-0.037,-0.03,0.11849700971463267,-6.659,-6.732907012750456
1621786539767.622,-0.023,-0.031,-0.028,0.11261646933819065,-6.659,-6.757048178506375
1621786539771.53,-0.01828974987739088,-0.03414016674840609,-0.02957008337420304,0.108,-6.659,-6.776
1621786539772.6,-0.017,-0.035,-0.03,0.10926437811247419,-6.659,-6.772140319446131
1621786539777.578,-0.007,-0.037,-0.03,0.11514605854488036,-6.659,-6.754185716020891
1621786539782.555,-0.007,-0.035,-0.035,0.12102687355763392,-6.659,-6.736233754403012
1621786539787.532,0.0,-0.038,-0.037,0.12690768857038748,-6.659,-6.718281792785133
1621786539787.61,4.710038269060936e-05,-0.03809420076538122,-0.03690579923461878,0.127,-6.659,-6.718
1621786539792.508,0.003,-0.044,-0.031,0.13918481908319288,-6.646815180916807,-6.711907590458404
1621786539797.484,0.007,-0.047,-0.035,0.15156338541429418,-6.634436614585706,-6.7057183072928535
1621786539802.461,0.002,-0.051,-0.037,0.16394498853611505,-6.6220550114638845,-6.699527505731943
1621786539803.689,0.0032339319006966932,-0.05124678638013933,-0.037,0.167,-6.619,-6.698
1621786539807.437,0.007,-0.052,-0.037,0.16233706926663327,-6.619,-6.679581423603201
1621786539812.412,0.007,-0.051,-0.037,0.15614756936534693,-6.619,-6.655132898993121
1621786539817.387,0.005,-0.051,-0.035,0.14995837319847524,-6.619,-6.630685574133977
1621786539819.765,0.002610636836424296,-0.051,-0.03595574526543028,0.147,-6.619,-6.619
1621786539822.363,0.0,-0.051,-0.037,0.14376706918812182,-6.622232930811878,-6.612695784916838
1621786539827.338,-0.005,-0.056,-0.037,0.13757674489253435,-6.6284232551074656,-6.600624652540442
1621786539832.312,-0.002,-0.056,-0.033,0.13138733196627933,-6.6346126680337205,-6.588555297334245
1621786539835.838,-0.00554439699602415,-0.05812663819761449,-0.03583551759681932,0.127,-6.639,-6.58
1621786539837.286,-0.007,-0.059,-0.037,0.127,-6.631971787976847,-6.576485893988424
1621786539842.26,-0.014,-0.063,-0.037,0.127,-6.607828676906249,-6.564414338453124
1621786539847.234,-0.014,-0.059,-0.037,0.127,-6.5836867508317765,-6.552343375415888
1621786539851.908,-0.01681958762886598,-0.05806013745704468,-0.03512027491408935,0.127,-6.561,-6.541
1621786539852.207,-0.017,-0.058,-0.035,0.1273723008190618,-6.561,-6.539715562174237
1621786539857.18,-0.03,-0.058,-0.038,0.13356282766271066,-6.561,-6.5183582445636485
1621786539862.152,-0.04,-0.056,-0.04,0.13975244274925158,-6.561,-6.497004072515082
1621786539867.125,-0.049,-0.058,-0.035,0.14594296959290043,-6.561,-6.475646754904494
1621786539867.974,-0.05053674701752663,-0.05731700132554372,-0.03465850066277186,0.147,-6.561,-6.472
1621786539872.098,-0.058,-0.054,-0.033,0.15213490097128698,-6.575891212816733,-6.487147957865297
1621786539877.069,-0.065,-0.049,-0.035,0.1583249935399535,-6.593842481265865,-6.505408730942863
1621786539882.041,-0.07,-0.04,-0.031,0.16451599811518644,-6.61179639453404,-6.5236721944398
1621786539884.036,-0.06839508961453475,-0.04080245519273263,-0.03180245519273263,0.167,-6.619,-6.531
1621786539887.013,-0.066,-0.042,-0.033,0.15606317837706363,-6.622707397160317,-6.551019944665714
1621786539891.984,-0.066,-0.045,-0.035,0.1378013590343863,-6.628897844395123,-6.584448359733666
1621786539896.955,-0.066,-0.044,-0.033,0.11953864278982093,-6.635088595664468,-6.617878416588124
1621786539900.096,-0.06536803065284669,-0.044,-0.033,0.108,-6.639,-6.639
1621786539901.925,-0.065,-0.044,-0.033,0.1101641986195153,-6.636721896189984,-6.645720406239548
1621786539906.895,-0.058,-0.049,-0.035,0.1160446833095144,-6.630531912305774,-6.663980858697966
1621786539911.866,-0.054,-0.044,-0.033,0.12192632347128045,-6.624340712135494,-6.682244899200292
1621786539916.154,-0.047959219771041124,-0.04054812558345207,-0.03127406279172604,0.127,-6.619,-6.698
1621786539916.835,-0.047,-0.04,-0.031,0.12784832631210744,-6.618194090003498,-6.697151673687893
1621786539921.804,-0.044,-0.047,-0.031,0.13403907046066338,-6.612312883062369,-6.690960929539337
1621786539926.773,-0.037,-0.045,-0.035,0.14022981460921935,-6.606431676121241,-6.68477018539078
1621786539931.743,-0.044,-0.045,-0.03,0.14642177543229967,-6.600549313339315,-6.6785782245677
1621786539932.207,-0.04334606123151014,-0.04518683964813996,-0.03009341982406998,0.147,-6.6,-6.678
1621786539936.711,-0.037,-0.047,-0.031,0.15261096157063125,-6.583447663366638,-6.667058624937269
1621786539941.68,-0.042,-0.042,-0.033,0.15880132913606157,-6.565186079048618,-6.65498740818468
1621786539946.647,-0.042,-0.052,-0.03,0.16498926350046383,-6.546931672673632,-6.642920936174096
1621786539948.261,-0.042,-0.04972628113791579,-0.02935036603940451,0.167,-6.541,-6.639
1621786539951.616,-0.042,-0.045,-0.028,0.167,-6.541,-6.639
1621786539956.583,-0.045,-0.035,-0.026,0.167,-6.541,-6.639
1621786539961.55,-0.051,-0.044,-0.024,0.167,-6.541,-6.639
1621786539964.312,-0.04988788400098304,-0.04455605799950848,-0.02010759400344065,0.167,-6.541,-6.639
1621786539966.517,-0.049,-0.045,-0.017,0.16425153672935305,-6.5437484632706475,-6.6471079666484085
1621786539971.484,-0.058,-0.042,-0.017,0.15806079970786927,-6.549939200292131,-6.665370640861786
1621786539976.451,-0.056,-0.044,-0.017,0.1518697583835433,-6.556130241616457,-6.683634212768547
1621786539980.358,-0.05442652770266949,-0.0384928469593432,-0.017,0.147,-6.561,-6.698
1621786539981.417,-0.054,-0.037,-0.017,0.1483201259871274,-6.563574245674898,-6.704468617336925
1621786539986.382,-0.059,-0.03,-0.017,0.15450901538321085,-6.575642579997261,-6.734794175377734
1621786539991.348,-0.051,-0.031,-0.014,0.16069881772949285,-6.58771269457251,-6.765124206874515
1621786539996.314,-0.049,-0.03,-0.016,0.16688892439250774,-6.599783402565389,-6.7954557295232885
1621786539996.403,-0.04887434220233119,-0.029964097772094623,-0.016017951113952687,0.167,-6.6,-6.796
1621786540001.278,-0.042,-0.028,-0.017,0.167,-6.593922571219868,-6.807850986121257
1621786540006.243,-0.035,-0.03,-0.021,0.167,-6.587733138543949,-6.819920379839298
1621786540011.207,-0.028,-0.023,-0.014,0.167,-6.581544618943267,-6.831987993060628
1621786540012.446,-0.027500786936848317,-0.02250078693684832,-0.014748819594727524,0.167,-6.58,-6.835
1621786540016.171,-0.026,-0.021,-0.017,0.17605611530500426,-6.584644161694874,-6.821299723000122
1621786540021.136,-0.021,-0.024,-0.012,0.18812757214172654,-6.590834652380372,-6.8030377754779
1621786540026.099,-0.021,-0.021,-0.012,0.2001942804091075,-6.597022707902106,-6.784783011688786
1621786540028.487,-0.019075364029909486,-0.022443476977567888,-0.012,0.206,-6.6,-6.776
1621786540031.062,-0.017,-0.024,-0.012,0.20278851453191846,-6.6,-6.772949088805322
1621786540036.025,-0.016,-0.021,-0.012,0.19659878507376338,-6.6,-6.7670688458200745
1621786540040.989,-0.012,-0.017,-0.014,0.19040753315165262,-6.6,-6.76118715649407
1621786540044.523,-0.012,-0.01984884865184019,-0.010438939185199763,0.186,-6.6,-6.757
1621786540045.951,-0.012,-0.021,-0.009,0.1843077614167593,-6.598218696228168,-6.757
1621786540050.913,-0.016,-0.014,-0.005,0.17842731190327543,-6.592028749371869,-6.757
1621786540055.875,-0.003,-0.019,-0.009,0.17254715171080082,-6.585839107064001,-6.757
1621786540060.556,-0.003,-0.019,-0.005226530210588467,0.167,-6.58,-6.757
1621786540060.837,-0.003,-0.019,-0.005,0.1666494220489469,-6.5796669509465,-6.757
1621786540065.798,-0.002,-0.019,-0.007,0.1604599393874785,-6.573786942418105,-6.757
1621786540070.759,0.002,-0.017,-0.007,0.15427076131154532,-6.567907223245968,-6.757
1621786540075.72,0.005,-0.017,-0.007,0.14808158323561213,-6.562027504073831,-6.757
1621786540076.587,0.005,-0.01734950787401575,-0.006650492125984252,0.147,-6.561,-6.757
1621786540080.681,0.005,-0.019,-0.005,0.147,-6.561,-6.736818853495422
1621786540085.641,0.002,-0.019,-0.005,0.147,-6.561,-6.712367761985284
1621786540090.601,0.005,-0.021,-0.005,0.147,-6.561,-6.687917873954572
1621786540092.613,0.003783077377436503,-0.021811281748375665,-0.004188718251624335,0.147,-6.561,-6.678
1621786540095.561,0.002,-0.023,-0.003,0.150679943924664,-6.557320056075336,-6.659968274769146
1621786540100.52,0.0,-0.019,-0.005,0.15687017340688142,-6.551129826593119,-6.629636150306281
1621786540105.48,0.0,-0.016,-0.005,0.16306162191814222,-6.544938378081858,-6.599298052601103
1621786540108.635,-0.0012727004136300966,-0.01663635020681505,-0.0037272995863699035,0.167,-6.541,-6.58
1621786540110.438,-0.002,-0.017,-0.003,0.17138900064002927,-6.539874615220506,-6.57786176891896
1621786540115.397,-0.005,-0.024,-0.002,0.18346068391697906,-6.53677931181616,-6.571980692450703
1621786540120.355,-0.01,-0.012,0.0,0.19552998994239737,-6.5336846179634875,-6.566100774130627
1621786540124.656,-0.01346927924379677,-0.012,-0.001734639621898385,0.206,-6.531,-6.561
1621786540125.314,-0.014,-0.012,-0.002,0.20517847889041305,-6.53223228166438,-6.563382411217802
1621786540130.271,-0.016,-0.007,0.002,0.19898917847889042,-6.541516232281664,-6.581331382411218
1621786540135.229,-0.021,-0.012,0.0,0.19279865874104557,-6.550802011888432,-6.599283889650968
1621786540140.186,-0.023,-0.012,-0.002,0.18660935832952294,-6.560085962505716,-6.617232860844383
1621786540140.674,-0.022803092986603626,-0.011310825453112688,-0.0020984535066981874,0.186,-6.561,-6.619
1621786540145.143,-0.021,-0.005,-0.003,0.1806976811550013,-6.566302318844999,-6.646627871876572
1621786540150.1,-0.03,-0.005,0.0,0.1748163218636135,-6.572183678136387,-6.677272849236961
1621786540155.056,-0.024,-0.007,0.0,0.16893641089750433,-6.578063589102496,-6.707910280060372
1621786540156.688,-0.024,-0.004694827586206897,-0.0006586206896551724,0.167,-6.58,-6.718
1621786540160.012,-0.024,0.0,-0.002,0.1628486423856204,-6.58,-6.734190294696081
1621786540164.967,-0.016,-0.003,-0.005,0.15666017715304986,-6.58,-6.758325309103106
1621786540169.924,-0.014,-0.007,-0.005,0.15046927263579954,-6.58,-6.782469836720382
1621786540172.702,-0.010075585119487558,-0.009803153486080315,-0.005,0.147,-6.58,-6.796
1621786540174.879,-0.007,-0.012,-0.005,0.15230280111617694,-6.574697198883823,-6.7853943977676465
1621786540179.833,-0.003,-0.003,-0.005,0.16437013769231942,-6.562629862307681,-6.761259724615361
1621786540184.788,0.0,-0.002,-0.005,0.17643985300620607,-6.550560146993794,-6.737120293987588
1621786540188.713,-0.002376348854397635,-0.004376348854397635,-0.006584232569598423,0.186,-6.541,-6.718
1621786540189.743,-0.003,-0.005,-0.007,0.1897963214323842,-6.53784712287819,-6.711629901325321
1621786540194.697,0.0,-0.005,-0.005,0.20805537677866065,-6.52268282267535,-6.6809918254052985
1621786540199.651,-0.005,-0.005,-0.005,0.2263135323094755,-6.507519269776877,-6.650355259345117
1621786540204.604,-0.014,-0.007,-0.002,0.24456898839390565,-6.492357958791502,-6.619723222864463
1621786540204.721,-0.01423605361718904,-0.0068819731914054804,-0.0019527892765621921,0.245,-6.492,-6.619
1621786540209.558,-0.024,-0.002,0.0,0.245,-6.492,-6.619
1621786540214.511,-0.026,-0.002,-0.002,0.245,-6.492,-6.619
1621786540219.464,-0.033,-0.002,0.002,0.245,-6.492,-6.619
1621786540220.725,-0.034782527239560226,-0.0014907065029827935,0.002254646748508603,0.245,-6.492,-6.619
1621786540224.416,-0.04,0.0,0.003,0.245,-6.503301366937206,-6.646215536705926
1621786540229.369,-0.042,0.005,0.003,0.245,-6.518466787697565,-6.682736345883932
1621786540234.321,-0.051,0.002,0.002,0.245,-6.53362996582657,-6.719251754439495
1621786540236.728,-0.04905532817200059,0.0024861679569998523,0.004430839784999261,0.245,-6.541,-6.737
1621786540239.272,-0.047,0.003,0.007,0.2387979976802393,-6.547202002319761,-6.7495630303400285
1621786540244.223,-0.042,0.003,0.007,0.22672790122703132,-6.559272098772969,-6.774012712899091
1621786540249.174,-0.028,0.009,0.0,0.2146572095720652,-6.571342790427935,-6.798463601123252
1621786540252.725,-0.024414485036730268,0.007565794014692107,0.0,0.206,-6.58,-6.816
1621786540254.126,-0.023,0.007,0.0,0.206,-6.5783359230710525,-6.816
1621786540259.076,-0.021,0.007,0.003,0.206,-6.572455971914828,-6.816
1621786540264.026,-0.01,0.009,0.0,0.206,-6.566576020758605,-6.816
1621786540268.72,-0.0052586802130597755,0.005206944170447821,0.0018965279147760898,0.206,-6.561,-6.816
1621786540268.976,-0.005,0.005,0.002,0.2066245668137337,-6.560519563989436,-6.814110285025113
1621786540273.926,-0.002,0.005,0.0,0.2186961513213135,-6.551233729752836,-6.777586003694488
1621786540278.875,-0.005,0.005,0.0,0.23076535425858358,-6.541949727493397,-6.741068928140696
1621786540283.824,-0.002,0.002,0.0,0.24283455719585362,-6.532665725233959,-6.704551852586905
1621786540284.712,-0.0016411622514922797,0.003255932119777021,0.00035883774850772036,0.245,-6.531,-6.698
1621786540288.773,0.0,0.009,0.002,0.245,-6.526174796561779,-6.673112108581811
1621786540293.721,-0.012,0.005,0.005,0.245,-6.520295729705797,-6.642788500587796
1621786540298.671,-0.016,0.009,0.005,0.245,-6.514414342203698,-6.612452922945388
1621786540300.703,-0.019285989241474608,0.008178502689631348,0.005821497310368653,0.245,-6.512,-6.6
1621786540303.618,-0.024,0.007,0.007,0.245,-6.512,-6.607111158621321
1621786540308.566,-0.03,0.01,0.01,0.245,-6.512,-6.619181665470427
1621786540313.514,-0.04,0.01,0.012,0.245,-6.512,-6.631252172319534
1621786540316.69,-0.0432100380002961,0.011284015200118442,0.015210038000296107,0.245,-6.512,-6.639
1621786540318.461,-0.045,0.012,0.017,0.245,-6.514105145789738,-6.652074063325747
1621786540323.408,-0.047,0.017,0.017,0.245,-6.519985566128515,-6.688594568587619
1621786540328.354,-0.038,0.012,0.023,0.245,-6.5258648256479965,-6.725107864550717
1621786540332.674,-0.043239599269604696,0.013746533089868233,0.017760400730395302,0.245,-6.531,-6.757
1621786540333.301,-0.044,0.014,0.017,0.24578462525588926,-6.531,-6.758530019248984
1621786540338.247,-0.037,0.023,0.021,0.2519745485654924,-6.531,-6.77060036970271
1621786540343.193,-0.037,0.023,0.017,0.2581644718750955,-6.531,-6.782670720156436
1621786540348.138,-0.026,0.019,0.021,0.26435286748754927,-6.531,-6.794738091600721
1621786540348.655,-0.02568629967909158,0.01920913354727228,0.021,0.265,-6.531,-6.796
1621786540353.083,-0.023,0.021,0.021,0.265,-6.5257345445099775,-6.790457415273661
1621786540358.029,-0.026,0.024,0.019,0.265,-6.519853039146777,-6.784266356996608
1621786540362.974,-0.017,0.024,0.024,0.265,-6.513972695046298,-6.778076521101366
1621786540364.633,-0.017,0.023664444444444446,0.024,0.265,-6.512,-6.776
1621786540367.918,-0.017,0.023,0.024,0.2608873962679382,-6.507887396267938,-6.764073449177021
1621786540372.862,-0.019,0.024,0.021,0.25469755322238014,-6.50169755322238,-6.746122904344903
1621786540377.806,-0.028,0.03,0.024,0.24850801583298948,-6.495508015832989,-6.728173245915669
1621786540380.608,-0.026866525109871118,0.027733050219742233,0.02740042467038665,0.245,-6.492,-6.718
1621786540382.75,-0.026,0.026,0.03,0.245,-6.497230762175548,-6.715317557858693
1621786540387.693,-0.03,0.028,0.026,0.245,-6.509301339080987,-6.709127518420007
1621786540392.636,-0.03,0.038,0.03,0.245,-6.521371319820233,-6.702937784707573
1621786540396.579,-0.035585268254125085,0.035606313605374966,0.030797895464875012,0.245,-6.531,-6.698
1621786540397.578,-0.037,0.035,0.031,0.2425556662019518,-6.531,-6.698
1621786540402.521,-0.038,0.042,0.033,0.2304582752439753,-6.531,-6.698
1621786540407.464,-0.037,0.033,0.038,0.21836088428599879,-6.531,-6.698
1621786540412.374,-0.044,0.037,0.037,0.206344752041426,-6.531,-6.698
1621786540412.515,-0.04408573975927485,0.03722863935806627,0.03702857991975828,0.206,-6.531,-6.698
1621786540417.303,-0.047,0.045,0.038,0.19998598610876864,-6.52528668680333,-6.704014013891231
1621786540422.232,-0.045,0.04,0.031,0.19379503534137776,-6.519405283574309,-6.710204964658622
1621786540427.16,-0.047,0.045,0.033,0.18760531117278179,-6.513525045614142,-6.716394688827219
1621786540428.438,-0.04648119518358852,0.042924780734354094,0.03403760963282295,0.186,-6.512,-6.718
1621786540432.087,-0.045,0.037,0.037,0.19952558439168047,-6.512,-6.70447441560832
1621786540437.014,-0.049,0.037,0.033,0.2177886526780784,-6.512,-6.686211347321922
1621786540441.942,-0.056,0.047,0.038,0.2360553408184551,-6.512,-6.667944659181544
1621786540444.355,-0.056,0.04797972939485553,0.03653040590771671,0.245,-6.512,-6.659
1621786540446.868,-0.056,0.049,0.035,0.24815794317972634,-6.512,-6.655842056820274
1621786540451.793,-0.058,0.044,0.037,0.2543471191016752,-6.512,-6.649652880898325
1621786540456.719,-0.063,0.047,0.038,0.2605375222433577,-6.512,-6.643462477756643
1621786540460.27,-0.06516261089359171,0.04555825940427219,0.038,0.265,-6.512,-6.639
1621786540461.645,-0.066,0.045,0.038,0.26664205809688957,-6.512,-6.644099022511394
1621786540466.569,-0.072,0.049,0.037,0.27252250372120856,-6.512,-6.662359353660595
1621786540471.493,-0.077,0.044,0.033,0.2784026577869167,-6.512,-6.680618779443583
1621786540476.18,-0.07033568063476321,0.05161636498884205,0.03680818249442103,0.284,-6.512,-6.698
1621786540476.416,-0.07,0.052,0.037,0.284593770627696,-6.513009410067083,-6.699157852724007
1621786540481.34,-0.072,0.056,0.035,0.2969782171530325,-6.534062969160155,-6.723307523448414
1621786540486.263,-0.073,0.049,0.031,0.30935959350966336,-6.555111308966428,-6.747451207343843
1621786540491.185,-0.068,0.049,0.031,0.3217391277650707,-6.57615651720062,-6.771591299141888
1621786540492.084,-0.06635625,0.049,0.031730555555555554,0.324,-6.58,-6.776
1621786540496.107,-0.059,0.049,0.035,0.3189396554371526,-6.585060344562847,-6.786120689125695
1621786540501.029,-0.056,0.051,0.033,0.3127482725793078,-6.591251727420692,-6.798503454841384
1621786540505.95,-0.049,0.047,0.031,0.3065584252065227,-6.597441574793477,-6.810883149586954
1621786540507.984,-0.04404033338294389,0.047,0.031,0.304,-6.6,-6.816
1621786540510.871,-0.037,0.047,0.031,0.304,-6.580385348997926,-6.801652246026261
1621786540515.791,-0.035,0.037,0.03,0.304,-6.546961161022805,-6.777203071488904
1621786540520.71,-0.033,0.04,0.031,0.304,-6.513543607463718,-6.752758749904016
1621786540523.881,-0.03557756610606737,0.04,0.030355608473483155,0.304,-6.492,-6.737
1621786540525.631,-0.037,0.04,0.03,0.3062023873534789,-6.492,-6.7219136466286695
1621786540530.549,-0.037,0.037,0.03,0.31239168574193843,-6.492,-6.679516952667721
1621786540535.468,-0.042,0.033,0.033,0.318582213141198,-6.492,-6.6371118399827935
1621786540539.773,-0.04987812748212867,0.037376737490071484,0.03037395750595711,0.324,-6.492,-6.6
1621786540540.386,-0.051,0.038,0.03,0.3232282987845168,-6.493504817370193,-6.600733116154709
1621786540545.304,-0.059,0.04,0.033,0.3170374786791032,-6.505576916575748,-6.6066143952548515
1621786540550.221,-0.059,0.033,0.037,0.31084788788665735,-6.517646618621018,-6.612494506507676
1621786540555.138,-0.065,0.03,0.037,0.30465829709421144,-6.529716320666287,-6.618374617760499
1621786540555.661,-0.06574463647199047,0.0305318831942789,0.037,0.304,-6.531,-6.619
1621786540560.054,-0.072,0.035,0.037,0.29321305931721414,-6.533765882226355,-6.640850469588207
1621786540564.971,-0.068,0.038,0.037,0.2811396467712929,-6.536861629033002,-6.665306869360714
1621786540569.886,-0.065,0.033,0.037,0.2690710300198288,-6.5399561461487625,-6.689753554575219
1621786540571.544,-0.06365070534472482,0.03232535267236241,0.035650705344724816,0.265,-6.541,-6.698
1621786540574.801,-0.061,0.031,0.033,0.26089766455005303,-6.541,-6.722203779154687
1621786540579.715,-0.054,0.026,0.035,0.2547083378176842,-6.541,-6.7587208068756635
1621786540584.629,-0.047,0.023,0.038,0.2485193185836626,-6.541,-6.79523602035639
1621786540587.423,-0.047,0.02186300417246175,0.03629450625869263,0.245,-6.541,-6.816
1621786540589.544,-0.047,0.021,0.035,0.24246130892870876,-6.534452849342459,-6.816
1621786540594.457,-0.038,0.014,0.04,0.2365802660924402,-6.519285949396293,-6.816
1621786540599.37,-0.033,0.019,0.028,0.23069922325617165,-6.504119049450127,-6.816
1621786540603.296,-0.034598488990506486,0.006212088075948108,0.03039773348575973,0.226,-6.492,-6.816
1621786540604.282,-0.035,0.003,0.031,0.226,-6.490757383706621,-6.813514767413241
1621786540609.195,-0.04,0.01,0.033,0.226,-6.484566145705144,-6.801132291410288
1621786540614.106,-0.035,0.009,0.031,0.226,-6.4783776765936505,-6.7887553531873
1621786540619.018,-0.04,0.007,0.03,0.226,-6.472187669209943,-6.776375338419887
1621786540619.167,-0.04,0.0067877206065125525,0.03009097688292319,0.226,-6.472,-6.776
1621786540623.929,-0.04,0.0,0.033,0.23770606158533772,-6.466297046919964,-6.770297046919963
1621786540628.839,-0.045,0.007,0.03,0.24977641844790177,-6.460416616653586,-6.764416616653586
1621786540633.749,-0.049,0.0,0.031,0.2618461751535017,-6.454536478771371,-6.75853647877137
1621786540635.032,-0.04847729646391804,0.0,0.03073864823195902,0.265,-6.453,-6.757
1621786540638.658,-0.047,0.0,0.03,0.265,-6.453,-6.757
1621786540643.567,-0.054,0.007,0.028,0.265,-6.453,-6.757
1621786540648.477,-0.051,0.005,0.03,0.265,-6.453,-6.757
1621786540650.894,-0.05149246381137144,0.0025376809431428148,0.02704521713177138,0.265,-6.453,-6.757
1621786540653.385,-0.052,0.0,0.024,0.25887273259215915,-6.449857811585723,-6.759985078993563
1621786540658.292,-0.049,-0.003,0.026,0.24680256228634784,-6.443667980659666,-6.765865418373317
1621786540663.199,-0.049,-0.002,0.024,0.2347323919805365,-6.437478149733608,-6.771745757753072
1621786540666.749,-0.045383375615579764,-0.0005533502462319057,0.02183002536934786,0.226,-6.433,-6.776
1621786540668.107,-0.044,0.0,0.021,0.22762766842251178,-6.436341003604103,-6.776
1621786540673.013,-0.047,-0.003,0.017,0.2335082863567754,-6.448411745679697,-6.776
1621786540677.919,-0.045,-0.002,0.016,0.23938890429103904,-6.460482487755291,-6.776
1621786540682.6,-0.04404583229659119,-0.004862503110226424,0.020770838517044043,0.245,-6.472,-6.776
1621786540682.825,-0.044,-0.005,0.021,0.2447303905708343,-6.471730390570834,-6.775730390570834
1621786540687.73,-0.044,-0.005,0.016,0.23884904090593945,-6.4658490409059395,-6.769849040905939
1621786540692.635,-0.045,-0.009,0.014,0.2329676912410446,-6.459967691241045,-6.763967691241044
1621786540697.539,-0.044,-0.007,0.012,0.22708751251829598,-6.454087512518297,-6.758087512518296
1621786540698.446,-0.04363010902573804,-0.007369890974261961,0.01163010902573804,0.226,-6.453,-6.757
1621786540702.443,-0.042,-0.009,0.01,0.226,-6.4479541553018045,-6.751954155301804
1621786540707.347,-0.044,-0.017,0.007,0.226,-6.441763657097067,-6.745763657097068
1621786540712.25,-0.044,-0.017,0.005,0.226,-6.435574083491286,-6.739574083491286
1621786540714.289,-0.044,-0.017,0.00707978484984312,0.226,-6.433,-6.737
1621786540717.152,-0.044,-0.017,0.01,0.23305051797496454,-6.436615650243572,-6.733565132268607
1621786540722.054,-0.047,-0.017,0.002,0.24512183202811866,-6.442806067706727,-6.727684235678609
1621786540726.957,-0.044,-0.017,0.0,0.2571961521859777,-6.44899802676204,-6.721801874576062
1621786540730.126,-0.044646607552057384,-0.018293215104114774,0.0012932151041147755,0.265,-6.453,-6.718
1621786540731.858,-0.045,-0.019,0.002,0.265,-6.450812519272279,-6.720078106691335
1621786540736.759,-0.049,-0.021,0.0,0.265,-6.444622263336417,-6.725958849830404
1621786540741.659,-0.038,-0.019,0.0,0.265,-6.4384335491828555,-6.731838128276287
1621786540745.961,-0.04414430884184309,-0.028655342465753422,0.0,0.265,-6.433,-6.737
1621786540746.56,-0.045,-0.03,0.0,0.2657192262602579,-6.432280773739742,-6.736280773739742
1621786540751.459,-0.045,-0.03,-0.002,0.2716002344665885,-6.426399765533411,-6.730399765533411
1621786540756.358,-0.049,-0.026,-0.005,0.27748124267291907,-6.4205187573270806,-6.724518757327081
1621786540761.257,-0.049,-0.023,-0.007,0.28336254396248534,-6.414637456037514,-6.718637456037515
1621786540761.788,-0.04932524175057323,-0.023758897418004188,-0.006457930415711295,0.284,-6.414,-6.718
1621786540766.155,-0.052,-0.03,-0.002,0.284,-6.414,-6.723243754918147
1621786540771.053,-0.056,-0.033,-0.01,0.284,-6.414,-6.729125133079261
1621786540775.951,-0.056,-0.03,-0.007,0.284,-6.414,-6.735006511240376
1621786540777.611,-0.0566781689438516,-0.0310172534157774,-0.007,0.284,-6.414,-6.737
1621786540780.847,-0.058,-0.033,-0.007,0.284,-6.421977190654032,-6.741090867002068
1621786540785.744,-0.061,-0.035,-0.007,0.284,-6.434049507700855,-6.747281798820951
1621786540790.641,-0.063,-0.04,-0.005,0.284,-6.446122426618106,-6.753473039291336
1621786540793.431,-0.06584976806823284,-0.04113990722729313,-0.007849768068232829,0.284,-6.453,-6.757
1621786540795.536,-0.068,-0.042,-0.01,0.28666197378780156,-6.450338026212199,-6.7648528226740146
1621786540800.431,-0.066,-0.037,-0.012,0.2928522515012581,-6.444147748498742,-6.783114141928711
1621786540805.326,-0.061,-0.038,-0.012,0.29904252921471464,-6.437957470785285,-6.801375461183408
1621786540809.246,-0.0626016957605985,-0.038,-0.015203391521197008,0.304,-6.433,-6.816
1621786540810.221,-0.063,-0.038,-0.016,0.304,-6.434233301931957,-6.817171636835359
1621786540815.115,-0.063,-0.047,-0.016,0.304,-6.440424829737618,-6.823053588250738
1621786540820.008,-0.058,-0.047,-0.017,0.304,-6.446615122079286,-6.828934365975321
1621786540824.901,-0.059,-0.056,-0.019,0.304,-6.452805105554956,-6.8348148502772075
1621786540825.055,-0.058842611992417436,-0.056,-0.018937044796966975,0.304,-6.453,-6.835
1621786540829.795,-0.054,-0.056,-0.017,0.3099980227995922,-6.441303855540795,-6.823303855540796
1621786540834.687,-0.051,-0.051,-0.019,0.31618851370138096,-6.429232398282307,-6.811232398282307
1621786540839.578,-0.052,-0.051,-0.021,0.3223774599153511,-6.4171639531650655,-6.799163953165065
1621786540840.86,-0.05304840802475297,-0.052834714043317695,-0.021,0.324,-6.414,-6.796
1621786540844.47,-0.056,-0.058,-0.021,0.32834076019777503,-6.404861557478368,-6.782520797280593
1621786540849.36,-0.054,-0.056,-0.023,0.3342210135970334,-6.392482076637824,-6.7642610630407916
1621786540854.252,-0.056,-0.052,-0.021,0.34010332200247223,-6.380098269468479,-6.7459949474660075
1621786540856.661,-0.05846305541687469,-0.05397044433349975,-0.021,0.343,-6.374,-6.737
1621786540859.142,-0.061,-0.056,-0.021,0.3491252221483874,-6.3771411395632756,-6.7277336382883375
1621786540864.031,-0.066,-0.054,-0.021,0.3611942542768394,-6.383330386808636,-6.709475358914525
1621786540868.921,-0.068,-0.056,-0.021,0.3732656971982259,-6.389520870358065,-6.69121343244371
1621786540872.459,-0.07089463697193649,-0.05455268151403176,-0.021,0.382,-6.394,-6.678
1621786540873.81,-0.072,-0.054,-0.021,0.3837109819441009,-6.397336414790997,-6.6814219638882015
1621786540878.698,-0.077,-0.052,-0.021,0.3899010017313876,-6.409406953376206,-6.693802003462775
1621786540883.586,-0.079,-0.058,-0.017,0.39609102151867426,-6.421477491961415,-6.706182043037349
1621786540888.252,-0.0837739421491732,-0.04940690413148824,-0.012226057850826796,0.402,-6.433,-6.718
1621786540888.473,-0.084,-0.049,-0.012,0.402,-6.433279891136265,-6.7188116842951695
1621786540893.361,-0.086,-0.056,-0.016,0.402,-6.439472134595163,-6.7367691903259725
1621786540898.248,-0.075,-0.061,-0.016,0.402,-6.445662831694192,-6.7547222119131565
1621786540903.134,-0.08,-0.049,-0.012,0.402,-6.451852291705326,-6.772671645945445
1621786540904.04,-0.08,-0.048629066919886055,-0.012,0.402,-6.453,-6.776
1621786540908.019,-0.08,-0.047,-0.012,0.402,-6.453,-6.771209955605055
1621786540912.905,-0.077,-0.054,-0.007,0.402,-6.453,-6.765328058533265
1621786540917.79,-0.079,-0.054,-0.007,0.402,-6.453,-6.75944733707674
1621786540919.823,-0.07941624593851537,-0.05275126218445388,-0.007,0.402,-6.453,-6.757
1621786540922.674,-0.08,-0.051,-0.007,0.402,-6.456432633549405,-6.760432633549405
1621786540927.558,-0.082,-0.049,-0.01,0.402,-6.462312907068489,-6.766312907068488
1621786540932.443,-0.082,-0.049,-0.005,0.402,-6.468194356348335,-6.772194356348335
1621786540935.604,-0.08005795,-0.049,-0.0075894,0.402,-6.472,-6.776
1621786540937.326,-0.079,-0.049,-0.009,0.4030914070841651,-6.478439301796574,-6.78036562833666
1621786540942.208,-0.075,-0.059,-0.012,0.4061858161954722,-6.496696315553286,-6.792743264781889
1621786540947.092,-0.075,-0.054,-0.005,0.40928146325611625,-6.514960633211086,-6.805125853024465
1621786540951.381,-0.07324249699879952,-0.05751500600240096,-0.005,0.412,-6.531,-6.816
1621786540951.973,-0.073,-0.058,-0.005,0.412,-6.528786061487971,-6.817463450880832
1621786540956.854,-0.073,-0.052,-0.003,0.412,-6.51052563546859,-6.829533901978389
1621786540961.735,-0.065,-0.059,-0.005,0.412,-6.492265209449209,-6.8416043530759465
1621786540966.617,-0.058,-0.063,0.0,0.412,-6.474002043406917,-6.85367661537509
1621786540967.152,-0.05778067937365551,-0.063,0.00021932062634448947,0.412,-6.472,-6.855
1621786540971.497,-0.056,-0.063,0.002,0.41723595175051487,-6.477511528158437,-6.82799351202366
1621786540976.376,-0.052,-0.068,0.0,0.4231153280376581,-6.483700345302799,-6.79766830801629
1621786540981.256,-0.049,-0.068,0.003,0.4289961753456899,-6.4898907108902,-6.7673355166380205
1621786540982.919,-0.04968178178178178,-0.06936356356356356,0.001977327327327327,0.431,-6.492,-6.757
1621786540986.134,-0.051,-0.072,0.0,0.4271241848289109,-6.484044379385659,-6.744964573942407
1621786540991.014,-0.049,-0.068,0.002,0.4212414455442477,-6.471969282959246,-6.726697120374243
1621786540995.892,-0.052,-0.072,0.007,0.4153607664544511,-6.459898415353874,-6.708436064253296
1621786540998.68,-0.052,-0.06971345614737685,0.007,0.412,-6.453,-6.698
1621786541000.769,-0.052,-0.068,0.007,0.4080225283153344,-6.453,-6.700651647789777
1621786541005.646,-0.054,-0.07,0.009,0.39873726778326957,-6.453,-6.706841821477821
1621786541010.523,-0.049,-0.079,0.009,0.38945200725120466,-6.453,-6.7130319951658635
1621786541014.437,-0.05060512615138166,-0.07739487384861835,0.009,0.382,-6.453,-6.718
1621786541015.4,-0.051,-0.077,0.009,0.38322256664600124,-6.453,-6.721545443273404
1621786541020.275,-0.052,-0.084,0.012,0.3894122752634842,-6.453,-6.739495598264104
1621786541025.151,-0.049,-0.084,0.017,0.39560322380657165,-6.453,-6.7574493490390575
1621786541030.026,-0.051,-0.086,0.016,0.40179293242405456,-6.453,-6.775399504029758
1621786541030.189,-0.050698918269230765,-0.08616726762820512,0.016267628205128205,0.402,-6.453,-6.776
1621786541034.901,-0.042,-0.091,0.024,0.41067698127247926,-6.464669043780231,-6.805322212575964
1621786541039.775,-0.04,-0.094,0.028,0.4196524866674935,-6.476739551035595,-6.835653230807392
1621786541044.648,-0.038,-0.094,0.026,0.4286261937244202,-6.488807639836289,-6.865978171896316
1621786541045.937,-0.03614866760168303,-0.09452895211380485,0.02785133239831697,0.431,-6.492,-6.874
1621786541049.522,-0.031,-0.096,0.033,0.431,-6.496554096174423,-6.883108192348845
1621786541054.395,-0.03,-0.099,0.037,0.431,-6.502744491137748,-6.895488982275497
1621786541059.268,-0.021,-0.103,0.044,0.431,-6.508934886101074,-6.907869772202149
1621786541061.681,-0.01753245451355822,-0.10200927271815949,0.044,0.431,-6.512,-6.914
1621786541064.139,-0.014,-0.101,0.044,0.431,-6.508876735276325,-6.914
1621786541069.012,-0.009,-0.094,0.044,0.431,-6.502684804020412,-6.914
1621786541073.883,0.0,-0.098,0.049,0.431,-6.496495354500473,-6.914
1621786541077.421,0.008717701910061664,-0.09000877324911014,0.04754704968165639,0.431,-6.492,-6.914
1621786541078.753,0.012,-0.087,0.047,0.4359936242495695,-6.487006375750431,-6.907313621767525
1621786541083.623,0.019,-0.087,0.044,0.45425110528520235,-6.468748894714798,-6.882867164109644
1621786541088.494,0.024,-0.084,0.047,0.4725113320819695,-6.45048866791803,-6.8584170299241425
1621786541093.159,0.03070657841957481,-0.07537725631768953,0.045083834737264336,0.49,-6.433,-6.835
1621786541093.363,0.031,-0.075,0.045,0.4894940331165909,-6.432753503313211,-6.832963158956533
1621786541098.232,0.037,-0.08,0.045,0.4774240599636866,-6.426873259982309,-6.784373779853815
1621786541103.102,0.037,-0.072,0.051,0.46535106069305854,-6.420991542388926,-6.7357722186874405
1621786541107.969,0.033,-0.061,0.051,0.45328592932851225,-6.415113657877993,-6.687202330886575
1621786541108.891,0.033,-0.05834801143487637,0.05156828326395506,0.451,-6.414,-6.678
1621786541112.837,0.033,-0.047,0.054,0.43870607137867335,-6.428551997143611,-6.663197106353913
1621786541117.704,0.021,-0.042,0.059,0.4235413788285701,-6.446502041386591,-6.644937578589502
1621786541122.571,0.016,-0.033,0.066,0.40837744694723443,-6.464451185246131,-6.626678966732384
1621786541124.618,0.013476598946576374,-0.029214898419864563,0.0689439678956609,0.402,-6.472,-6.619
1621786541127.438,0.01,-0.024,0.073,0.3844193884048518,-6.498370917392723,-6.664745468946559
1621786541132.304,0.002,-0.005,0.077,0.3540844243581978,-6.543873363462703,-6.743678283557751
1621786541137.169,-0.007,-0.005,0.086,0.3237555483079408,-6.589366677538089,-6.822595256953827
1621786541140.338,-0.008302755055954233,-0.005,0.086,0.304,-6.619,-6.874
1621786541142.034,-0.009,-0.005,0.086,0.29126568592422286,-6.638101471113665,-6.900547807310518
1621786541146.9,-0.005,0.0,0.094,0.25473083435601884,-6.692903748465972,-6.976713684308638
1621786541151.764,0.002,-0.007,0.099,0.2182106473210818,-6.7476840290183775,-7.052848989483168
1621786541156.054,0.012586073598072192,-0.013175209598875446,0.1025286911993574,0.186,-6.796,-7.12
1621786541156.627,0.014,-0.014,0.103,0.1802744534394083,-6.7995739080441915,-7.123573908044191
1621786541161.49,0.042,-0.014,0.112,0.1316817129449788,-6.829905682365555,-7.153905682365555
1621786541166.354,0.065,-0.03,0.113,0.08307921438227388,-6.860243547710428,-7.184243547710428
1621786541171.217,0.093,-0.037,0.119,0.03448647388784437,-6.890575322031792,-7.214575322031791
1621786541171.766,0.09435515942756716,-0.037112929952297265,0.11911292995229726,0.029,-6.894,-7.218
1621786541176.079,0.105,-0.038,0.12,0.013072562217282493,-6.872580342292207,-7.234202048778971
1621786541180.94,0.122,-0.047,0.127,-0.004878037027249694,-6.848439881239216,-7.252462141113926
1621786541185.802,0.131,-0.051,0.133,-0.02283314420730285,-6.824293357790179,-7.270726819107429
1621786541187.472,0.13340470091908996,-0.05512234443272563,0.13334352870272714,-0.029,-6.816,-7.277
1621786541190.663,0.138,-0.063,0.134,-0.04505224785474443,-6.823924527421962,-7.272936139783609
1621786541195.523,0.145,-0.063,0.136,-0.06949842992165153,-6.8359928957841065,-7.266747232931228
1621786541200.383,0.154,-0.073,0.141,-0.09394584006964307,-6.848061870414128,-7.260558015172242
1621786541203.177,0.154,-0.0781741183562745,0.1421498040791721,-0.108,-6.855,-7.257
1621786541205.243,0.154,-0.082,0.143,-0.1364246769202059,-6.876976486322567,-7.262132233332815
1621786541210.102,0.157,-0.089,0.143,-0.20328078005691802,-6.928666158655117,-7.274203474176944
1621786541214.96,0.162,-0.098,0.148,-0.27012008770974916,-6.980342845590409,-7.286271682503149
1621786541218.876,0.16925317791287747,-0.11008862985479576,0.14558227402904084,-0.324,-7.022,-7.296
1621786541219.819,0.171,-0.113,0.145,-0.33872386004760496,-7.026687596260054,-7.299545745889016
1621786541224.676,0.19,-0.131,0.143,-0.4145500241136296,-7.050828170942299,-7.317805924174303
1621786541229.534,0.199,-0.138,0.134,-0.4903914342164626,-7.074973599464832,-7.3360697739541685
1621786541234.391,0.215,-0.147,0.131,-0.5662214097916893,-7.099115387607149,-7.354330870113101
1621786541234.569,0.21529315371468785,-0.14762295164371167,0.1308167789283201,-0.569,-7.1,-7.355
1621786541239.248,0.223,-0.164,0.126,-0.6712936572157729,-7.08240429802994,-7.290581836855374
1621786541244.104,0.23,-0.178,0.115,-0.7774570197006007,-7.064142961625844,-7.223726774765803
1621786541248.96,0.25,-0.182,0.105,-0.8836203821854285,-7.045881625221749,-7.156871712676232
1621786541250.258,0.2521389922558584,-0.1841389922558584,0.1039305038720708,-0.912,-7.041,-7.139
1621786541253.815,0.258,-0.19,0.101,-0.9296868793774319,-6.994288498054475,-7.039001105058366
1621786541258.669,0.274,-0.185,0.094,-0.9538237821011674,-6.930542319066148,-6.902534770428016
1621786541263.524,0.284,-0.187,0.091,-0.9779655408560312,-6.866783315175097,-6.766040980544748
1621786541265.944,0.2835014083090232,-0.18101689970827883,0.08900563323609294,-0.99,-6.835,-6.698
1621786541268.378,0.283,-0.175,0.087,-0.9428219561934711,-6.795426311938602,-6.58843520089668
1621786541273.232,0.269,-0.157,0.094,-0.848730887183399,-6.716501237604496,-6.369921073524605
1621786541278.085,0.251,-0.136,0.101,-0.7546587480735402,-6.637592041969581,-6.151450908354998
1621786541281.627,0.22837458496830668,-0.11848354965288259,0.10902837307576216,-0.686,-6.58,-5.992
1621786541282.938,0.22,-0.112,0.112,-0.6557285765451516,-6.564446174688945,-5.956711213541586
1621786541287.79,0.19,-0.087,0.126,-0.5436961240792937,-6.5068825388915705,-5.826109846302381
1621786541292.642,0.161,-0.054,0.138,-0.4316636716134357,-6.449318903094197,-5.695508479063177
1621786541297.305,0.12735638431727817,-0.020356384317278167,0.1581861694096331,-0.324,-6.394,-5.57
1621786541297.493,0.126,-0.019,0.159,-0.3185912312125224,-6.394707577291489,-5.5695322794174915
1621786541302.344,0.08,0.012,0.178,-0.17901689899540535,-6.412966747138073,-5.557462658671443
1621786541307.195,0.021,0.038,0.192,-0.039442566778288335,-6.431225916984658,-5.545393037925395
1621786541312.045,-0.045,0.084,0.22,0.10009664356358539,-6.449480492173507,-5.533326454325987
1621786541312.98,-0.056569831839693885,0.0922917128184473,0.22732756016513947,0.127,-6.453,-5.531
1621786541316.894,-0.105,0.127,0.258,0.15173148840688108,-6.572910246821242,-5.682886312640239
1621786541321.743,-0.155,0.175,0.297,0.18236971765145849,-6.721459237097981,-5.871048366990776
1621786541326.592,-0.195,0.213,0.323,0.2130094895287958,-6.870015706806282,-6.059219895287958
1621786541328.648,-0.20644791299531745,0.22105593877448265,0.3331759226625044,0.226,-6.933,-6.139
1621786541331.441,-0.222,0.232,0.347,0.135059168277324,-6.983819876550907,-6.3383565683646115
1621786541336.289,-0.234,0.248,0.358,-0.022799488746181207,-7.072035008416983,-6.684407506702413
1621786541341.136,-0.222,0.248,0.37,-0.18061839890267475,-7.1602279287985535,-7.030371313672922
1621786541344.311,-0.20235201692098503,0.2512746638465025,0.3732746638465025,-0.284,-7.218,-7.257
1621786541345.984,-0.192,0.253,0.375,-0.32694317384593796,-7.228468733922641,-7.319812403535849
1621786541350.83,-0.145,0.253,0.372,-0.45134801926944484,-7.258796283304491,-7.501777699826949
1621786541355.676,-0.089,0.244,0.372,-0.5757465974463309,-7.289122304850101,-7.683733829100603
1621786541359.971,-0.03936767595344854,0.23779595949418106,0.3684548339966749,-0.686,-7.316,-7.845
1621786541360.522,-0.033,0.237,0.368,-0.6946570827161457,-7.3070261947454584,-7.830184423481718
1621786541365.368,0.009,0.229,0.365,-0.7707910813128558,-7.228106805956186,-7.699890060029625
1621786541370.213,0.049,0.218,0.365,-0.8469097372729399,-7.149203321119513,-7.569621953691432
1621786541375.057,0.072,0.211,0.365,-0.9230130505963983,-7.070315740235441,-7.43938010446714
1621786541375.629,0.0737446016381236,0.211,0.365,-0.932,-7.061,-7.424
1621786541379.975,0.087,0.211,0.365,-0.9795938691497927,-6.941474487703362,-7.24363005271073
1621786541384.959,0.087,0.204,0.361,-1.034170952894533,-6.804411584208047,-7.036795309200833
1621786541389.958,0.089,0.202,0.367,-1.0889137944129668,-6.666932402667436,-6.829332381400859
1621786541391.701,0.08096491313922193,0.2016506483973575,0.36630129679471496,-1.108,-6.619,-6.757
1621786541394.947,0.066,0.201,0.365,-1.1041749136939012,-6.534244140270123,-6.664191326994125
1621786541399.936,0.049,0.206,0.363,-1.0982960299194477,-6.403980452425656,-6.521551041729756
1621786541404.927,0.037,0.201,0.363,-1.0924148446490218,-6.273665768275695,-6.378854914905215
1621786541407.825,0.025382676780034256,0.205066063126988,0.36125740151700514,-1.089,-6.198,-6.296
1621786541409.916,0.017,0.208,0.36,-1.0761602816474864,-6.181399152029074,-6.261631056935191
1621786541414.906,-0.005,0.208,0.358,-1.045520351302241,-6.141783888552393,-6.179615081768625
1621786541419.895,-0.035,0.204,0.358,-1.0148864173228347,-6.102176377952756,-6.097615157480314
1621786541423.948,-0.05774666014191339,0.2056247614387081,0.3563752385612919,-0.99,-6.07,-6.031
1621786541424.884,-0.063,0.206,0.356,-0.9797815736870797,-6.075167272396874,-6.031
1621786541429.875,-0.086,0.202,0.358,-0.9252966260827428,-6.102719319764977,-6.031
1621786541434.864,-0.103,0.199,0.361,-0.870833000181719,-6.130260585135381,-6.031
1621786541439.854,-0.113,0.204,0.36,-0.8163587134290387,-6.157807241504633,-6.031
1621786541440.07,-0.11325984829948618,0.20369684365059945,0.3601299241497431,-0.814,-6.159,-6.031
1621786541444.843,-0.119,0.197,0.363,-0.7761049443476944,-6.217026803967593,-6.048467252214734
1621786541449.833,-0.115,0.202,0.358,-0.7364866813053684,-6.277692269251155,-6.0667287953358064
1621786541454.823,-0.113,0.202,0.36,-0.6968684182630424,-6.338357734534717,-6.084990338456879
1621786541456.192,-0.1108049425006117,0.20364629312454124,0.3608231465622706,-0.686,-6.355,-6.09
1621786541459.812,-0.105,0.208,0.363,-0.6597299212598425,-6.377003997577226,-6.094490611750454
1621786541464.802,-0.098,0.199,0.354,-0.623519094488189,-6.40733443367656,-6.100680496668685
1621786541469.792,-0.091,0.206,0.353,-0.5873082677165354,-6.437664869775894,-6.106870381586917
1621786541472.315,-0.08543728896501102,0.20498859799363836,0.353,-0.569,-6.453,-6.11
1621786541474.781,-0.08,0.204,0.353,-0.5780242125984252,-6.46493031496063,-6.11
1621786541479.771,-0.073,0.206,0.353,-0.5962843731072077,-6.4890708661417325,-6.11
1621786541484.76,-0.058,0.208,0.346,-0.6145409600242278,-6.513206692913386,-6.11
1621786541488.438,-0.05284151054150565,0.21168463532749596,0.33936765641050726,-0.628,-6.531,-6.11
1621786541489.751,-0.051,0.213,0.337,-0.6327229725637454,-6.531,-6.108371388771123
1621786541494.74,-0.04,0.215,0.328,-0.6506690388226032,-6.531,-6.102183090061171
1621786541499.73,-0.028,0.218,0.321,-0.6686186178911029,-6.531,-6.09599358003755
1621786541504.562,-0.017346121849767557,0.2228426718864693,0.3180943968681184,-0.686,-6.531,-6.09
1621786541504.719,-0.017,0.223,0.318,-0.6865744896723001,-6.530620252589497,-6.0882765309831
1621786541509.71,-0.012,0.222,0.311,-0.7048393300623903,-6.518546883518081,-6.033482009812829
1621786541514.699,-0.007,0.234,0.305,-0.7230970228360288,-6.506478239142286,-5.978708931491914
1621786541519.688,-0.01,0.237,0.295,-0.7413547156096675,-6.494409594766491,-5.923935853170998
1621786541520.684,-0.012195802142961985,0.24119198590929106,0.2946007632467342,-0.745,-6.492,-5.913
1621786541524.678,-0.021,0.258,0.293,-0.7402930869993185,-6.496954645263875,-5.888722238207012
1621786541529.668,-0.026,0.258,0.288,-0.7344122510789732,-6.503144998864238,-5.858389505565231
1621786541534.658,-0.045,0.262,0.288,-0.728531415158628,-6.509335352464602,-5.82805677292345
1621786541536.806,-0.05102750183508686,0.2658748226082701,0.28584732077318326,-0.726,-6.512,-5.815
1621786541539.647,-0.059,0.271,0.283,-0.7224757722592368,-6.517110130224106,-5.818524227740763
1621786541544.637,-0.072,0.279,0.278,-0.7162858873410054,-6.526085463355542,-5.824714112658994
1621786541549.627,-0.075,0.286,0.283,-0.710096002422774,-6.535060796486977,-5.830903997577226
1621786541552.929,-0.07963207593326484,0.29791105239982385,0.28630862566661774,-0.706,-6.541,-5.835
1621786541554.617,-0.082,0.304,0.288,-0.7039061175045427,-6.543093882495458,-5.843166141732284
1621786541559.606,-0.087,0.312,0.284,-0.6977174439733494,-6.54928255602665,-5.867301968503937
1621786541564.596,-0.08,0.328,0.281,-0.6915275590551181,-6.555472440944882,-5.8914425196850395
1621786541569.052,-0.08535799207397622,0.3405019815059445,0.2783210039630119,-0.686,-6.561,-5.913
1621786541569.586,-0.086,0.342,0.278,-0.6834167726694531,-6.561629247683082,-5.914324731964383
1621786541574.576,-0.087,0.358,0.281,-0.6592747592222424,-6.567509994548428,-5.926705251680902
1621786541579.565,-0.086,0.363,0.286,-0.6351374704706524,-6.5733895905263795,-5.939083348476589
1621786541584.555,-0.08,0.374,0.286,-0.6109954570234417,-6.579270337391725,-5.951463868193107
1621786541585.174,-0.0813648417241548,0.3747444591222663,0.28662038260188855,-0.608,-6.58,-5.953
1621786541589.545,-0.091,0.38,0.291,-0.5920074339874031,-6.622556489219962,-5.9421575823643416
1621786541594.535,-0.099,0.387,0.3,-0.5737494852228683,-6.6711412003391475,-5.929779312015504
1621786541599.524,-0.106,0.401,0.309,-0.5554951096172481,-6.7197164032218994,-5.917403464147287
1621786541601.299,-0.10991315622095015,0.40349019032242284,0.31077870737315916,-0.549,-6.737,-5.913
1621786541604.514,-0.117,0.408,0.314,-0.5607628391472869,-6.760525678294574,-5.913
1621786541609.504,-0.119,0.419,0.319,-0.5790207879118218,-6.797041575823644,-5.913
1621786541614.494,-0.112,0.431,0.321,-0.5972787366763566,-6.833557473352713,-5.913
1621786541617.424,-0.10847604599951065,0.43628593100073404,0.3221746513334965,-0.608,-6.855,-5.913
1621786541619.483,-0.106,0.44,0.323,-0.6230653121782838,-6.8675118694362025,-5.923086098831224
1621786541624.473,-0.105,0.447,0.326,-0.6595789983649246,-6.897836795252226,-5.947531702295161
1621786541629.463,-0.098,0.452,0.328,-0.6960926845515654,-6.92816172106825,-5.971977305759099
1621786541633.55,-0.09881907138314008,0.45773349968198057,0.3353716424482607,-0.726,-6.953,-5.992
1621786541634.453,-0.099,0.459,0.337,-0.735293707987646,-6.953,-5.99418346151517
1621786541639.442,-0.106,0.461,0.335,-0.7866503663780052,-6.953,-6.0062491824623025
1621786541644.432,-0.11,0.468,0.337,-0.838017077454127,-6.953,-6.018317265185005
1621786541649.422,-0.115,0.473,0.333,-0.8893863017016896,-6.953,-6.030385938351602
1621786541649.676,-0.11510176623122463,0.4727964675375507,0.33284735065316307,-0.892,-6.953,-6.031
1621786541654.412,-0.117,0.469,0.33,-0.915205950938825,-6.96739356450636,-6.0136689733494855
1621786541659.401,-0.124,0.473,0.33,-0.9396500151423379,-6.982555072683223,-5.995413279830406
1621786541664.391,-0.14,0.475,0.332,-0.9641012568140521,-6.9977210327074495,-5.977152225923683
1621786541665.799,-0.1447966632418416,0.47641078330642395,0.333410783306424,-0.971,-7.002,-5.972
1621786541669.381,-0.157,0.48,0.337,-0.9796657479062865,-7.041106964910421,-5.972
1621786541674.371,-0.169,0.48,0.339,-0.9917376686707758,-7.095585376565553,-5.972
1621786541679.36,-0.185,0.48,0.344,-1.0038072269085732,-7.150053126561766,-5.972
1621786541681.92,-0.1911558784676354,0.4835909291061206,0.34502597974460586,-1.01,-7.178,-5.972
1621786541684.35,-0.197,0.487,0.346,-0.9863358873410054,-7.204678649303452,-5.989785766202302
1621786541689.34,-0.208,0.501,0.353,-0.9377452907328891,-7.2594591308298,-6.026306087219867
1621786541694.33,-0.211,0.504,0.349,-0.8891546941247729,-7.314239612356148,-6.062826408237432
1621786541698.043,-0.21248813542736925,0.5106966094231616,0.3556966094231616,-0.853,-7.355,-6.09
1621786541699.32,-0.213,0.513,0.358,-0.8397728029798316,-7.368227197020169,-6.096970019986675
1621786541704.309,-0.211,0.525,0.36,-0.7881005087517413,-7.419899491248259,-6.12419853431046
1621786541709.3,-0.206,0.534,0.365,-0.7364079855853674,-7.471592014414633,-6.151437708194537
1621786541714.167,-0.19722021042329338,0.5379021287007585,0.3718287252263274,-0.686,-7.522,-6.178
1621786541714.289,-0.197,0.538,0.372,-0.6857047244094489,-7.522590551181103,-6.178598122350091
1621786541719.279,-0.18,0.545,0.375,-0.6736344488188977,-7.546731102362204,-6.203048167777105
1621786541724.268,-0.169,0.548,0.375,-0.6615665354330709,-7.570866929133858,-6.227493428225317
1621786541729.259,-0.145,0.555,0.379,-0.6494938976377953,-7.5950122047244095,-6.251948258631132
1621786541730.29,-0.14252013701981894,0.5570665524834842,0.379,-0.647,-7.6,-6.257
1621786541734.248,-0.133,0.565,0.379,-0.6759692894784664,-7.590425404324914,-6.261664546610939
1621786541739.238,-0.115,0.572,0.382,-0.7124918226421952,-7.578354397601308,-6.267545293476285
1621786541744.228,-0.105,0.578,0.38,-0.749014355805924,-7.566283390877703,-6.273426040341632
1621786541746.412,-0.09668383971818581,0.578,0.37956230735358876,-0.765,-7.561,-6.276
1621786541749.218,-0.086,0.578,0.379,-0.7973741575926458,-7.557518907785737,-6.269211870182187
1621786541754.208,-0.077,0.579,0.374,-0.8549479335463646,-7.551328179188563,-6.257139949417698
1621786541759.197,-0.068,0.581,0.377,-0.9125104420650906,-7.545138662143539,-6.2450703911799
1621786541762.533,-0.06131474142570576,0.5870167327168648,0.37499442242771175,-0.951,-7.541,-6.237
1621786541764.187,-0.058,0.59,0.374,-0.9591050487612817,-7.549105048761282,-6.2309468623175235
1621786541769.177,-0.051,0.595,0.368,-0.9835565752014053,-7.573556575201406,-6.2126855957356595
1621786541774.167,-0.049,0.588,0.37,-1.0080081016415288,-7.598008101641529,-6.194424329153795
1621786541778.655,-0.03910457548323954,0.5897991680939564,0.3682008319060435,-1.03,-7.62,-6.178
1621786541779.156,-0.038,0.59,0.368,-1.0312119761930003,-7.623045478638821,-6.176788023807
1621786541784.146,-0.024,0.592,0.368,-1.0432838969574896,-7.653380048764974,-6.16471610304251
1621786541789.137,-0.007,0.59,0.363,-1.0553581802486711,-7.68372055549666,-6.152641819751329
1621786541794.126,0.009,0.6,0.363,-1.0674277384864683,-7.714049189017279,-6.140572261513531
1621786541794.776,0.01173506531630706,0.6005209648221537,0.36234879397230785,-1.069,-7.718,-6.139
1621786541799.116,0.03,0.604,0.358,-1.0426166404167676,-7.731191679791617,-6.099424960625152
1621786541804.106,0.054,0.611,0.353,-1.0122825296825781,-7.7463587351587115,-6.053923794523867
1621786541809.096,0.075,0.611,0.351,-0.9819484189483887,-7.761525790525806,-6.008422628422583
1621786541810.897,0.08257948040510787,0.6160529869367386,0.350278144723323,-0.971,-7.767,-5.992
1621786541814.086,0.096,0.625,0.349,-0.9379651986915435,-7.782429428156046,-5.980329022292222
1621786541819.075,0.119,0.632,0.353,-0.8862835140537921,-7.806568179064696,-5.962070223527986
1621786541824.066,0.12,0.639,0.365,-0.8345815968015508,-7.830716379937,-5.94380427671432
1621786541827.018,0.11171740300406086,0.6460993688536621,0.3762406673516317,-0.804,-7.845,-5.933
1621786541829.056,0.106,0.651,0.384,-0.7990696987595984,-7.847528359610462,-6.10037740621261
1621786541834.045,0.073,0.677,0.428,-0.7869994093325459,-7.853718251624335,-6.51014825753101
1621786541839.035,0.024,0.674,0.466,-0.7749267572356764,-7.859909355263756,-6.919999318460629
1621786541843.138,-0.018765451431367756,0.663308637142158,0.4914947883533154,-0.765,-7.865,-7.257
