time,gyro_x,gyro_y,gyro_z,acc_x,acc_y,acc_z
1621785886675.651,,,,-0.588,-5.737,-8.944
1621785886694.504,,,,-0.667,-6.257,-8.904
1621785886713.512,1.367,0.204,0.567,-1.5816808613659532,-6.947474923547401,-8.846460423037717
1621785886713.664,1.3664921540656205,0.2041777460770328,0.5657303851640513,-1.589,-6.953,-8.846
1621785886719.502,1.347,0.211,0.517,-1.933025186894787,-7.214843058552004,-8.61654989714515
1621785886725.521,1.332,0.209,0.473,-2.287725628418042,-7.48481122372184,-8.37997985550148
1621785886731.57,1.309,0.197,0.429,-2.6441956876222967,-7.756126273142341,-8.142229554462897
1621785886733.128,1.3048989355292226,0.19571841735288212,0.41746575617593895,-2.736,-7.826,-8.081
1621785886737.648,1.293,0.192,0.384,-3.03530165987067,-7.98651719593064,-7.661977676181062
1621785886742.29,1.262,0.162,0.295,-3.34268643683842,-8.151369413896782,-7.231638988426212
1621785886743.757,1.281,0.169,0.342,-3.439829338111125,-8.203467708719469,-7.095638926644425
1621785886744.983,1.2682809408926417,0.16173196622436672,0.3186817249698432,-3.521,-8.247,-6.982
1621785886747.805,1.239,0.145,0.265,-3.390860960813248,-8.23626037055255,-6.777631169044105
1621785886753.329,1.204,0.147,0.251,-3.1361108924960375,-8.215237306662294,-6.377574629720719
1621785886758.861,1.162,0.15,0.239,-2.881000546537684,-8.194184511122042,-5.97695231458709
1621785886762.851,1.1173548642932676,0.1449594201621431,0.25556190518152977,-2.697,-8.179,-5.688
1621785886764.402,1.1,0.143,0.262,-2.6360023527491805,-8.134072554432825,-5.598145108865649
1621785886769.95,1.023,0.14,0.29,-2.4178203070813673,-7.973371897567013,-5.276743795134025
1621785886775.507,0.932,0.141,0.321,-2.199273408494377,-7.812402510505773,-4.954805021011546
1621785886780.803,0.8339624396665204,0.14004817902588856,0.34955462922334357,-1.991,-7.659,-4.648
1621785886781.071,0.829,0.14,0.351,-1.988087217800877,-7.653902631151535,-4.648
1621785886786.644,0.724,0.147,0.38,-1.9275315900600942,-7.547930282605165,-4.648
1621785886792.226,0.634,0.152,0.407,-1.8668778084564994,-7.441786164798874,-4.648
1621785886797.815,0.534,0.148,0.422,-1.8061497482540196,-7.335512059444534,-4.648
1621785886798.841,0.5184197557784562,0.14708351504579154,0.42529934583515044,-1.795,-7.316,-4.648
1621785886803.413,0.449,0.143,0.44,-1.7528669621566275,-7.348041292252145,-4.875821156721948
1621785886809.018,0.382,0.138,0.454,-1.7012147870720895,-7.387321688873321,-5.155114055532353
1621785886814.632,0.323,0.14,0.471,-1.649479367346114,-7.426665391299662,-5.434857073571612
1621785886816.963,0.3035171725066215,0.13834188702184014,0.4788760366462594,-1.628,-7.443,-5.551
1621785886820.255,0.276,0.136,0.49,-1.686588348889604,-7.499780066516468,-5.685717036798627
1621785886825.885,0.248,0.133,0.501,-1.7867890247827485,-7.59688812895612,-5.916116739083789
1621785886831.524,0.225,0.126,0.52,-1.887146121660766,-7.69414778457247,-6.1468761130779965
1621785886835.168,0.20821906079737093,0.11890037187581078,0.5245179451699387,-1.952,-7.757,-6.296
1621785886837.17,0.199,0.115,0.527,-1.9701667734358317,-7.788080503950459,-6.2455489002776
1621785886842.825,0.202,0.103,0.525,-2.021483477471706,-7.875875346999786,-6.1030368487080935
1621785886848.489,0.208,0.099,0.539,-2.072882153534059,-7.963810431347427,-5.960297151932522
1621785886853.461,0.208,0.10075348717065612,0.5591651024625452,-2.118,-8.041,-5.835
1621785886854.16,0.208,0.101,0.562,-2.0971199569589647,-8.022744224663576,-5.809632078855428
1621785886859.839,0.209,0.108,0.585,-1.927468695617519,-7.874415252998924,-5.603516611979755
1621785886865.527,0.201,0.122,0.616,-1.7575548839619006,-7.725856729147017,-5.397082163210542
1621785886871.222,0.182,0.138,0.651,-1.5874368665063696,-7.577119664705023,-5.190399617413021
1621785886871.839,0.17778017462763224,0.13908200650573532,0.6551116247217942,-1.569,-7.561,-5.168
1621785886876.926,0.143,0.148,0.689,-1.5527425412611087,-7.355715139652983,-5.024713922979264
1621785886882.639,0.091,0.154,0.731,-1.5344845006347863,-7.1251686944562,-4.863795598815066
1621785886888.36,0.031,0.166,0.766,-1.5161999312314853,-6.894287267245027,-4.702643461701227
1621785886890.3,0.007969097651421505,0.16904820766378245,0.7754833127317676,-1.51,-6.816,-4.648
1621785886894.088,-0.037,0.175,0.794,-1.5600338940662348,-6.729819170220607,-4.680062536197546
1621785886899.825,-0.093,0.188,0.827,-1.6358151687463802,-6.5992897909756225,-4.728624414257884
1621785886905.57,-0.147,0.197,0.852,-1.7117028642131311,-6.468577107355341,-4.777254488495761
1621785886908.848,-0.17036046511627906,0.20383720930232557,0.8588372093023255,-1.755,-6.394,-4.805
1621785886911.323,-0.188,0.209,0.864,-1.7981886398001445,-6.388801367431464,-4.850721306948918
1621785886917.085,-0.213,0.215,0.874,-1.8987306685950958,-6.376699086187628,-4.957159318913943
1621785886922.817,-0.232,0.215,0.888,-1.998748708171718,-6.364659877720071,-5.063042613897837
1621785886927.416,-0.24321738760580153,0.21179503211262812,0.8871987580281571,-2.079,-6.355,-5.148
1621785886928.557,-0.246,0.211,0.887,-2.1006623855861535,-6.351379374647074,-5.1564685813339635
1621785886934.304,-0.248,0.209,0.888,-2.2097855520098753,-6.3331406584459415,-5.199128629397628
1621785886940.059,-0.246,0.209,0.885,-2.319061694835126,-6.31487637395107,-5.241848481266989
1621785886945.82,-0.23,0.222,0.878,-2.428449093225124,-6.296593494333478,-5.284611826813221
1621785886946.007,-0.22938395767195768,0.2218703068783069,0.877546074074074,-2.432,-6.296,-5.286
1621785886951.588,-0.211,0.218,0.864,-2.51691545021713,-6.278359114215456,-5.250718228430911
1621785886957.364,-0.199,0.222,0.848,-2.604802699733166,-6.260100847590645,-5.21420169518129
1621785886963.147,-0.188,0.227,0.822,-2.692793962224664,-6.241820972636425,-5.1776419452728515
1621785886964.672,-0.1877365913307472,0.2301609040310339,0.817522052622702,-2.716,-6.237,-5.168
1621785886968.937,-0.187,0.239,0.805,-2.7071247475997553,-6.2458752524002445,-5.1411466722249
1621785886974.733,-0.192,0.248,0.785,-2.6950634680770684,-6.257936531922931,-5.104653570079335
1621785886980.537,-0.195,0.262,0.766,-2.6829849146072977,-6.270015085392702,-5.068108203170798
1621785886983.413,-0.19697974875005253,0.2634848115625394,0.7556063190622243,-2.677,-6.276,-5.05
1621785886986.348,-0.199,0.265,0.745,-2.706167341377968,-6.300488088750487,-5.05920253016738
1621785886992.166,-0.211,0.284,0.723,-2.7639900609835215,-6.349034436226806,-5.077446062021539
1621785886997.992,-0.22,0.284,0.703,-2.821890424289607,-6.3976459711950175,-5.095714091086026
1621785887002.229,-0.2287167252636866,0.284,0.6855665494726269,-2.864,-6.433,-5.109
1621785887003.825,-0.232,0.284,0.679,-2.8888429828983595,-6.441280994299453,-5.151249970915577
1621785887009.664,-0.234,0.276,0.646,-2.9797363012370575,-6.471578767079019,-5.30583044428071
1621785887015.51,-0.227,0.258,0.611,-3.0707360297824486,-6.501912009927483,-5.4605918873851165
1621785887021.116,-0.2135954465849387,0.23789316987740805,0.5822759569677257,-3.158,-6.531,-5.609
1621785887021.365,-0.213,0.237,0.581,-3.156690268733376,-6.533499181090394,-5.613597424037945
1621785887027.226,-0.192,0.229,0.545,-3.1258640741080437,-6.592320593283631,-5.721803658232989
1621785887033.094,-0.169,0.209,0.51,-3.0950019260753923,-6.6512106104479765,-5.8301360962251545
1621785887038.693,-0.145,0.194,0.476,-3.0655535173805375,-6.707402982141219,-5.93350602062342
1621785887039.749,-0.13840040109866153,0.19136016043946463,0.4697775210358809,-3.06,-6.718,-5.953
1621785887044.293,-0.11,0.18,0.443,-3.054978212478921,-6.747377456998314,-5.992421032040473
1621785887049.894,-0.073,0.161,0.41,-3.0487881281618887,-6.7835894502529515,-6.041013193929174
1621785887055.494,-0.033,0.134,0.374,-3.0425993929173694,-6.819793551433389,-6.089594765598651
1621785887057.846,-0.017882573446081424,0.1277010722692006,0.3576227878999215,-3.04,-6.835,-6.11
1621785887061.095,0.003,0.119,0.335,-3.003022363700127,-6.806818015053009,-6.113410558687852
1621785887066.696,0.047,0.101,0.309,-2.939275675092395,-6.758234373735466,-6.119290107637109
1621785887072.297,0.08,0.082,0.276,-2.875528986484664,-6.7096507324179235,-6.125169656586365
1621785887075.946,0.09823556581986143,0.0709284064665127,0.25971824480369515,-2.834,-6.678,-6.129
1621785887077.9,0.108,0.065,0.251,-2.7906098508348394,-6.675949221805626,-6.101476397917621
1621785887083.502,0.129,0.052,0.227,-2.6662027081703665,-6.670069282226957,-6.022561419361799
1621785887089.104,0.138,0.052,0.215,-2.5417955655058937,-6.664189342648289,-5.943646440805977
1621785887094.048,0.1424119825708061,0.052,0.20882322440087145,-2.432,-6.659,-5.874
1621785887094.707,0.143,0.052,0.208,-2.416642855216676,-6.652922646495699,-5.876147088962597
1621785887100.311,0.143,0.063,0.206,-2.286036000323598,-6.601236995388723,-5.894407289054284
1621785887105.914,0.138,0.075,0.202,-2.1554519051856644,-6.5495603511042795,-5.912664307094895
1621785887111.518,0.131,0.089,0.201,-2.0248450502925865,-6.497874699997303,-5.930924507186582
1621785887112.155,0.12997686274509804,0.09161468409586056,0.20190945533769064,-2.01,-6.492,-5.933
1621785887117.121,0.122,0.112,0.209,-1.9079796143993526,-6.45442797627073,-5.959876338142106
1621785887122.726,0.11,0.103,0.208,-1.7928336524201158,-6.4120220709181615,-5.990210489416206
1621785887128.331,0.112,0.122,0.218,-1.6776876904408788,-6.369616165565593,-6.020544640690305
1621785887130.263,0.11131065423817406,0.12751476609460755,0.21696598135726108,-1.638,-6.355,-6.031
1621785887133.936,0.11,0.138,0.215,-1.6160965989512421,-6.327012320882143,-5.979283636412655
1621785887139.541,0.112,0.15,0.213,-1.5826729843764744,-6.284304368925495,-5.900366768666675
1621785887145.146,0.105,0.164,0.202,-1.5492493698017067,-6.241596416968847,-5.821449900920696
1621785887148.374,0.1015177771925204,0.17502703889035204,0.20316074093582653,-1.53,-6.217,-5.776
1621785887150.708,0.099,0.183,0.204,-1.5067351821044093,-6.205433310876768,-5.723161261050692
1621785887156.204,0.082,0.206,0.201,-1.4519509163653361,-6.178195935820054,-5.598735979541611
1621785887161.698,0.051,0.23,0.202,-1.3971885526514787,-6.150969449905819,-5.4743604416152225
1621785887166.131,0.02113885061558291,0.25421174274412195,0.21087763900617806,-1.353,-6.129,-5.374
1621785887167.191,0.014,0.26,0.213,-1.3565251878767859,-6.116094227434139,-5.374
1621785887172.681,-0.023,0.284,0.218,-1.374786164560795,-6.049240482285903,-5.374
1621785887178.171,-0.063,0.312,0.225,-1.393047141244804,-5.982386737137666,-5.374
1621785887183.658,-0.11,0.335,0.229,-1.4112983731109092,-5.915568667932943,-5.374
1621785887183.869,-0.11226892776071572,0.33546147683268795,0.229,-1.412,-5.913,-5.374
1621785887189.143,-0.169,0.347,0.229,-1.5084619010212097,-5.866555380989788,-5.449919088766692
1621785887194.626,-0.218,0.358,0.225,-1.6087415553809898,-5.8182725844461896,-5.528842890809112
1621785887200.107,-0.248,0.384,0.225,-1.708985488072105,-5.770006987224542,-5.607738578575267
1621785887201.584,-0.25608607324244853,0.38723442929697943,0.22553907154949657,-1.736,-5.757,-5.629
1621785887205.587,-0.278,0.396,0.227,-1.8357728194726166,-5.783470339860082,-5.666782450911398
1621785887211.064,-0.304,0.412,0.216,-1.972288032454361,-5.819688661671565,-5.718478688026935
1621785887216.539,-0.321,0.419,0.213,-2.1087545638945233,-5.855894067972016,-5.77015649018228
1621785887219.277,-0.3245020297095954,0.4225020297095954,0.2094979702904046,-2.177,-5.874,-5.796
1621785887222.012,-0.328,0.426,0.206,-2.239202386872203,-5.874,-5.864236946792641
1621785887227.485,-0.342,0.443,0.202,-2.3636848997182165,-5.874,-6.00079612133267
1621785887232.954,-0.354,0.443,0.195,-2.4880730150837063,-5.874,-6.137251740427648
1621785887236.952,-0.36716318327974273,0.443,0.1942687120400143,-2.579,-5.874,-6.237
1621785887238.421,-0.372,0.443,0.194,-2.600218555959674,-5.875664200467425,-6.2949141762664045
1621785887243.887,-0.393,0.44,0.188,-2.6791718963919737,-5.881856619324861,-6.5104103525051515
1621785887249.351,-0.415,0.426,0.178,-2.7580970253488406,-5.888046825517556,-6.725829528010952
1621785887254.606,-0.4303935276238155,0.4057959949937422,0.1597201859467191,-2.834,-5.894,-6.933
1621785887254.813,-0.431,0.405,0.159,-2.838152234118487,-5.897910121341899,-6.937866466809422
1621785887259.874,-0.429,0.386,0.148,-2.9396567309064956,-5.9934959885795855,-7.056830920770878
1621785887265.271,-0.422,0.361,0.126,-3.0478988151320485,-6.0954265810135615,-7.1836919057815845
1621785887270.667,-0.396,0.333,0.103,-3.156121313347609,-6.197338729478943,-7.310529935760171
1621785887271.708,-0.38789133387666397,0.3262427782305533,0.09566358779317213,-3.177,-6.217,-7.335
1621785887276.059,-0.354,0.298,0.065,-3.3094572646576266,-6.185260240355625,-7.4429651666643295
1621785887281.448,-0.309,0.257,0.017,-3.4735089537378525,-6.145949741274137,-7.576682769839155
1621785887286.834,-0.258,0.209,-0.028,-3.6374714560166033,-6.106660613369606,-7.71032767735693
1621785887289.118,-0.23678588598122363,0.1920287087849789,-0.0466684203365232,-3.707,-6.09,-7.767
1621785887292.217,-0.208,0.169,-0.072,-3.6527864317725234,-6.072523257610879,-7.822996909287591
1621785887297.597,-0.159,0.124,-0.119,-3.5586750256388644,-6.042184712212529,-7.920204085359857
1621785887302.975,-0.119,0.072,-0.15,-3.4645935151234175,-6.011855804217418,-8.017380382405417
1621785887306.496,-0.10065473378157369,0.04513728875159004,-0.1729315827730329,-3.403,-5.992,-8.081
1621785887308.349,-0.091,0.031,-0.185,-3.3254474687909026,-6.0140052636764105,-8.044253346093761
1621785887313.721,-0.065,-0.005,-0.206,-3.100626870082896,-6.077797334384193,-7.937726781416688
1621785887319.089,-0.038,-0.04,-0.227,-2.875959537246844,-6.141545916428582,-7.8312728385852814
1621785887323.843,-0.03711406342417762,-0.07100778015378316,-0.2314296828791119,-2.677,-6.198,-7.737
1621785887324.455,-0.037,-0.075,-0.232,-2.66558430371895,-6.191390912679393,-7.72279222939634
1621785887329.817,-0.037,-0.117,-0.234,-2.565579707897482,-6.133493515098543,-7.598328305185102
1621785887335.177,-0.04,-0.161,-0.229,-2.4656069867764403,-6.075614571291624,-7.4739040516536495
1621785887340.534,-0.04,-0.204,-0.239,-2.3656934615276173,-6.017769898779147,-7.349553472241802
1621785887341.161,-0.04046848490376722,-0.20868484903767215,-0.24063969716318526,-2.354,-6.011,-7.335
1621785887345.887,-0.044,-0.244,-0.253,-2.2386371236513587,-5.901104558549399,-7.303015505846466
1621785887351.238,-0.049,-0.278,-0.283,-2.108018076032311,-5.776675987120827,-7.266801220132181
1621785887356.585,-0.042,-0.307,-0.3,-1.9775003389256058,-5.652343924758515,-7.230615022877478
1621785887358.449,-0.044441637352094665,-0.30839522134405406,-0.30418566403216224,-1.932,-5.609,-7.218
1621785887361.929,-0.049,-0.311,-0.312,-1.789911172856304,-5.601038126065224,-7.111841680869652
1621785887367.101,-0.054,-0.312,-0.318,-1.578731728276593,-5.589204795118947,-6.954063934919294
1621785887372.415,-0.077,-0.298,-0.316,-1.3617606737228054,-5.577046934303433,-6.791959124045775
1621785887375.495,-0.09208396946564885,-0.2892977099236641,-0.31193893129770994,-1.236,-5.57,-6.698
1621785887377.724,-0.103,-0.283,-0.309,-1.1887953681151988,-5.580273184349585,-6.666140124485465
1621785887383.031,-0.131,-0.264,-0.298,-1.0764090501217791,-5.604731914711789,-6.590287099944452
1621785887388.334,-0.15,-0.232,-0.295,-0.9641054565653976,-5.629172641684114,-6.514489908701164
1621785887392.636,-0.1597384976742044,-0.20927683876018974,-0.2876961267443467,-0.873,-5.649,-6.453
1621785887393.635,-0.162,-0.204,-0.286,-0.8563535070941221,-5.651277941134489,-6.462695852008336
1621785887398.931,-0.171,-0.176,-0.284,-0.7681091952382312,-5.663353478546347,-6.514094293299838
1621785887404.224,-0.175,-0.136,-0.279,-0.6799096320191841,-5.675422892460532,-6.565466670473037
1621785887409.513,-0.185,-0.087,-0.272,-0.5917832938422449,-5.687482286105798,-6.616796397270832
1621785887409.74,-0.1852146814404432,-0.08558310249307478,-0.27165650969529087,-0.588,-5.688,-6.619
1621785887414.801,-0.19,-0.054,-0.264,-0.4922295644711435,-5.801264106414933,-6.718031967388972
1621785887420.083,-0.187,-0.021,-0.253,-0.39227812343560037,-5.9194729314167205,-6.821387327469069
1621785887425.363,-0.183,0.01,-0.244,-0.2923636415647572,-6.037638046198956,-6.924704469713223
1621785887426.809,-0.17971096714484036,0.020689356779268857,-0.24071096714484036,-0.265,-6.07,-6.953
1621785887430.639,-0.171,0.049,-0.232,-0.2252063919742028,-6.164875155858115,-7.025842536725189
1621785887435.912,-0.154,0.065,-0.215,-0.17041566463633107,-6.295506155499821,-7.12613742744536
1621785887441.182,-0.138,0.086,-0.201,-0.1156604514510928,-6.42605248298101,-7.226367309208169
1621785887443.844,-0.1263731108020399,0.09206620305980528,-0.19442828001854429,-0.088,-6.492,-7.277
1621785887446.448,-0.115,0.098,-0.188,-0.061042449307829275,-6.538563042104658,-7.3235630421046585
1621785887451.711,-0.086,0.117,-0.18,-0.006558676546613823,-6.632671376874031,-7.417671376874031
1621785887456.97,-0.056,0.136,-0.155,0.047884657361135036,-6.726709862714688,-7.511709862714688
1621785887460.845,-0.02872725583987368,0.13968550596758464,-0.14394348209724608,0.088,-6.796,-7.581
1621785887462.227,-0.019,0.141,-0.14,0.0784386043423028,-6.8088302488740045,-7.592195822265851
1621785887467.48,0.021,0.155,-0.129,0.04209820706779074,-6.8575947135927935,-7.634748253262502
1621785887472.685,0.065,0.154,-0.12,0.006088852638872849,-6.905914958424761,-7.676913052892944
1621785887477.757,0.1105018873200056,0.1685218789319167,-0.11225499790297777,-0.029,-6.953,-7.718
1621785887477.924,0.112,0.169,-0.112,-0.028713580246913582,-6.951834567901235,-7.7186716049382715
1621785887483.16,0.154,0.188,-0.099,-0.01973323225759873,-6.915293841599885,-7.739728972637354
1621785887488.393,0.199,0.211,-0.091,-0.010757490433903689,-6.8787718576276085,-7.760775539672226
1621785887493.622,0.25,0.234,-0.079,-0.001788867229802902,-6.842278839072991,-7.781805414771497
1621785887494.665,0.25678697257137517,0.23719386944535303,-0.07540689687397785,0.0,-6.835,-7.786
1621785887498.847,0.284,0.25,-0.061,-0.0024784407917583053,-6.78146567889802,-7.710655399930547
1621785887504.07,0.304,0.26,-0.052,-0.005573995832851024,-6.714601690010418,-7.616550526681329
1621785887509.288,0.318,0.278,-0.049,-0.00866651232781572,-6.64780333371918,-7.522538025234402
1621785887511.538,0.32317752808988764,0.28360898876404494,-0.049,-0.01,-6.619,-7.482
1621785887514.503,0.33,0.291,-0.049,-0.008238979118329466,-6.650170069605569,-7.414729002320186
1621785887519.715,0.332,0.298,-0.054,-0.005143126450116009,-6.704966661832946,-7.296467430394432
1621785887524.924,0.337,0.305,-0.054,-0.002049158932714616,-6.759729886890952,-7.178277871229698
1621785887528.374,0.337,0.3136184846352334,-0.050685198217217925,0.0,-6.796,-7.1
1621785887530.128,0.337,0.318,-0.049,-0.04197322868977545,-6.769375190756486,-7.072331080590073
1621785887535.329,0.328,0.326,-0.044,-0.16644395029431003,-6.6904198822759975,-6.990279485502507
1621785887540.527,0.304,0.325,-0.045,-0.290838718116416,-6.611512753433617,-6.908277959450621
1621785887545.172,0.2861167402951405,0.3106933922361124,-0.057518281793401634,-0.402,-6.541,-6.835
1621785887545.722,0.284,0.309,-0.059,-0.4155156741638504,-6.541,-6.822468476867498
1621785887550.913,0.274,0.291,-0.08,-0.5431283649924251,-6.541,-6.704147972264305
1621785887556.1,0.267,0.264,-0.091,-0.6706390280853047,-6.541,-6.585922066192752
1621785887561.283,0.265,0.253,-0.106,-0.7980476634424891,-6.541,-6.467790758652838
1621785887561.932,0.2641234335249223,0.25187298596061436,-0.10712701403938565,-0.814,-6.541,-6.453
1621785887566.465,0.258,0.244,-0.115,-0.8351363357753714,-6.464042059484545,-6.378480867458626
1621785887571.642,0.241,0.225,-0.133,-0.8592744228131111,-6.376154665654826,-6.293378637517877
1621785887576.815,0.222,0.199,-0.145,-0.8833931584016812,-6.288337730947725,-6.208344633840227
1621785887578.661,0.20811288499576153,0.19045408307431477,-0.14749255910332484,-0.892,-6.257,-6.178
1621785887581.999,0.183,0.175,-0.152,-0.8666689180318303,-6.1845969861854675,-6.18577883619495
1621785887587.181,0.154,0.159,-0.155,-0.8273467345480008,-6.072203658589955,-6.197854152382897
1621785887592.358,0.134,0.127,-0.159,-0.7880616037694563,-5.959916237545769,-6.2099180901810325
1621785887595.397,0.12401670047648253,0.1087951596924093,-0.16076175873944426,-0.765,-5.894,-6.217
1621785887597.533,0.117,0.096,-0.162,-0.7010565397883413,-5.860109966087821,-6.2295329182014845
1621785887602.704,0.106,0.068,-0.159,-0.5462518271648249,-5.778063468397357,-6.259874641875694
1621785887607.872,0.091,0.038,-0.155,-0.39154212711220254,-5.696067327369467,-6.290197743086009
1621785887612.099,0.0664480998298355,0.01999527320854604,-0.14517923993193418,-0.265,-5.629,-6.315
1621785887613.037,0.061,0.016,-0.143,-0.2191895470791586,-5.626805150290033,-6.32276639128142
1621785887618.198,0.026,0.0,-0.119,0.03286333274740727,-5.614728906661979,-6.365497714888382
1621785887623.355,-0.019,-0.016,-0.089,0.28472543505009673,-5.602661803480401,-6.408196695377044
1621785887628.511,-0.063,-0.021,-0.047,0.536539842971817,-5.590596985410441,-6.450887590086132
1621785887628.766,-0.06512972178776245,-0.021346698895682262,-0.0452665055215887,0.549,-5.59,-6.453
1621785887633.662,-0.106,-0.028,-0.012,0.6329017909571345,-5.65623825601879,-6.594308279506753
1621785887638.81,-0.152,-0.03,0.024,0.7211212566059895,-5.725885202583676,-6.742888432178509
1621785887643.954,-0.185,-0.031,0.066,0.8092737815619495,-5.795479301233119,-6.891355842630651
1621785887645.397,-0.18948981529841888,-0.03212245382460472,0.0758214709652913,0.834,-5.815,-6.933
1621785887649.096,-0.201,-0.035,0.101,0.7441895537316506,-5.884976377489483,-7.0292732327243845
1621785887654.234,-0.208,-0.031,0.126,0.6194412967375635,-5.982174771276439,-7.162998411437649
1621785887659.369,-0.216,-0.049,0.147,0.49476417203541906,-6.079317741888035,-7.296647339158062
1621785887661.995,-0.21344088119141646,-0.05258276633201694,0.15109459009373363,0.431,-6.129,-7.365
1621785887664.5,-0.211,-0.056,0.155,0.3850249403024675,-6.169076943486336,-7.424283629609977
1621785887669.629,-0.201,-0.065,0.162,0.29088809292178885,-6.251137024262256,-7.545670617021904
1621785887674.753,-0.194,-0.063,0.166,0.19684086554052063,-6.333118982341323,-7.666942041803012
1621785887678.558,-0.18211363203050523,-0.063,0.166,0.127,-6.394,-7.757
1621785887679.875,-0.178,-0.063,0.166,0.08104692981163222,-6.419759160451611,-7.77957901718598
1621785887685.005,-0.161,-0.056,0.171,-0.09796046929811633,-6.520102408395484,-7.86753420982814
1621785887690.133,-0.15,-0.042,0.164,-0.2769082333520031,-6.6204122276921265,-7.9554601008165555
1621785887695.122,-0.12955331618067467,-0.033237135506003435,0.15523713550600343,-0.451,-6.718,-8.041
1621785887695.257,-0.129,-0.033,0.155,-0.45428257755858426,-6.7203190348921344,-8.042845429174728
1621785887700.378,-0.098,-0.031,0.145,-0.578789022931648,-6.808278812220368,-8.112841590006349
1621785887705.495,-0.056,-0.021,0.133,-0.7032064291304283,-6.896175686251347,-8.182787693988749
1621785887710.611,-0.007,-0.017,0.105,-0.8275941556044475,-6.9840515925165745,-8.25271711235474
1621785887711.656,0.005471577338301327,-0.018431164612591956,0.10029760198719785,-0.853,-7.002,-8.267
1621785887715.722,0.054,-0.024,0.082,-0.7975622262989703,-6.992390785891821,-8.21624363830039
1621785887720.83,0.115,-0.023,0.075,-0.7279138211622678,-6.980318395668126,-8.152476654041898
1621785887725.935,0.169,-0.016,0.061,-0.6583086903775595,-6.96825350633211,-8.088749289856787
1621785887728.158,0.19426988228538616,-0.013385874246339363,0.05664312374389893,-0.628,-6.963,-8.061
1621785887731.037,0.227,-0.01,0.051,-0.5970564211275331,-6.884155061743036,-7.916946276887499
1621785887736.136,0.267,-0.021,0.049,-0.5422564003735713,-6.744523370443393,-7.6618320559764
1621785887741.231,0.3,-0.012,0.051,-0.48749836191944496,-6.604998650992484,-7.406913278088264
1621785887744.627,0.3080030685141679,-0.008665388119096706,0.05300076712854197,-0.451,-6.512,-7.237
1621785887746.323,0.312,-0.007,0.054,-0.4530639353516147,-6.460298419442051,-7.1459804509937905
1621785887751.413,0.309,-0.012,0.056,-0.45925811818532936,-6.3051341394575005,-6.872816988026977
1621785887756.499,0.302,-0.017,0.059,-0.46544725036394424,-6.150096378383196,-6.599876258950058
1621785887761.062,0.28045119139123753,-0.022387202152190623,0.07067227132974635,-0.471,-6.011,-6.355
1621785887761.581,0.278,-0.023,0.072,-0.4790694520935355,-6.005430495809952,-6.341012949704539
1621785887766.661,0.246,-0.03,0.08,-0.5580445648452733,-5.950922182695027,-6.204122754268194
1621785887771.738,0.206,-0.028,0.093,-0.6369779259634134,-5.896442686393879,-6.067304928330084
1621785887776.81,0.164,-0.033,0.105,-0.7158315794174122,-5.842018204009943,-5.930625262343153
1621785887777.464,0.15858162380814794,-0.03274198208610228,0.10538702687084657,-0.726,-5.835,-5.913
1621785887781.88,0.122,-0.031,0.108,-0.855054584373885,-5.86672591865858,-5.955211603638959
1621785887786.983,0.091,-0.035,0.11,-1.004194791295041,-5.903389552860031,-6.0039928796527535
1621785887792.062,0.063,-0.03,0.113,-1.1526357474134854,-5.939881287905815,-6.0525454423831615
1621785887793.888,0.0536454033771107,-0.035037090489248086,0.11120103911098282,-1.206,-5.953,-6.07
1621785887797.137,0.037,-0.044,0.108,-1.2916674365584346,-6.013284492392973,-6.190568984785945
1621785887802.209,0.024,-0.045,0.101,-1.4254021070199228,-6.107394075310316,-6.3787881506206325
1621785887807.279,0.017,-0.045,0.086,-1.559085279172689,-6.201467418677077,-6.566934837354156
1621785887810.272,0.021135566265060243,-0.05149874698795181,0.07772886746987952,-1.638,-6.257,-6.678
1621785887812.345,0.024,-0.056,0.072,-1.660313375339684,-6.293005673843581,-6.751405933645892
1621785887817.408,0.044,-0.066,0.052,-1.714810463762057,-6.380944157434228,-6.930688968853585
1621785887822.468,0.079,-0.079,0.04,-1.7692760175590527,-6.4688317556066535,-7.109868262310747
1621785887826.623,0.10283268144285093,-0.09132724902216427,0.026029117774880487,-1.814,-6.541,-7.257
1621785887827.524,0.108,-0.094,0.023,-1.804283371734642,-6.545306232981239,-7.2602572787935005
1621785887832.579,0.147,-0.117,0.002,-1.749759657679763,-6.569470151710105,-7.278535114755079
1621785887837.629,0.188,-0.131,-0.003,-1.6952938747419133,-6.593608396421198,-7.2967935306262905
1621785887842.677,0.22,-0.145,-0.019,-1.640846524432209,-6.617738472126634,-7.315045767377839
1621785887842.941,0.22172666989351403,-0.14599414327202323,-0.019627879961277832,-1.638,-6.619,-7.316
1621785887847.721,0.253,-0.164,-0.031,-1.594860228430961,-6.558839094070388,-7.212405854667546
1621785887852.764,0.272,-0.183,-0.037,-1.5493474279033514,-6.495368862042088,-7.103113211223694
1621785887857.802,0.293,-0.197,-0.045,-1.5038786947658733,-6.431960084537442,-6.993926389471791
1621785887859.229,0.29498394995878385,-0.19898394995878388,-0.046133685690733645,-1.491,-6.414,-6.963
1621785887862.837,0.3,-0.204,-0.049,-1.4779062157413387,-6.357408220576972,-6.862910225412605
1621785887867.869,0.297,-0.223,-0.052,-1.4596442054994068,-6.278479193260148,-6.723314181020889
1621785887872.9,0.284,-0.232,-0.058,-1.4413857393863851,-6.199565483788613,-6.583745228190842
1621785887875.486,0.27370903968523824,-0.2356018361101666,-0.05594180793704765,-1.432,-6.159,-6.512
1621785887877.926,0.264,-0.239,-0.054,-1.423164498921122,-6.145671871253896,-6.46782249460561
1621785887882.949,0.239,-0.243,-0.049,-1.4049754255574203,-6.1182341165188205,-6.376877127787101
1621785887888.022,0.204,-0.241,-0.044,-1.386605115679693,-6.090522971110046,-6.285025578398465
1621785887891.779,0.17940026157721373,-0.23801821352451075,-0.044,-1.373,-6.07,-6.217
1621785887893.062,0.171,-0.237,-0.044,-1.373,-6.0746541423360405,-6.23254010237627
1621785887898.097,0.136,-0.236,-0.031,-1.373,-6.092919104733026,-6.2935265022441715
1621785887903.13,0.105,-0.232,-0.03,-1.373,-6.111176981851479,-6.354489244487143
1621785887908.043,0.0893719846624278,-0.22223249041401738,-0.02609299616560695,-1.373,-6.129,-6.414
1621785887908.16,0.089,-0.222,-0.026,-1.373425041359603,-6.1288631222740255,-6.416045961798766
1621785887913.188,0.072,-0.22,-0.024,-1.391700045119567,-6.122977951571665,-6.504013776507746
1621785887918.212,0.068,-0.218,-0.028,-1.4099599639043465,-6.117097638742668,-6.591908978793803
1621785887923.233,0.061,-0.213,-0.033,-1.428209234471349,-6.111220755000752,-6.679752925251918
1621785887924.276,0.05996078622166002,-0.21445489928967598,-0.03258431448866401,-1.432,-6.11,-6.698
1621785887928.251,0.056,-0.22,-0.031,-1.4126213390382065,-6.126680366397493,-6.673960648427142
1621785887933.268,0.044,-0.213,-0.038,-1.3881629504640232,-6.147733156562613,-6.64361986260094
1621785887938.28,0.031,-0.199,-0.038,-1.3637295558635651,-6.168764432927564,-6.613310081957334
1621785887940.481,0.02660693923298085,-0.19416763315627894,-0.03668208176989426,-1.353,-6.178,-6.6
1621785887943.29,0.021,-0.188,-0.035,-1.3599467043001827,-6.178,-6.596526647849909
1621785887948.298,0.005,-0.183,-0.035,-1.3723313510331607,-6.178,-6.590334324483419
1621785887953.302,-0.009,-0.166,-0.035,-1.3847057340799662,-6.178,-6.584147132960017
1621785887956.656,-0.01101240234375,-0.157950390625,-0.0336583984375,-1.393,-6.178,-6.58
1621785887958.302,-0.012,-0.154,-0.033,-1.4089052717539243,-6.187991773281311,-6.583976317938481
1621785887963.301,-0.019,-0.145,-0.04,-1.457210870156973,-6.218337597919124,-6.596052717539243
1621785887968.296,-0.028,-0.129,-0.038,-1.505476363306415,-6.248658228230953,-6.608119090826603
1621785887972.8,-0.0343132088384826,-0.1226867911615174,-0.038,-1.549,-6.276,-6.619
1621785887973.29,-0.035,-0.122,-0.038,-1.554058314845837,-6.27718128310771,-6.619605786209082
1621785887978.279,-0.033,-0.115,-0.037,-1.605561386034017,-6.289208946439082,-6.625773818686708
1621785887983.266,-0.037,-0.115,-0.035,-1.6570442945322286,-6.301231901118305,-6.631939436470926
1621785887988.31,-0.042,-0.119,-0.042,-1.7091144413757715,-6.313391995291348,-6.638175382200691
1621785887988.977,-0.042666211470932504,-0.120332422941865,-0.043332422941865005,-1.716,-6.315,-6.639
1621785887993.316,-0.047,-0.129,-0.052,-1.7001587527005182,-6.299427248417459,-6.66021116163829
1621785887998.318,-0.051,-0.138,-0.056,-1.6818956806816636,-6.281473719992144,-6.684665105527942
1621785888003.318,-0.059,-0.138,-0.07,-1.6636406309014822,-6.263528077835355,-6.709108307775981
1621785888005.137,-0.058636070538811,-0.139091788383567,-0.070727858922378,-1.657,-6.257,-6.718
1621785888008.316,-0.058,-0.141,-0.072,-1.6203494347845826,-6.276310512855435,-6.725684795932265
1621785888013.311,-0.061,-0.143,-0.073,-1.5627601125890953,-6.306653274012197,-6.737759976392609
1621785888018.302,-0.052,-0.143,-0.077,-1.5052186407590684,-6.336970823686083,-6.749825123711808
1621785888021.27,-0.04724071446048446,-0.14835419623195498,-0.0811643748470761,-1.471,-6.355,-6.757
1621785888023.291,-0.044,-0.152,-0.084,-1.4635970533846667,-6.359893473186407,-6.761893473186406
1621785888028.279,-0.042,-0.14,-0.087,-1.4453257798526693,-6.371971094673659,-6.7739710946736595
1621785888033.262,-0.042,-0.133,-0.086,-1.4270732864461757,-6.384036302179647,-6.786036302179647
1621785888037.377,-0.040347711008724634,-0.13134771100872464,-0.086,-1.412,-6.394,-6.796
1621785888038.243,-0.04,-0.131,-0.086,-1.419379259551722,-6.388721405576141,-6.798100665127863
1621785888043.221,-0.033,-0.124,-0.087,-1.4617990797546012,-6.358377300613497,-6.810176380368098
1621785888048.198,-0.038,-0.115,-0.094,-1.5042105782664155,-6.328039148393367,-6.822249726659782
1621785888053.171,-0.038,-0.12,-0.093,-1.5465867095912045,-6.2977262953289195,-6.834313004920124
1621785888053.454,-0.03834188034188034,-0.1203988603988604,-0.09345584045584046,-1.549,-6.296,-6.835
1621785888058.141,-0.044,-0.127,-0.101,-1.5720717110867712,-6.290159060484362,-6.846389832055495
1621785888063.109,-0.042,-0.126,-0.094,-1.596525465498357,-6.2839682365826945,-6.858461938663746
1621785888068.074,-0.04,-0.126,-0.108,-1.6209660003650967,-6.277780759401241,-6.870527519167579
1621785888069.503,-0.03913625854690344,-0.12743956908849427,-0.10915165527079541,-1.628,-6.276,-6.874
1621785888073.037,-0.037,-0.131,-0.112,-1.6302061019842116,-6.271808406229997,-6.8784122039684235
1621785888077.996,-0.04,-0.138,-0.112,-1.6333015940747964,-6.265926971257886,-6.884603188149593
1621785888082.953,-0.04,-0.143,-0.117,-1.6363957145905086,-6.260048142278033,-6.890791429181017
1621785888085.523,-0.037414021813894076,-0.14403439127444237,-0.117,-1.638,-6.257,-6.894
1621785888087.922,-0.035,-0.145,-0.117,-1.6277096353178637,-6.262816293081207,-6.902799007481827
1621785888092.903,-0.035,-0.15,-0.12,-1.6063456361070219,-6.274891596982988,-6.9210667749229815
1621785888097.881,-0.033,-0.157,-0.115,-1.5849942027225956,-6.286959798461142,-6.9393237976719835
1621785888101.61,-0.03599769393062165,-0.15999769393062166,-0.11799769393062165,-1.569,-6.296,-6.953
1621785888102.857,-0.037,-0.161,-0.119,-1.564419730941704,-6.299027635479213,-6.956803952268754
1621785888107.831,-0.037,-0.168,-0.119,-1.5461470852017938,-6.3111061640191535,-6.97197953940868
1621785888112.802,-0.04,-0.168,-0.12,-1.5278860986547085,-6.3231769856350235,-6.987145443490157
1621785888117.671,-0.04392019263845889,-0.16407980736154112,-0.11901995184038527,-1.51,-6.335,-7.002
1621785888117.77,-0.044,-0.164,-0.119,-1.5093942143727161,-6.335241077953715,-7.002605785627283
1621785888122.736,-0.035,-0.164,-0.113,-1.4790437576126674,-6.347319320950061,-7.032956242387332
1621785888127.701,-0.033,-0.176,-0.117,-1.4487007612667477,-6.35939459500609,-7.063299238733252
1621785888132.662,-0.026,-0.171,-0.113,-1.4183801461632155,-6.371460962241169,-7.093619853836784
1621785888133.706,-0.023473311010439236,-0.17247390191057713,-0.11384222966318693,-1.412,-6.374,-7.1
1621785888137.62,-0.014,-0.178,-0.117,-1.3785027070719393,-6.393315957235889,-7.1
1621785888142.577,-0.002,-0.169,-0.117,-1.3360815781848128,-6.41777777608321,-7.1
1621785888147.531,0.009,-0.161,-0.113,-1.2936834327197302,-6.44222634171636,-7.1
1621785888149.714,0.01737802652990779,-0.161440948764732,-0.11167715370580404,-1.275,-6.453,-7.1
1621785888152.482,0.028,-0.162,-0.11,-1.2562983656636626,-6.456290102336949,-7.076276630517794
1621785888157.431,0.04,-0.148,-0.11,-1.2228591110432259,-6.462172934168322,-7.033858316786314
1621785888162.378,0.052,-0.15,-0.103,-1.1894330533068582,-6.468053444325646,-6.991456743546663
1621785888165.698,0.06140131351538196,-0.14328477606044146,-0.1016569552120883,-1.167,-6.472,-6.963
1621785888167.322,0.066,-0.14,-0.101,-1.154991310201334,-6.464062052505967,-6.943969279725843
1621785888172.263,0.077,-0.136,-0.098,-1.1184561532341961,-6.43991169451074,-6.8860703445321585
1621785888177.202,0.08,-0.126,-0.093,-1.081935438467658,-6.4157708830548925,-6.8281942965546785
1621785888181.656,0.07909781426169518,-0.11336939966373256,-0.08668469983186627,-1.049,-6.394,-6.776
1621785888182.139,0.079,-0.112,-0.086,-1.0472116554545872,-6.392211655454587,-6.77005905879829
1621785888187.073,0.08,-0.106,-0.082,-1.028939439447109,-6.373939439447109,-6.709358137824295
1621785888192.005,0.072,-0.089,-0.068,-1.0106753604977243,-6.355675360497725,-6.648684248433118
1621785888196.934,0.063,-0.079,-0.066,-0.9924212268415649,-6.337421226841565,-6.5880433976431645
1621785888197.588,0.06114221297259799,-0.07780570833952728,-0.06400951389921214,-0.99,-6.335,-6.58
1621785888201.861,0.049,-0.07,-0.051,-0.9848949695285756,-6.34037371628571,-6.561729364628587
1621785888206.785,0.038,-0.049,-0.045,-0.9790126490950678,-6.346565632531508,-6.540676849392874
1621785888211.707,0.023,-0.042,-0.035,-0.9731323703237492,-6.352755399659212,-6.519631641158681
1621785888213.492,0.01900927947598253,-0.03764648670107185,-0.031009279475982535,-0.971,-6.355,-6.512
1621785888216.627,0.012,-0.03,-0.024,-0.9826476131908678,-6.366647613190868,-6.517725098009071
1621785888221.543,0.0,-0.019,-0.016,-1.000912260742563,-6.384912260742563,-6.526702636636175
1621785888226.458,-0.005,-0.005,-0.009,-1.0191732800368976,-6.4031732800368975,-6.535678391882543
1621785888229.372,-0.010339165009940358,-0.000254075546719682,-0.004847316103379721,-1.03,-6.414,-6.541
1621785888231.37,-0.014,0.003,-0.002,-1.0447461730372378,-6.414,-6.550830782024826
1621785888236.279,-0.016,0.009,0.005,-1.0809755597991808,-6.414,-6.574983706532787
1621785888241.187,-0.019,0.017,0.005,-1.1171977392429235,-6.414,-6.599131826161949
1621785888245.225,-0.024763926917907103,0.017,0.006646836262259172,-1.147,-6.414,-6.619
1621785888246.091,-0.026,0.017,0.007,-1.1513222069688884,-6.414,-6.6244164365812646
1621785888250.993,-0.031,0.033,0.01,-1.175788311147445,-6.414,-6.655076491184772
1621785888255.893,-0.03,0.042,0.01,-1.2002458854560318,-6.414,-6.685725856457559
1621785888260.79,-0.031,0.035,0.012,-1.2246876185775324,-6.414,-6.7163553701161485
1621785888261.053,-0.030838852867830422,0.03526857855361596,0.012,-1.226,-6.414,-6.718
1621785888265.685,-0.028,0.04,0.012,-1.228931324835844,-6.431001684047895,-6.712137350328312
1621785888270.577,-0.026,0.049,0.014,-1.2320270374662032,-6.448956817303978,-6.705945925067594
1621785888275.468,-0.024,0.049,0.019,-1.2351222865971418,-6.466909262263423,-6.699755426805717
1621785888276.855,-0.025135235050207323,0.05098666133786282,0.019,-1.236,-6.472,-6.698
1621785888280.355,-0.028,0.056,0.019,-1.2402144481750244,-6.480872522473736,-6.698
1621785888285.24,-0.03,0.059,0.019,-1.2460966254583714,-6.493256053596571,-6.698
1621785888290.122,-0.031,0.066,0.024,-1.2519752750228217,-6.505632157942783,-6.698
1621785888292.634,-0.027396688012807684,0.06342620572343406,0.024,-1.255,-6.512,-6.698
1621785888295.002,-0.024,0.061,0.024,-1.263869203347799,-6.512,-6.706869203347799
1621785888299.88,-0.028,0.056,0.026,-1.2821398171109732,-6.512,-6.725139817110973
1621785888304.754,-0.019,0.054,0.026,-1.3003957997520148,-6.512,-6.743395799752014
1621785888308.386,-0.02049068136272545,0.059217384769539076,0.024509318637274548,-1.314,-6.512,-6.757
1621785888309.627,-0.021,0.061,0.024,-1.3109224547458627,-6.50884354332909,-6.757
1621785888314.498,-0.016,0.052,0.024,-1.2988423479367839,-6.496453690191573,-6.757
1621785888319.365,-0.01,0.051,0.023,-1.2867725339211973,-6.484074393765331,-6.757
1621785888324.112,-0.0021939077633361774,0.05197576152958298,0.023,-1.275,-6.472,-6.757
1621785888324.23,-0.002,0.052,0.023,-1.2748498017569774,-6.471707113426106,-6.756707113426105
1621785888329.094,0.002,0.045,0.024,-1.2686543574593796,-6.459625997045791,-6.74462599704579
1621785888333.954,0.0,0.044,0.026,-1.2624638886729378,-6.447554582912229,-6.732554582912229
1621785888338.812,0.0,0.04,0.026,-1.2562762186115213,-6.435488626292466,-6.720488626292466
1621785888339.814,0.0,0.04144463441617218,0.024968118274162728,-1.255,-6.433,-6.718
1621785888343.667,0.0,0.047,0.021,-1.2382872471306432,-6.428330260227679,-6.708168968900378
1621785888348.52,0.002,0.044,0.026,-1.2172369302166228,-6.422448554031115,-6.69578642953919
1621785888353.37,0.0,0.042,0.03,-1.1961993210097643,-6.416570398517434,-6.683411365299861
1621785888355.491,-0.0030623457722717433,0.04331243390240218,0.030437477967467392,-1.187,-6.414,-6.678
1621785888358.218,-0.007,0.045,0.031,-1.1767183999500765,-6.410514711847483,-6.681485288152516
1621785888363.064,-0.012,0.047,0.028,-1.1584480795032606,-6.404321382882461,-6.687678617117539
1621785888367.907,-0.012,0.047,0.033,-1.1401888046428905,-6.398131798184031,-6.693868201815969
1621785888371.14,-0.01533904886781986,0.051674668414947805,0.033,-1.128,-6.394,-6.698
1621785888372.748,-0.017,0.054,0.033,-1.125941433839615,-6.396058566160385,-6.706028408025502
1621785888377.586,-0.014,0.049,0.035,-1.119748546784174,-6.402251453215826,-6.730180667541721
1621785888382.422,-0.021,0.061,0.033,-1.1135578473654604,-6.40844215263454,-6.754324395274705
1621785888386.764,-0.029085678201566052,0.05201591310937105,0.03928886082344026,-1.108,-6.414,-6.776
1621785888387.255,-0.03,0.051,0.04,-1.1092274861489342,-6.415227486148934,-6.776629480076377
1621785888392.085,-0.026,0.059,0.044,-1.121303361818011,-6.427303361818011,-6.782822236829749
1621785888396.914,-0.026,0.056,0.04,-1.133376795943281,-6.439376795943281,-6.789013741509375
1621785888401.74,-0.023,0.061,0.049,-1.1454422950511784,-6.451442295051179,-6.795201176949322
1621785888402.363,-0.022741635029106554,0.06190427739812705,0.049,-1.147,-6.453,-6.796
1621785888406.563,-0.021,0.068,0.049,-1.1418758054148965,-6.442481916377946,-6.796
1621785888411.384,-0.016,0.065,0.044,-1.135993838869989,-6.430408406101557,-6.796
1621785888416.202,-0.012,0.068,0.047,-1.130115744587455,-6.418342844153197,-6.796
1621785888417.936,-0.010920024327200852,0.06548005676346866,0.0484399675637322,-1.128,-6.414,-6.796
1621785888421.019,-0.009,0.061,0.051,-1.1357333710194082,-6.3983349663965825,-6.784300797688588
1621785888425.832,-0.005,0.059,0.049,-1.1478061993593367,-6.3738797500157025,-6.766036775328183
1621785888430.643,-0.01,0.059,0.052,-1.1598741285095158,-6.349434457634571,-6.747780164562528
1621785888433.484,-0.01118149972076966,0.06549824846423313,0.04904625069807585,-1.167,-6.335,-6.737
1621785888435.452,-0.012,0.07,0.047,-1.167,-6.327520028938553,-6.729520028938553
1621785888440.258,-0.016,0.073,0.051,-1.167,-6.309252976424516,-6.711252976424516
1621785888445.062,-0.017,0.072,0.051,-1.167,-6.2909942751993455,-6.692994275199346
1621785888449.007,-0.022751995931858632,0.06871314518179507,0.049356572590897534,-1.167,-6.276,-6.678
1621785888449.863,-0.024,0.068,0.049,-1.1658952434970302,-6.27710475650297,-6.674740968316239
1621785888454.662,-0.03,0.077,0.054,-1.1597012336342583,-6.283298766365742,-6.656468639221061
1621785888459.458,-0.038,0.079,0.049,-1.1535113201304532,-6.289488679869547,-6.638208394384837
1621785888464.252,-0.044,0.082,0.052,-1.1473239274629359,-6.295676072537065,-6.61995558601566
1621785888464.503,-0.04426192417448022,0.08236669384427232,0.051947615165103954,-1.147,-6.296,-6.619
1621785888469.043,-0.049,0.089,0.051,-1.1587380463941928,-6.3074445952343385,-6.636313618431434
1621785888473.833,-0.056,0.089,0.049,-1.171122455420546,-6.319519394035033,-6.654580621745305
1621785888478.619,-0.063,0.091,0.049,-1.1834961338172638,-6.331583730471832,-6.672831797380464
1621785888479.974,-0.06384981628903857,0.091,0.05041636048173097,-1.187,-6.335,-6.678
1621785888483.403,-0.066,0.091,0.054,-1.1956585153804813,-6.339440264297683,-6.699757295058645
1621785888488.185,-0.066,0.093,0.049,-1.207733584142139,-6.345632607252379,-6.730099775536657
1621785888492.964,-0.066,0.087,0.051,-1.219801255097847,-6.351821156460435,-6.760423666656128
1621785888495.419,-0.0654859932522237,0.0864859932522237,0.051,-1.226,-6.355,-6.776
1621785888497.74,-0.065,0.086,0.051,-1.2333750178104963,-6.351989788648777,-6.78789033483733
1621785888502.514,-0.065,0.089,0.047,-1.2485439563049157,-6.345798385181667,-6.812346378532415
1621785888507.287,-0.061,0.082,0.047,-1.2637105675611493,-6.339607931607694,-6.836798670149609
1621785888510.84,-0.0595099063123944,0.09019551528183074,0.04178467209338044,-1.275,-6.335,-6.855
1621785888512.056,-0.059,0.093,0.04,-1.2765004281500745,-6.335,-6.855
1621785888516.822,-0.054,0.086,0.04,-1.2823822270146839,-6.335,-6.855
1621785888521.586,-0.056,0.068,0.038,-1.2882613142621546,-6.335,-6.855
1621785888526.236,-0.0520949256791389,0.06604746283956946,0.03116611993849308,-1.294,-6.335,-6.855
1621785888526.349,-0.052,0.066,0.031,-1.2938602475098098,-6.335286860374601,-6.8551397524901905
1621785888531.108,-0.054,0.066,0.031,-1.2879767582251735,-6.347363496274643,-6.861023241774826
1621785888535.865,-0.052,0.058,0.03,-1.2820953818291578,-6.359435795192781,-6.866904618170842
1621785888540.62,-0.054,0.063,0.03,-1.2762164201629942,-6.371503137560169,-6.872783579837005
1621785888541.604,-0.0533788532675709,0.0615506576243321,0.0295859021783806,-1.275,-6.374,-6.874
1621785888545.372,-0.051,0.056,0.028,-1.2845785554017282,-6.3884906350949215,-6.874
1621785888550.121,-0.054,0.054,0.023,-1.2966507375757865,-6.4067536799223435,-6.874
1621785888554.868,-0.044,0.042,0.023,-1.3087173342244713,-6.425008274852405,-6.874
1621785888556.946,-0.04005844824037868,0.038934348631405644,0.019058448240378677,-1.314,-6.433,-6.874
1621785888559.613,-0.035,0.035,0.014,-1.314,-6.433,-6.88427379092677
1621785888564.355,-0.031,0.042,0.014,-1.314,-6.433,-6.90254071157586
1621785888569.094,-0.023,0.031,0.01,-1.314,-6.433,-6.920796346478784
1621785888572.262,-0.01698113693758697,0.026318662062567645,0.0046498995000773076,-1.314,-6.433,-6.933
1621785888573.831,-0.014,0.024,0.002,-1.311947563390177,-6.42499549722169,-6.918940809222712
1621785888578.567,-0.007,0.017,0.003,-1.305752890081114,-6.4008362713163445,-6.87650729705563
1621785888583.299,-0.007,0.016,-0.002,-1.2995630069617423,-6.376695727150795,-6.834106597687935
1621785888587.552,-0.005201713636832869,0.010605140910498606,-0.002,-1.294,-6.355,-6.796
1621785888588.029,-0.005,0.01,-0.002,-1.2918752038890844,-6.3555936930309915,-6.791094220743916
1621785888592.756,-0.01,0.005,-0.005,-1.2708208014839928,-6.361476540761826,-6.742483321073336
1621785888597.481,-0.014,0.005,-0.005,-1.2497761857549492,-6.367356653980234,-6.693895017110692
1621785888602.204,-0.023,0.012,-0.002,-1.2287391818850546,-6.373234640355646,-6.6453242875875524
1621785888602.819,-0.024042578508976148,0.011609033059133944,-0.0021303223136220186,-1.226,-6.374,-6.639
1621785888606.923,-0.031,0.009,-0.003,-1.226,-6.3847716706983,-6.649502378930843
1621785888611.642,-0.037,0.01,-0.005,-1.226,-6.3971574900277135,-6.661578552777021
1621785888616.356,-0.044,0.003,-0.003,-1.226,-6.409529852778623,-6.6736416064591575
1621785888618.059,-0.04580678580678581,0.001915928515928516,-0.002638642838642839,-1.226,-6.414,-6.678
1621785888621.069,-0.049,0.0,-0.002,-1.2220430708004364,-6.417759082739585,-6.701345882277424
1621785888625.779,-0.044,0.002,-0.003,-1.2158514025290454,-6.423641167597406,-6.737876725078632
1621785888630.487,-0.038,0.002,-0.009,-1.209662301816548,-6.429520813274279,-6.774392419282368
1621785888633.273,-0.030894400913289398,-0.005105599086710602,-0.006631466971096466,-1.206,-6.433,-6.796
1621785888635.192,-0.026,-0.01,-0.005,-1.206,-6.433,-6.8034549078866995
1621785888639.895,-0.028,-0.012,-0.007,-1.206,-6.433,-6.821726071440055
1621785888644.596,-0.023,-0.012,-0.007,-1.206,-6.433,-6.839988698839341
1621785888648.46,-0.015596132855138,-0.013645303809969334,-0.007,-1.206,-6.433,-6.855
1621785888649.293,-0.014,-0.014,-0.007,-1.202758951571355,-6.433,-6.849616563626997
1621785888653.989,-0.014,-0.019,-0.009,-1.1844876835394127,-6.433,-6.819267677743431
1621785888658.681,-0.009,-0.017,-0.012,-1.166232563755796,-6.433,-6.788945614374034
1621785888663.372,-0.007,-0.016,-0.009,-1.1479802936630603,-6.433,-6.75862828438949
1621785888663.624,-0.006892511196750339,-0.016053744401624832,-0.008785022393500676,-1.147,-6.433,-6.757
1621785888668.06,-0.005,-0.017,-0.005,-1.1127142165954358,-6.427432223207806,-6.72828199338763
1621785888672.745,-0.014,-0.017,-0.007,-1.076503749697605,-6.421551890976534,-6.697951858721071
1621785888677.428,-0.017,-0.021,-0.005,-1.0403102653011853,-6.4156743165873715,-6.667635948713813
1621785888678.762,-0.018709458754823237,-0.01786599228282407,-0.004430180415058922,-1.03,-6.414,-6.659
1621785888682.11,-0.023,-0.01,-0.003,-1.02556891064476,-6.40513782128952,-6.65456891064476
1621785888686.787,-0.024,-0.012,-0.002,-1.0193791499054912,-6.392758299810982,-6.648379149905491
1621785888691.463,-0.031,-0.009,0.003,-1.0131910047012067,-6.380382009402413,-6.642191004701207
1621785888693.874,-0.03306341081222251,-0.005904883781666231,0.004031705406111256,-1.01,-6.374,-6.639
1621785888696.137,-0.035,-0.003,0.005,-1.0130000647332988,-6.3770000647332985,-6.639
1621785888700.807,-0.044,-0.012,0.009,-1.0191911574313828,-6.383191157431383,-6.639
1621785888705.475,-0.051,-0.007,0.014,-1.0253799844640084,-6.389379984464008,-6.639
1621785888708.96,-0.051746860611134364,-0.004012557555462537,0.01250627877773127,-1.03,-6.394,-6.639
1621785888710.141,-0.052,-0.003,0.012,-1.0330585508186092,-6.394,-6.643627038417896
1621785888714.805,-0.052,0.0,0.012,-1.0451353379802237,-6.394,-6.661897049764954
1621785888719.466,-0.059,-0.002,0.016,-1.0572051710163721,-6.394,-6.680156540768358
1621785888724.021,-0.06486728864196237,0.006800932962943552,0.020889407201635308,-1.069,-6.394,-6.698
1621785888724.124,-0.065,0.007,0.021,-1.069671505350155,-6.394,-6.698267231720981
1621785888728.78,-0.058,0.005,0.021,-1.100018136944485,-6.394,-6.7103439524574995
1621785888733.434,-0.061,0.0,0.028,-1.1303520385795705,-6.394,-6.722415607189829
1621785888738.085,-0.061,0.009,0.03,-1.1606652540308833,-6.394,-6.734479029665351
1621785888739.057,-0.061418216199180586,0.009209108099590293,0.029581783800819415,-1.167,-6.394,-6.737
1621785888742.733,-0.063,0.01,0.028,-1.1525506091312763,-6.394,-6.737
1621785888747.38,-0.063,0.002,0.031,-1.134284705844082,-6.394,-6.737
1621785888752.023,-0.061,0.009,0.033,-1.1160341568939998,-6.394,-6.737
1621785888754.067,-0.060119385715788363,0.007238771431576732,0.035201535710529086,-1.108,-6.394,-6.737
1621785888756.665,-0.059,0.005,0.038,-1.118229524756024,-6.394,-6.740467635510517
1621785888761.303,-0.059,0.016,0.038,-1.1364902165235669,-6.394,-6.746657700516463
1621785888765.94,-0.063,0.012,0.037,-1.1547470633278483,-6.394,-6.752846462145033
1621785888769.052,-0.060313734787419,0.012,0.03901469890943575,-1.167,-6.394,-6.757
1621785888770.574,-0.059,0.012,0.04,-1.167,-6.394,-6.757
1621785888775.205,-0.061,0.007,0.04,-1.167,-6.394,-6.757
1621785888779.833,-0.059,0.007,0.044,-1.167,-6.394,-6.757
1621785888784.011,-0.06080554969402827,0.015124973623127244,0.044,-1.167,-6.394,-6.757
1621785888784.461,-0.061,0.016,0.044,-1.167,-6.392222002387299,-6.7563972889448465
1621785888789.084,-0.061,0.017,0.049,-1.167,-6.373953872819138,-6.750204702650555
1621785888793.706,-0.063,0.017,0.056,-1.167,-6.35568960217146,-6.744013424464902
1621785888798.325,-0.068,0.017,0.056,-1.167,-6.337437873015354,-6.737826397632324
1621785888798.942,-0.068,0.01659912220400825,0.056400877795991754,-1.167,-6.335,-6.737
1621785888802.942,-0.068,0.014,0.059,-1.1774662659088304,-6.329632684149318,-6.72653373409117
1621785888807.556,-0.075,0.016,0.058,-1.189539139408036,-6.323441466970238,-6.714460860591965
1621785888812.167,-0.08,0.024,0.066,-1.2016043471851403,-6.317254180930697,-6.70239565281486
1621785888813.847,-0.0796355981570725,0.024,0.0656355981570725,-1.206,-6.315,-6.698
1621785888816.777,-0.079,0.024,0.065,-1.209938374706722,-6.318938374706723,-6.701938374706723
1621785888821.384,-0.084,0.028,0.075,-1.216130436922673,-6.325130436922673,-6.708130436922673
1621785888825.988,-0.084,0.033,0.08,-1.2223185614202037,-6.331318561420204,-6.714318561420204
1621785888828.727,-0.084,0.028833793103448274,0.0811903448275862,-1.226,-6.335,-6.718
1621785888830.59,-0.084,0.026,0.082,-1.2395465991649957,-6.325216345047503,-6.722891827476248
1621785888835.189,-0.087,0.031,0.089,-1.2729861599658108,-6.301065551135803,-6.734967224432098
1621785888839.786,-0.087,0.031,0.089,-1.306411519116342,-6.276925013971531,-6.7470374930142345
1621785888843.58,-0.09277977898204229,0.02687158644139836,0.09230273084688131,-1.334,-6.257,-6.757
1621785888844.381,-0.094,0.026,0.093,-1.335026274632468,-6.258026274632468,-6.757
1621785888848.973,-0.093,0.028,0.096,-1.340909289959337,-6.2639092899593365,-6.757
1621785888853.562,-0.098,0.023,0.096,-1.3467888645605255,-6.2697888645605255,-6.757
1621785888858.149,-0.101,0.023,0.105,-1.352665624022521,-6.275665624022521,-6.757
1621785888858.41,-0.10151216396060687,0.023,0.105,-1.353,-6.276,-6.757
1621785888862.735,-0.11,0.023,0.105,-1.376082545808388,-6.304634044167368,-6.762551498358979
1621785888867.316,-0.112,0.03,0.11,-1.4005292497484867,-6.334960335131034,-6.768431085382547
1621785888871.896,-0.119,0.028,0.113,-1.4249720449260304,-6.365281777250012,-6.774309732323982
1621785888873.213,-0.119,0.029438630180828932,0.11357545207233158,-1.432,-6.374,-6.776
1621785888876.473,-0.119,0.033,0.115,-1.445014404889733,-6.391426067564219,-6.810631551994714
1621785888881.048,-0.119,0.035,0.108,-1.4632792103741636,-6.415882332534897,-6.859234508961758
1621785888885.62,-0.117,0.042,0.112,-1.4815313455026018,-6.440321632113654,-6.907803749896754
1621785888887.992,-0.11440490437012502,0.042,0.11096196174805001,-1.491,-6.453,-6.933
1621785888890.19,-0.112,0.042,0.11,-1.5056005063793874,-6.464620811199921,-6.9213791888000795
1621785888894.757,-0.099,0.042,0.106,-1.535938357411177,-6.488767264061957,-6.897232735938043
1621785888899.323,-0.089,0.042,0.101,-1.5662680997534297,-6.512907263069056,-6.8730927369309445
1621785888902.745,-0.0814986620999679,0.04950133790003211,0.09949973241999359,-1.589,-6.531,-6.855
1621785888903.885,-0.079,0.052,0.099,-1.592018499792789,-6.529529448818898,-6.835263655200995
1621785888908.445,-0.065,0.052,0.091,-1.6040937919602154,-6.523646614173228,-6.756309821798591
1621785888913.003,-0.051,0.052,0.093,-1.616163265644426,-6.517766614173228,-6.677394032324907
1621785888917.473,-0.04903741022617644,0.060831653982206024,0.08711223067852931,-1.628,-6.512,-6.6
1621785888917.558,-0.049,0.061,0.087,-1.627773978744603,-6.5115421620724,-6.598012172035868
1621785888922.11,-0.037,0.066,0.087,-1.6156990036532712,-6.4870825971438055,-6.491814314181335
1621785888926.66,-0.038,0.061,0.086,-1.6036298571903023,-6.462634838923945,-6.385667718365991
1621785888931.208,-0.044,0.07,0.089,-1.5915652441049484,-6.438196263699767,-6.279560993025573
1621785888932.175,-0.045063869789428446,0.07106386978942845,0.089,-1.589,-6.433,-6.257
1621785888935.753,-0.049,0.075,0.089,-1.574617296272269,-6.413985578122661,-6.211414142422276
1621785888940.296,-0.068,0.077,0.089,-1.5563550410033768,-6.389842257597684,-6.153532079112398
1621785888944.836,-0.086,0.087,0.094,-1.5381045627692667,-6.365714506711912,-6.095687343014456
1621785888946.852,-0.09133003442340791,0.09233003442340791,0.09710918674698796,-1.53,-6.355,-6.07
1621785888949.375,-0.098,0.099,0.101,-1.5434319613397767,-6.355,-6.063284019330112
1621785888953.91,-0.119,0.106,0.101,-1.5675754374270956,-6.355,-6.051212281286452
1621785888958.443,-0.143,0.112,0.106,-1.5917098150308282,-6.355,-6.039145092484586
1621785888961.503,-0.1551555040681071,0.11537652890780754,0.106,-1.608,-6.355,-6.031
1621785888962.974,-0.161,0.117,0.106,-1.6268123873121871,-6.358923439065109,-6.0330120200333885
1621785888967.501,-0.176,0.127,0.113,-1.6846980968280467,-6.3709958597662775,-6.039203005008347
1621785888972.027,-0.194,0.127,0.113,-1.7425744407345576,-6.3830663272120205,-6.045392988313856
1621785888976.127,-0.20487512142471667,0.13696886130599029,0.11481252023745278,-1.795,-6.394,-6.051
1621785888976.551,-0.206,0.138,0.115,-1.7995601986555634,-6.3928672117989365,-6.054688823116284
1621785888981.071,-0.225,0.134,0.106,-1.8481655630246479,-6.3807932677836865,-6.094006538242868
1621785888985.589,-0.239,0.133,0.106,-1.8967499247516806,-6.3687245409852515,-6.133307263971105
1621785888990.104,-0.244,0.127,0.101,-1.9453001571853783,-6.356664292164142,-6.172580381927026
1621785888990.727,-0.24524225214992698,0.12686197198334145,0.1007239439666829,-1.952,-6.355,-6.178
1621785888994.618,-0.253,0.126,0.099,-1.9674865548611924,-6.33390624424079,-6.20950712885553
1621785888999.129,-0.267,0.12,0.094,-1.985441318880158,-6.309450617387371,-6.2460357866872185
1621785889003.637,-0.276,0.119,0.087,-2.003384422068457,-6.285010873389515,-6.282540720759965
1621785889005.299,-0.2815340595025199,0.11641743889882404,0.08441743889882404,-2.01,-6.276,-6.296
1621785889008.142,-0.291,0.112,0.08,-2.002377903464017,-6.256847039473684,-6.3190617279806665
1621785889012.646,-0.302,0.112,0.073,-1.9903029840225563,-6.226504934210526,-6.35559609962406
1621785889017.147,-0.316,0.106,0.068,-1.978235919038668,-6.196182565789473,-6.392106706498389
1621785889019.846,-0.3220003256621798,0.09999967433782024,0.06619990230134608,-1.971,-6.178,-6.414
1621785889021.645,-0.326,0.096,0.065,-1.9665372682381441,-6.17582584862884,-6.4184627317618554
1621785889026.142,-0.333,0.096,0.056,-1.9553819528556788,-6.170391207801484,-6.429618047144321
1621785889030.635,-0.344,0.087,0.049,-1.9442369328240008,-6.164961582657846,-6.4407630671759994
1621785889035.568,-0.3499763383614315,0.08273118688469176,0.04558494950775341,-1.932,-6.159,-6.453
1621785889036.413,-0.351,0.082,0.045,-1.932,-6.1543492420582195,-6.45864361637879
1621785889041.418,-0.36,0.089,0.044,-1.932,-6.126802134919676,-6.492071566614325
1621785889046.423,-0.37,0.089,0.038,-1.932,-6.09925368401981,-6.52550114748158
1621785889051.427,-0.38,0.089,0.033,-1.932,-6.071711951926561,-6.55892257519024
1621785889051.738,-0.3802486338797814,0.08887568306010929,0.03237841530054645,-1.932,-6.07,-6.561
1621785889056.431,-0.384,0.087,0.023,-1.9206792811839324,-6.058679281183933,-6.623409090909091
1621785889061.434,-0.4,0.082,0.014,-1.9086100120809424,-6.046610012080942,-6.689944805194805
1621785889066.439,-0.403,0.082,0.005,-1.8965366203563878,-6.034536620356388,-6.756503246753247
1621785889067.905,-0.403,0.08317216474721843,0.0026556705055631466,-1.893,-6.031,-6.776
1621785889071.442,-0.403,0.086,-0.003,-1.8671834903950706,-6.067536924610366,-6.810349084813338
1621785889076.445,-0.408,0.077,-0.009,-1.830664008698804,-6.119221275824574,-6.858938564697354
1621785889081.448,-0.401,0.077,-0.017,-1.7941463090491723,-6.170903104989731,-6.90752567355322
1621785889084.071,-0.40047569783330084,0.079621510833496,-0.0190972086667968,-1.775,-6.198,-6.933
1621785889086.451,-0.4,0.082,-0.021,-1.7807428662064382,-6.203742866206438,-6.972022039607849
1621785889091.454,-0.391,0.08,-0.026,-1.7928159639873713,-6.215815963987372,-7.054057191196241
1621785889096.456,-0.382,0.079,-0.03,-1.804886116104473,-6.227886116104473,-7.136072327376547
1621785889100.233,-0.3759605699785282,0.0759802849892641,-0.03528450126878782,-1.814,-6.237,-7.198
1621785889101.459,-0.374,0.075,-0.037,-1.8125586404833838,-6.237,-7.224020332326284
1621785889106.46,-0.358,0.073,-0.051,-1.8066795468277945,-6.237,-7.3301534441087615
1621785889111.462,-0.34,0.072,-0.066,-1.8007993051359517,-6.237,-7.436307280966767
1621785889116.395,-0.31830387036946656,0.06312431060569086,-0.07487568939430914,-1.795,-6.237,-7.541
1621785889116.464,-0.318,0.063,-0.075,-1.794328745599855,-6.236914489885332,-7.541837999123748
1621785889121.466,-0.29,0.051,-0.086,-1.7457327733377648,-6.230723920170416,-7.602505582329925
1621785889126.467,-0.264,0.051,-0.098,-1.6971462887703765,-6.224534559079029,-7.663161321025517
1621785889131.467,-0.229,0.037,-0.106,-1.64856929189769,-6.21834640661117,-7.723805215210527
1621785889132.555,-0.22204021866458415,0.037,-0.1079574385005857,-1.638,-6.217,-7.737
1621785889136.469,-0.197,0.037,-0.115,-1.5406205521055256,-6.191080594714655,-7.72755274012964
1621785889141.469,-0.166,0.037,-0.122,-1.4162236525996101,-6.157969977184473,-7.715484384207425
1621785889146.469,-0.133,0.042,-0.127,-1.2918267530936949,-6.124859359654292,-7.7034160282852095
1621785889148.713,-0.11774448349931654,0.041102616676430385,-0.1265513083382152,-1.236,-6.11,-7.698
1621785889151.47,-0.099,0.04,-0.126,-1.0986155717761557,-6.069723322905805,-7.632806395550921
1621785889156.47,-0.061,0.047,-0.119,-0.8494671532846716,-5.996681053633767,-7.514576959695335
1621785889161.469,-0.033,0.068,-0.106,-0.600367396593674,-5.923653050429946,-7.396370615526439
1621785889164.868,-0.013966015625000001,0.08091591796875,-0.09716279296875,-0.431,-5.874,-7.316
1621785889166.469,-0.005,0.087,-0.093,-0.3435877499206601,-5.820581402729292,-7.2644644330598
1621785889171.469,0.012,0.094,-0.065,-0.07060774357346872,-5.653760287739342,-7.10352383974853
1621785889176.468,0.019,0.119,-0.038,0.202318946366233,-5.486971754998413,-6.942614680146892
1621785889181.023,0.019,0.1381344500879078,-0.006109249853487007,0.451,-5.335,-6.796
1621785889181.467,0.019,0.14,-0.003,0.4725856903145833,-5.330407884990401,-6.774414309685417
1621785889186.466,0.012,0.173,0.03,0.7155700745264622,-5.278715665673988,-6.531429925473538
1621785889191.465,-0.002,0.213,0.07,0.958554458738341,-5.227023446357576,-6.288445541261659
1621785889196.463,-0.035,0.251,0.11,1.2014795090021315,-5.175343849677254,-6.045520490997869
1621785889197.173,-0.04224550693494823,0.25625654424692323,0.11625102559093572,1.236,-5.168,-6.011
1621785889201.462,-0.086,0.288,0.154,1.314084998941671,-5.254052855976536,-5.969567143418705
1621785889206.459,-0.152,0.333,0.188,1.405064890689728,-5.354316410147864,-5.921292098817696
1621785889211.457,-0.227,0.393,0.222,1.496062562365819,-5.454599558525596,-5.873007619969158
1621785889213.321,-0.2575877467265976,0.4142622141880008,0.23692085206175495,1.53,-5.492,-5.855
1621785889216.454,-0.309,0.45,0.262,1.3815552514591587,-5.632682931623673,-6.026148063023559
1621785889221.452,-0.391,0.506,0.291,1.1447585205794297,-5.85709813409139,-6.299160764508422
1621785889226.449,-0.476,0.552,0.304,0.9079964919708471,-6.081480448785798,-6.572133456315965
1621785889229.467,-0.5182777017783858,0.5779705882352941,0.3015841313269494,0.765,-6.217,-6.737
1621785889231.446,-0.546,0.595,0.3,0.6039024910386134,-6.367308634693043,-6.922127274377241
1621785889236.444,-0.583,0.623,0.29,0.19704482962021863,-6.746918598847497,-7.389672988792595
1621785889241.44,-0.579,0.639,0.265,-0.20963396705839654,-7.126361677027088,-7.857013158491765
1621785889245.609,-0.5489601250977326,0.6406688819390148,0.23329124315871774,-0.549,-7.443,-8.247
1621785889246.436,-0.543,0.641,0.227,-0.6208964818344073,-7.5002917082614875,-8.287227183349971
1621785889251.432,-0.469,0.628,0.178,-1.0551401972350787,-7.846324832864446,-8.530193196599813
1621785889256.429,-0.358,0.613,0.12,-1.489490017242944,-8.19244250839459,-8.773218577003357
1621785889261.424,-0.232,0.581,0.052,-1.9236700698792992,-8.538424902441237,-9.016148969960977
1621785889261.75,-0.22299516105381495,0.5785204066669924,0.04723657070238037,-1.952,-8.561,-9.032
1621785889266.419,-0.094,0.543,-0.021,-2.1221068300431134,-8.498511776718857,-8.873175765827094
1621785889271.415,0.024,0.524,-0.098,-2.304132879509871,-8.431645064669844,-8.703222872702518
1621785889276.411,0.131,0.485,-0.166,-2.4861500340367595,-8.364781620149762,-8.533278284547311
1621785889277.889,0.15408427845131012,0.472570003910833,-0.18346118498240127,-2.54,-8.345,-8.483
1621785889281.405,0.209,0.443,-0.225,-2.499472109172882,-8.148461518677097,-8.1731577378701
1621785889286.4,0.246,0.403,-0.264,-2.4418995415828255,-7.869265518858647,-7.733006172746116
1621785889291.395,0.236,0.387,-0.298,-2.384324159946745,-7.590055872429914,-7.292833093786404
1621785889294.026,0.22493688584698118,0.38541955512099735,-0.3122240039110242,-2.354,-7.443,-7.061
1621785889296.389,0.215,0.384,-0.325,-2.2806176510646026,-7.319524311072774,-6.921705361601671
1621785889301.383,0.171,0.375,-0.342,-2.1255283515685295,-7.058565669405729,-6.627314296091161
1621785889306.377,0.124,0.386,-0.358,-1.9704466336768511,-6.797619784809552,-6.332937622009353
1621785889310.159,0.08462123582323033,0.3897864196323817,-0.3708738267500978,-1.853,-6.6,-6.11
1621785889311.371,0.072,0.391,-0.375,-1.8066388607230959,-6.563181591173933,-6.087833815094512
1621785889316.365,0.019,0.4,-0.382,-1.6156384369750443,-6.41149567928326,-5.9965127048746165
1621785889321.358,-0.023,0.398,-0.4,-1.424675363590962,-6.259839429756194,-5.905209452608321
1621785889326.291,-0.060535588580367616,0.39602444270629644,-0.4118533437622213,-1.236,-6.11,-5.815
1621785889326.352,-0.061,0.396,-0.412,-1.2326970352770252,-6.109625436990179,-5.814371944852218
1621785889331.344,-0.101,0.398,-0.424,-0.9625541565143696,-6.078990677542867,-5.763004570425413
1621785889336.337,-0.138,0.396,-0.428,-0.6923584303161463,-6.048349925087399,-5.711627147116244
1621785889341.329,-0.183,0.396,-0.431,-0.42220233969459864,-6.017713667388048,-5.660257260468847
1621785889342.423,-0.19110703633074178,0.3964382181800401,-0.43187643636008016,-0.363,-6.011,-5.649
1621785889346.322,-0.22,0.398,-0.435,-0.13312366047102986,-6.056201761821154,-5.679698522734153
1621785889351.314,-0.257,0.4,-0.438,0.16119578313253002,-6.11407530120482,-5.7190030120481925
1621785889356.306,-0.29,0.405,-0.436,0.45551522673609,-6.171948840588485,-5.758307501362233
1621785889358.553,-0.3017030516431925,0.40815082159624416,-0.4296983568075117,0.588,-6.198,-5.776
1621785889361.298,-0.316,0.412,-0.422,0.7182019254056672,-6.2414006418018895,-5.867737042867522
1621785889366.29,-0.335,0.414,-0.415,0.9549716487042867,-6.320323882901429,-6.0345591093485105
1621785889371.281,-0.361,0.405,-0.401,1.1916950532816664,-6.399231684427223,-6.201348540808913
1621785889374.682,-0.368496942120456,0.41113386173491856,-0.3894138167229317,1.353,-6.453,-6.315
1621785889376.271,-0.372,0.414,-0.384,1.378130132630814,-6.469359223594961,-6.377874606346899
1621785889381.263,-0.389,0.415,-0.368,1.4570724927325582,-6.520749152131783,-6.575385295542636
1621785889386.253,-0.403,0.424,-0.353,1.5359839662063954,-6.572118974079458,-6.772818707606589
1621785889390.807,-0.4048248789316637,0.42582487893166365,-0.3402258474783545,1.608,-6.619,-6.953
1621785889391.244,-0.405,0.426,-0.339,1.608,-6.627511418014416,-6.966282149130778
1621785889396.235,-0.407,0.438,-0.314,1.608,-6.724722272699739,-7.117980616633352
1621785889401.225,-0.407,0.452,-0.29,1.608,-6.821909352474408,-7.2696419831607
1621785889406.214,-0.403,0.454,-0.264,1.608,-6.9190774123205525,-7.421273668907868
1621785889406.929,-0.4012809335094672,0.45442976662263324,-0.26070512255981215,1.608,-6.933,-7.443
1621785889411.204,-0.391,0.457,-0.241,1.501387320530684,-6.997975389228812,-7.575602835160841
1621785889416.194,-0.375,0.456,-0.22,1.376948022051251,-7.073815260192646,-7.730378082025807
1621785889421.183,-0.351,0.447,-0.204,1.2525330768764766,-7.149640288968317,-7.88512303871085
1621785889423.049,-0.33865749938830436,0.43914568142892096,-0.19951181795938341,1.206,-7.178,-7.943
1621785889426.172,-0.318,0.426,-0.192,1.101562065466002,-7.212295945106712,-8.036199715233494
1621785889431.162,-0.278,0.41,-0.183,0.9346916039322013,-7.267093851769945,-8.185113800572562
1621785889436.15,-0.229,0.391,-0.18,0.7678946212453991,-7.321867629015889,-8.333962313879336
1621785889439.167,-0.19633728158190983,0.3795075620380794,-0.17879026968821887,0.667,-7.355,-8.424
1621785889441.138,-0.175,0.372,-0.178,0.6273755131720471,-7.360992592143734,-8.424
1621785889446.126,-0.117,0.361,-0.178,0.5270945902955568,-7.376158534183697,-8.424
1621785889451.115,-0.051,0.344,-0.185,0.4267940343276121,-7.3913274454257625,-8.424
1621785889455.283,0.005820322059615302,0.33397288434242084,-0.19335592971464932,0.343,-7.404,-8.424
1621785889456.103,0.017,0.332,-0.195,0.3440177708424864,-7.4020153468571515,-8.389039571560591
1621785889461.09,0.087,0.309,-0.204,0.3502071143969579,-7.389946126925932,-8.176435620464495
1621785889466.079,0.145,0.291,-0.206,0.3563988819367643,-7.37787218022331,-7.963748405472146
1621785889471.066,0.202,0.283,-0.211,0.3625879224930689,-7.365803551138516,-7.751154862363083
1621785889471.398,0.20519639621994812,0.2810022523625324,-0.21113318317583116,0.363,-7.365,-7.737
1621785889476.052,0.25,0.253,-0.213,0.37426467067682845,-7.254375157199352,-7.431120865467658
1621785889481.04,0.279,0.241,-0.213,0.38633771723814,-7.135811648661344,-7.1032912165335835
1621785889486.027,0.302,0.23,-0.213,0.3984084001272747,-7.017271352596252,-6.775525750390157
1621785889487.511,0.302,0.2234523553031045,-0.21032141807854274,0.402,-6.982,-6.678
1621785889491.013,0.302,0.208,-0.204,0.43394848406794045,-6.883981181533054,-6.445667146471917
1621785889495.999,0.293,0.194,-0.194,0.4794367641933969,-6.744421900331823,-6.114871422294277
1621785889500.986,0.267,0.176,-0.18,0.5249339535447507,-6.604835285383111,-5.784010909256201
1621785889503.624,0.2468907826427662,0.17441243020863942,-0.1699453913213831,0.549,-6.531,-5.609
1621785889505.971,0.229,0.173,-0.161,0.5962068265179302,-6.493846479129407,-5.489088832641183
1621785889510.957,0.183,0.157,-0.141,0.696498620752372,-6.414913122556003,-5.234335293582709
1621785889515.943,0.138,0.152,-0.113,0.7967904149868138,-6.3359797659826,-4.979581754524235
1621785889519.732,0.09543637966500147,0.14667954745812517,-0.09475844842785777,0.873,-6.276,-4.786
1621785889520.928,0.082,0.145,-0.089,0.8860689503599848,-6.265827010231148,-4.765579765062523
1621785889525.913,0.023,0.136,-0.063,0.9405402500947329,-6.223426055323986,-4.68046835922698
1621785889530.897,-0.037,0.124,-0.033,0.9949982114437287,-6.181035483137552,-4.595377794619174
1621785889535.839,-0.0925064388189786,0.11309694951770063,-0.012185085442883024,1.049,-6.139,-4.511
1621785889535.883,-0.093,0.113,-0.012,1.049,-6.139,-4.511428376534789
1621785889540.867,-0.148,0.113,0.009,1.049,-6.139,-4.560011035319085
1621785889545.851,-0.195,0.101,0.024,1.049,-6.139,-4.608596073973018
1621785889550.836,-0.244,0.089,0.035,1.049,-6.139,-4.657188252235865
1621785889551.945,-0.2522337007102621,0.0894450649032574,0.03856051922605927,1.049,-6.139,-4.668
1621785889555.82,-0.281,0.091,0.051,0.9924500742896994,-6.1955499257103,-4.736341186815853
1621785889560.803,-0.311,0.079,0.056,0.9197318293459473,-6.268268170654053,-4.824221959428727
1621785889565.786,-0.335,0.063,0.058,0.8470135844021953,-6.340986415597804,-4.912102732041602
1621785889568.048,-0.3413543472936566,0.05982282635317169,0.05618447220181239,0.814,-6.374,-4.952
1621785889570.77,-0.349,0.056,0.054,0.7757935980833675,-6.435366919892644,-5.016748017407391
1621785889575.753,-0.36,0.044,0.052,0.705850763468741,-6.547708729472775,-5.135279458369346
1621785889580.736,-0.363,0.024,0.045,0.6359045019636385,-6.6600560433061915,-5.253816706849232
1621785889584.149,-0.3472470847623714,0.009616903478686918,0.03952072513473787,0.588,-6.737,-5.335
1621785889585.719,-0.34,0.003,0.037,0.5957049501046437,-6.789666747550729,-5.352165458460979
1621785889590.701,-0.311,-0.005,0.033,0.6201532803542722,-6.956781916345658,-5.406632624586733
1621785889595.683,-0.271,-0.024,0.019,0.6446028086990809,-7.123905274651946,-5.46110245988656
1621785889600.247,-0.23894267515923567,-0.03865477707006369,0.00984076433121019,0.667,-7.277,-5.511
1621785889600.666,-0.236,-0.04,0.009,0.6728562999590469,-7.289493439912634,-5.51204111999272
1621785889605.648,-0.188,-0.056,0.005,0.7424971256958244,-7.438060534817758,-5.5244217112348135
1621785889610.629,-0.148,-0.063,0.0,0.8121243003837462,-7.586598507485325,-5.536799875623777
1621785889615.611,-0.106,-0.08,0.014,0.8817685388827375,-7.73517288294984,-5.549181073579153
1621785889616.343,-0.1001221448877561,-0.08337976668954024,0.014,0.892,-7.757,-5.551
1621785889620.592,-0.066,-0.103,0.014,0.811744922260144,-7.79580755403868,-5.566311824042472
1621785889625.573,-0.037,-0.124,0.021,0.717665164960182,-7.841300068259385,-5.58426125142207
1621785889630.555,-0.009,-0.148,0.017,0.6235669624573379,-7.8868015017064845,-5.602214197952218
1621785889632.438,0.002343759192077655,-0.1574531326600647,0.019268751838415532,0.588,-7.904,-5.609
1621785889635.535,0.021,-0.173,0.023,0.5069782743920016,-7.941720328311562,-5.6053434375616344
1621785889640.515,0.047,-0.204,0.021,0.3766920182665028,-8.002376162517258,-5.599463535266184
1621785889645.495,0.077,-0.22,0.014,0.24639937493362463,-8.06303497033969,-5.593583344711969
1621785889648.53,0.10259072639937261,-0.24010699931379276,0.009734878933437899,0.167,-8.1,-5.59
1621785889650.476,0.119,-0.253,0.007,0.13144379371557754,-8.11548025307621,-5.580445781304526
1621785889655.456,0.148,-0.29,-0.012,0.04045452062692498,-8.155094630475352,-5.555996282753493
1621785889660.435,0.19,-0.323,-0.031,-0.05051690967849615,-8.194701239587916,-5.531551578691833
1621785889664.621,0.22699244875943908,-0.35831097381582816,-0.04781474943610865,-0.127,-8.228,-5.511
1621785889665.414,0.234,-0.365,-0.051,-0.13187968920723564,-8.234752701226174,-5.495079397839019
1621785889670.394,0.264,-0.417,-0.073,-0.16252497875440086,-8.277160829185384,-5.395095271336651
1621785889675.373,0.295,-0.466,-0.106,-0.19316425883209906,-8.319560641010076,-5.295130751487192
1621785889680.351,0.326,-0.513,-0.138,-0.2237975294403302,-8.361952136700255,-5.195185838290639
1621785889680.709,0.32844357289930387,-0.5168809687224237,-0.1400123541523679,-0.226,-8.365,-5.188
1621785889685.331,0.36,-0.567,-0.166,-0.15819280033995023,-8.353794572937534,-5.106114186851211
1621785889690.309,0.408,-0.623,-0.192,-0.08516360104413281,-8.34172618830814,-5.017922145328719
1621785889695.287,0.442,-0.698,-0.223,-0.012134401748315427,-8.329657803678748,-4.929730103806228
1621785889696.796,0.44927272727272727,-0.7234545454545455,-0.23118181818181818,0.01,-8.326,-4.903
1621785889700.266,0.466,-0.782,-0.25,0.9111440843894665,-7.966362176519694,-5.518720664794718
1621785889705.243,0.471,-0.826,-0.291,2.2035193594900204,-7.450587796918874,-6.401756105335053
1621785889710.221,0.463,-0.749,-0.337,3.496211626318585,-6.93468690900812,-7.285008135387417
1621785889712.881,0.44963788874717947,-0.6592066123810458,-0.3086723241440204,4.187,-6.659,-7.757
1621785889715.198,0.438,-0.581,-0.284,4.105163572046701,-6.085280535017535,-8.470475336663275
1621785889720.176,0.279,-0.396,-0.045,3.9293316683620025,-4.852599829960375,-10.003432356111558
1621785889725.153,-0.164,-0.143,0.222,3.7535342584298665,-3.6201609455417736,-11.5360886483368
1621785889728.962,-0.59572386045827,0.02157558510377311,0.3192144153868799,3.619,-2.677,-12.709
1621785889730.129,-0.728,0.072,0.349,3.259476523112434,-3.024401445666039,-12.75531051448703
1621785889735.105,-1.11,0.182,0.335,1.726462400534532,-4.505727024236165,-12.952779323331105
1621785889740.083,-1.162,0.246,0.291,0.19284656502460074,-5.98763402781996,-13.150325639312397
1621785889745.039,-0.9588207241683838,0.19420920419978413,0.20833392208811696,-1.334,-7.463,-13.347
1621785889745.059,-0.958,0.194,0.208,-1.3350248910352789,-7.466150637082935,-13.34842837183167
1621785889750.034,-0.572,0.11,0.03,-1.5897103133020487,-8.249083952192203,-13.703378772001761
1621785889755.011,-0.082,0.072,-0.199,-1.8445082236092762,-9.032363068932526,-14.058485944689963
1621785889759.986,0.45,0.014,-0.328,-2.099206144547208,-9.815334806445245,-14.413453764028732
1621785889761.115,0.5661843254649851,0.0017461844236148598,-0.3470614908965991,-2.157,-9.993,-14.494
1621785889764.961,0.962,-0.04,-0.412,-2.002204638306274,-8.887899883055146,-14.219579165590876
1621785889769.937,1.4,-0.103,-0.469,-1.8019228467718664,-7.458067433136399,-13.86452010084595
1621785889774.912,1.689,-0.215,-0.485,-1.6016803608584056,-6.028515590115881,-13.50953071700864
1621785889777.19,1.7325061110293036,-0.2740767191871595,-0.4937012222058607,-1.51,-5.374,-13.347
1621785889779.886,1.784,-0.344,-0.504,-1.6680087491455913,-4.883870950102529,-12.484996855775803
1621785889784.861,1.724,-0.401,-0.555,-1.9595873319662793,-3.979420186830713,-10.894314969241284
1621785889789.836,1.557,-0.454,-0.599,-2.2511516062884485,-3.0750138072453863,-9.303711141490089
1621785889793.263,1.3778687542946892,-0.4932710807892412,-0.6045117306370865,-2.452,-2.452,-8.208
1621785889794.81,1.297,-0.511,-0.607,-2.367000972186356,-2.5472990232565205,-7.987079536996248
1621785889799.784,0.993,-0.459,-0.588,-2.093735200741292,-2.853678540505233,-7.2768361106469595
1621785889804.758,0.675,-0.396,-0.499,-1.820456016162598,-3.1600730962616397,-6.5665578223025625
1621785889809.335,0.38600407481957877,-0.36286670921498354,-0.42537046492218566,-1.569,-3.442,-5.913
1621785889809.731,0.361,-0.36,-0.419,-1.5646625085466839,-3.4717216743903365,-5.953121795943174
1621785889814.705,0.077,-0.34,-0.361,-1.5101791233001596,-3.8450566892045885,-6.457093109473525
1621785889819.677,-0.119,-0.361,-0.314,-1.4557198055154599,-4.2182267872065635,-6.9608417989819955
1621785889824.651,-0.22,-0.394,-0.265,-1.4012390944313606,-4.591543477930562,-7.464788376509914
1621785889825.403,-0.22468880706921945,-0.408520176730486,-0.2568324005891016,-1.393,-4.648,-7.541
1621785889829.624,-0.251,-0.49,-0.211,-1.3131359063972041,-4.949592037684242,-7.88383763865674
1621785889834.596,-0.239,-0.635,-0.159,-1.2190626652484424,-5.304842303601276,-8.28767178240389
1621785889839.569,-0.206,-0.738,-0.101,-1.1249663273058805,-5.660179790305425,-8.691605075216533
1621785889841.47,-0.1952949668548981,-0.7559691627792782,-0.08035457893444636,-1.089,-5.796,-8.846
1621785889844.541,-0.178,-0.785,-0.047,-1.0626193124829033,-5.840923634539983,-8.61908785447251
1621785889849.513,-0.169,-0.775,0.012,-1.0199098203702015,-5.913653566760889,-8.251724324488617
1621785889854.485,-0.173,-0.735,0.079,-0.9771982310568067,-5.986387070301815,-7.884342755539345
1621785889857.535,-0.1944691873312055,-0.719664866191996,0.11703113184384974,-0.951,-6.031,-7.659
1621785889859.457,-0.208,-0.71,0.141,-0.951,-5.937198319225567,-7.6660590550582794
1621785889864.428,-0.258,-0.702,0.202,-0.951,-5.694610230536601,-7.6843150464264545
1621785889869.399,-0.304,-0.689,0.255,-0.951,-5.452022141847636,-7.7025710377946295
1621785889873.6,-0.33949435222473234,-0.699986347117179,0.300635595717513,-0.951,-5.247,-7.718
1621785889874.37,-0.346,-0.702,0.309,-0.9858047423620611,-5.214544338045296,-7.726006049551604
1621785889879.341,-0.403,-0.738,0.358,-1.2104906520747833,-5.005023179814562,-7.777689998480012
1621785889884.311,-0.468,-0.799,0.403,-1.4351324213406293,-4.795543182854537,-7.829363793889649
1621785889889.282,-0.524,-0.838,0.424,-1.6598183310533514,-4.586022024623803,-7.881047742818057
1621785889889.662,-0.525988603428796,-0.8398356339342732,0.4252237559561821,-1.677,-4.57,-7.885
1621785889894.252,-0.55,-0.862,0.44,-1.7330195813126168,-4.460533165088101,-7.952166334737066
1621785889899.222,-0.564,-0.876,0.45,-1.7936786566733052,-4.342000380072062,-8.024895328154217
1621785889904.192,-0.553,-0.878,0.445,-1.8543377320339935,-4.2234675950560225,-8.097624321571368
1621785889905.721,-0.5456165635131153,-0.8795382159347677,0.4413082817565576,-1.873,-4.187,-8.12
1621785889909.162,-0.529,-0.883,0.433,-1.675369481576106,-4.252162340131089,-8.025471736849308
1621785889914.131,-0.494,-0.881,0.417,-1.3899935368097693,-4.346255927125629,-7.888974132031571
1621785889919.1,-0.473,-0.862,0.396,-1.1046175920434327,-4.44034951412017,-7.752476527213833
1621785889921.775,-0.473,-0.8469276273767995,0.40084469120031446,-0.951,-4.491,-7.679
1621785889924.069,-0.473,-0.834,0.405,-0.7450771160923385,-4.601749642629033,-7.599117354542413
1621785889929.038,-0.496,-0.794,0.428,-0.29906791569086655,-4.841622737917819,-7.426099212263146
1621785889934.006,-0.489,-0.749,0.459,0.1468536299765807,-5.081448690653609,-7.25311507345114
1621785889937.829,-0.46745762295484694,-0.7097620989534712,0.47130992974008745,0.49,-5.266,-7.12
1621785889938.975,-0.461,-0.698,0.475,0.4969960610162274,-5.245011816951318,-7.147270360287743
1621785889943.943,-0.414,-0.649,0.49,0.5273247456389822,-5.1540257630830535,-7.265490335041747
1621785889948.911,-0.356,-0.585,0.49,0.5576519398354447,-5.063044180493666,-7.383704500174897
1621785889953.878,-0.286,-0.527,0.483,0.5879746627530302,-4.97207601174091,-7.501901236445486
1621785889953.882,-0.2859432024762934,-0.5269331793838746,0.48299164742298434,0.588,-4.972,-7.502
1621785889958.847,-0.218,-0.447,0.473,0.5122175070347554,-4.959936664385125,-7.471687002813902
1621785889963.814,-0.154,-0.382,0.459,0.4364014753973686,-4.947867989961214,-7.441360590158947
1621785889968.781,-0.093,-0.325,0.443,0.3605854437599818,-4.935799315537303,-7.411034177503993
1621785889969.933,-0.07954696485623003,-0.31108306709265177,0.4385929712460064,0.343,-4.933,-7.404
1621785889973.748,-0.035,-0.265,0.424,0.17064042721518988,-4.888543117088608,-7.326973101265823
1621785889978.715,0.037,-0.22,0.4,-0.053771162974683595,-4.830660403481013,-7.226684335443038
1621785889983.681,0.112,-0.19,0.389,-0.278127601630964,-4.772791915165531,-7.1264202166504385
1621785889985.98,0.1490292455148685,-0.17889122634553944,0.3848342098795773,-0.382,-4.746,-7.08
1621785889988.648,0.192,-0.166,0.38,-0.5891737569228896,-4.759135414764774,-6.866507942304181
1621785889993.614,0.255,-0.141,0.363,-0.9747997991601242,-4.783585220010956,-6.469121234252328
1621785889998.58,0.288,-0.129,0.349,-1.3604258413973587,-4.808035025257136,-6.0717345262004745
1621785890002.026,0.2817548672566372,-0.1130402163225172,0.34553048180924284,-1.628,-4.825,-5.796
1621785890003.546,0.279,-0.106,0.344,-1.692987386071423,-4.840820544422635,-5.6854456566394305
1621785890008.511,0.246,-0.11,0.34,-1.9052662923570853,-4.892497770879932,-5.324323960377962
1621785890013.476,0.218,-0.112,0.344,-2.1175451986427474,-4.944174997337228,-4.963202264116492
1621785890018.071,0.19024041297935104,-0.12495447394296952,0.3680583087512291,-2.314,-4.992,-4.629
1621785890018.442,0.188,-0.126,0.37,-2.324251133674326,-4.992,-4.6153395526376055
1621785890023.44,0.154,-0.147,0.386,-2.4624086113443773,-4.992,-4.431233773570502
1621785890028.463,0.115,-0.159,0.396,-2.6012544469043437,-4.992,-4.246210703107107
1621785890033.287,0.08,-0.166,0.391,-2.7346069165585156,-4.992,-4.068507977708222
1621785890034.061,0.07483305344265534,-0.16537370344759458,0.39021712930949326,-2.756,-4.992,-4.04
1621785890038.23,0.047,-0.162,0.386,-2.745558677408013,-4.996959628231194,-4.0094591314184385
1621785890043.173,0.024,-0.168,0.37,-2.733178409281991,-5.002840255591054,-3.9732468471498237
1621785890048.115,0.01,-0.159,0.353,-2.7208011984652307,-5.008719430729015,-3.9370435055108
1621785890050.032,0.006121894601669383,-0.1597756210796661,0.34524378920333876,-2.716,-5.011,-3.923
1621785890053.058,0.0,-0.161,0.333,-2.5822048773029587,-5.083582906505619,-3.908028591086308
1621785890058.0,0.0,-0.148,0.312,-2.3637070254567694,-5.202116443696966,-3.883579114746579
1621785890062.94,0.003,-0.122,0.297,-2.145295527864842,-5.320603134316948,-3.859139301276661
1621785890066.0,0.008573694352487771,-0.10465961757003804,0.28709121004002175,-2.01,-5.394,-3.844
1621785890067.881,0.012,-0.094,0.281,-1.9233859201027772,-5.462112841062034,-3.8197244891716626
1621785890072.822,0.037,-0.059,0.265,-1.6958848495044658,-5.641018444879482,-3.7559622843509115
1621785890077.762,0.065,-0.017,0.25,-1.4684287440352377,-5.819888688364126,-3.692212682001713
1621785890081.963,0.09306875926841325,0.009367622343054868,0.24489658922392485,-1.275,-5.972,-3.638
1621785890082.701,0.098,0.014,0.244,-1.2777281306881625,-5.9869815990332995,-3.6352718693118375
1621785890087.64,0.126,0.049,0.239,-1.2959848570598222,-6.087238876057329,-3.617015142940178
1621785890092.58,0.122,0.098,0.218,-1.314246095721737,-6.187520932438014,-3.5987539042782632
1621785890097.518,0.106,0.152,0.201,-1.332499212261193,-6.28775838597672,-3.5805007877388073
1621785890097.924,0.10378003559774547,0.15726213784238108,0.201,-1.334,-6.296,-3.579
1621785890102.456,0.079,0.216,0.201,-1.2476485746201282,-6.5689727624672924,-3.6375144527245187
1621785890107.394,0.047,0.293,0.223,-1.1535612002876774,-6.8664002846169145,-3.7012710287524295
1621785890112.331,0.016,0.365,0.25,-1.059492433168582,-7.163768985937476,-3.7650149959449744
1621785890113.879,0.010356641281772327,0.3784813569379883,0.25532983878943727,-1.03,-7.257,-3.785
1621785890117.268,-0.002,0.408,0.267,-1.4007390572390572,-7.188163636363636,-4.087115151515151
1621785890122.205,-0.005,0.419,0.272,-1.9407970615243342,-7.087889256198347,-4.52720826446281
1621785890127.141,-0.017,0.401,0.262,-2.4807482399755125,-6.9876347107438015,-4.967214325068871
1621785890129.831,-0.017,0.36394089132907953,0.2418354849878815,-2.775,-6.933,-5.207
1621785890132.077,-0.017,0.333,0.225,-3.05256271144926,-6.760350642193408,-5.481887068873138
1621785890137.012,-0.037,0.23,0.166,-3.662482555914456,-6.380968739953768,-6.0859274221943265
1621785890141.948,-0.077,0.15,0.098,-4.272523092938169,-6.001511764615832,-6.690087304624711
1621785890145.779,-0.11582236516575953,0.09176645225136071,0.05451895101434933,-4.746,-5.707,-7.159
1621785890146.882,-0.127,0.075,0.042,-4.729740237066985,-5.806080768170541,-7.20784847927961
1621785890151.816,-0.185,0.007,-0.017,-4.657010367852002,-6.249268737174186,-7.426347575729731
1621785890156.75,-0.229,-0.065,-0.07,-4.584276899751907,-6.692478636405403,-7.6448574841495915
1621785890161.684,-0.258,-0.152,-0.103,-4.511543431651812,-7.13568853563662,-7.863367392569451
1621785890161.721,-0.2579925251225187,-0.1526503143408742,-0.10302242463244393,-4.511,-7.139,-7.865
1621785890166.616,-0.257,-0.239,-0.106,-4.119386439535525,-7.916084163117743,-8.018573945280187
1621785890171.55,-0.211,-0.33,-0.072,-3.724647783326695,-8.69936949661448,-8.173373418303257
1621785890176.482,-0.112,-0.361,-0.021,-3.3300849137534856,-9.482306014277398,-8.328103955390791
1621785890177.658,-0.07480308880308881,-0.3648150678150678,-0.014323631323631325,-3.236,-9.669,-8.365
1621785890181.414,0.044,-0.377,0.007,-2.873215165629884,-9.763762510342293,-8.50148630220942
1621785890186.345,0.255,-0.344,0.012,-2.396961327490577,-9.88816409769252,-8.680661722795943
1621785890191.277,0.494,-0.293,0.047,-1.920589587227653,-10.012596482088684,-8.85988150032176
1621785890193.592,0.5785223592333977,-0.262947605605903,0.09959169018966968,-1.697,-10.071,-8.944
1621785890196.207,0.674,-0.229,0.159,-1.3652411837729315,-9.678339392174593,-9.459120814112094
1621785890201.137,0.763,-0.194,0.278,-0.7397901730294718,-8.938072782724639,-10.430256525004216
1621785890206.068,0.75,-0.164,0.307,-0.1141842940121689,-8.197622875446367,-11.401632699351715
1621785890209.522,0.6771242755956214,-0.1345694189905394,0.307,0.324,-7.679,-12.082
1621785890210.997,0.646,-0.122,0.307,0.5592594545705395,-7.508205340855089,-12.445262827096716
1621785890215.926,0.471,-0.12,0.4,1.345365566507749,-6.9375046832124845,-13.659084941670628
1621785890220.856,0.344,-0.216,0.586,2.1316274278356047,-6.366690953965017,-14.873147548020174
1621785890225.448,0.36543210304681695,-0.3436607877136487,0.7136607877136487,2.864,-5.835,-16.004
1621785890225.784,0.367,-0.353,0.723,2.7950860577807766,-5.851542722198368,-15.97690707231798
1621785890230.712,0.559,-0.415,0.737,1.784164601607066,-6.094213396307428,-15.579471937680182
1621785890235.64,0.878,-0.353,0.721,0.7732431454333559,-6.336884070416487,-15.182036803042386
1621785890240.567,1.183,-0.257,0.721,-0.23747797951297311,-6.579506655216831,-14.784680426915292
1621785890241.369,1.225159209157128,-0.24723338784004759,0.7195350081760071,-0.402,-6.619,-14.72
1621785890245.494,1.442,-0.197,0.712,-0.9814306222297204,-6.362454241499363,-13.479769696783793
1621785890250.42,1.67,-0.209,0.661,-1.673379702765295,-6.056090382049355,-11.998701584331528
1621785890255.347,1.854,-0.227,0.578,-2.3654659591110563,-5.74966578733455,-10.517339856750663
1621785890257.287,1.9012730877906112,-0.21951509443315323,0.5512119169186537,-2.638,-5.629,-9.934
1621785890260.272,1.974,-0.208,0.51,-2.0751542485464896,-5.498463297896819,-9.126585484835934
1621785890265.197,2.018,-0.122,0.504,-1.1464541549695493,-5.283076671729026,-7.794344930737723
1621785890270.123,1.977,0.007,0.531,-0.21756991424670558,-5.067647337659349,-6.461840213539508
1621785890273.202,1.8913384897615153,0.0901604442461203,0.5503832614408251,0.363,-4.933,-5.629
1621785890275.047,1.84,0.14,0.562,0.6029714873242895,-4.787323737032717,-5.513015714198023
1621785890279.971,1.644,0.257,0.579,1.2433187956540421,-4.398596709839789,-5.203519673439322
1621785890284.895,1.398,0.361,0.606,1.8836978546436682,-4.0098504082008475,-4.894008286784113
1621785890289.111,1.1574035896673112,0.4611771530566711,0.6428172442857851,2.432,-3.677,-4.629
1621785890289.819,1.117,0.478,0.649,2.399281686033125,-3.704109460143982,-4.6084787173622725
1621785890294.741,0.796,0.62,0.693,2.1718329930771945,-3.8925669485931813,-4.465820421508281
1621785890299.664,0.447,0.766,0.735,1.9443278892351143,-4.081071177490905,-4.3231267441325
1621785890304.586,0.087,0.89,0.745,1.716879196279184,-4.269528665940104,-4.180468448278509
1621785890305.016,0.0569415819489214,0.8999612199355319,0.7443009670220679,1.697,-4.286,-4.168
1621785890309.509,-0.257,1.004,0.737,1.1204755367179582,-4.438326806720108,-4.990960410332013
1621785890314.43,-0.546,1.124,0.731,0.48903353911360914,-4.605163687459688,-5.892312908873123
1621785890319.35,-0.745,1.236,0.726,-0.14231447526029672,-4.7719757363555395,-6.793531250959796
1621785890320.914,-0.7828131944444444,1.2591963293650794,0.7161495039682539,-0.343,-4.825,-7.08
1621785890324.272,-0.864,1.309,0.695,-0.7221803102442022,-5.059056704039318,-7.9376446014437105
1621785890329.192,-0.909,1.34,0.642,-1.2777453540162802,-5.4019904469359545,-9.194242973429581
1621785890334.112,-0.881,1.333,0.586,-1.8333379665182,-5.744941207187836,-10.450903701428352
1621785890336.81,-0.8256133882493053,1.3121614728066693,0.56132279674474,-2.138,-5.933,-11.14
1621785890339.032,-0.78,1.295,0.541,-2.298346026235753,-6.093346026235753,-11.274343967927253
1621785890343.951,-0.637,1.232,0.478,-2.6533236920524716,-6.448323692052472,-11.571757687935856
1621785890348.869,-0.478,1.143,0.419,-3.0082308838438143,-6.803230883843814,-11.869112362139413
1621785890352.704,-0.3555719533382974,1.0720385207247456,0.362074857284686,-3.285,-7.08,-12.101
1621785890353.787,-0.321,1.052,0.346,-3.319082702029903,-7.048575748728429,-12.00277365274982
1621785890358.706,-0.164,0.969,0.257,-3.4738839374894357,-6.90584900963474,-11.556636492155448
1621785890363.623,-0.017,0.902,0.162,-3.6286237073005827,-6.763178941868863,-11.110676475559721
1621785890368.541,0.087,0.827,0.086,-3.7833942099359223,-6.62048053843908,-10.664627886964674
1621785890368.592,0.08767452830188678,0.8264915094339622,0.08547075471698112,-3.785,-6.619,-10.66
1621785890373.458,0.152,0.778,0.035,-3.637964266502728,-6.456954368708215,-10.0262147237378
1621785890378.374,0.188,0.719,-0.012,-3.4894161991854302,-6.293242019518942,-9.385910658572197
1621785890383.29,0.216,0.67,-0.061,-3.340868131868132,-6.12952967032967,-8.745606593406594
1621785890384.477,0.22662415574096145,0.6574441795788638,-0.07355582042113627,-3.305,-6.09,-8.591
1621785890388.206,0.26,0.618,-0.113,-3.305,-5.8687942315970725,-8.245571459319844
1621785890393.121,0.304,0.548,-0.154,-3.305,-5.577232458028411,-7.790277012483857
1621785890398.036,0.319,0.489,-0.195,-3.305,-5.285685166963901,-7.335005181108173
1621785890400.357,0.31663836446740856,0.4601880465023847,-0.21247610294117647,-3.305,-5.148,-7.12
1621785890402.95,0.314,0.428,-0.232,-3.2680875007688996,-5.02958600910377,-6.942134019191733
1621785890407.865,0.312,0.365,-0.264,-3.198120225133789,-4.805133465584056,-6.604990819339362
1621785890412.778,0.295,0.307,-0.302,-3.1281807529064407,-4.580770114412253,-6.26798159254475
1621785890416.233,0.28515484768672666,0.27394841723401087,-0.3329419072702877,-3.079,-4.423,-6.031
1621785890417.691,0.281,0.26,-0.346,-3.04207002215112,-4.38965278119616,-5.949882660595619
1621785890422.605,0.274,0.213,-0.384,-2.917601402904258,-4.277259475756829,-5.6764851710558695
1621785890427.517,0.248,0.148,-0.412,-2.793182254491755,-4.164910841742555,-5.403196345065222
1621785890432.104,0.21531547293603062,0.09477091306724986,-0.43627993439037727,-2.677,-4.06,-5.148
1621785890432.429,0.213,0.091,-0.438,-2.65811998646133,-4.055576916567947,-5.13274445760704
1621785890437.342,0.159,0.031,-0.459,-2.3726643948368435,-3.988702287727503,-4.902088909060139
1621785890442.253,0.113,-0.026,-0.469,-2.0873364667148726,-3.921857567039493,-4.671536515946399
1621785890447.164,0.056,-0.072,-0.48,-1.8019943537592886,-3.8550095232234343,-4.440972661117863
1621785890447.973,0.04529217840982547,-0.07644786435284172,-0.4788468499825966,-1.755,-3.844,-4.403
1621785890452.074,-0.009,-0.099,-0.473,-1.47371913813005,-3.889759846094652,-4.174976360138515
1621785890456.985,-0.082,-0.113,-0.457,-1.1368786918045402,-3.9445583378222393,-3.9019126894959597
1621785890461.895,-0.152,-0.106,-0.435,-0.8001219699884572,-3.99934320892651,-3.628916891111966
1621785890463.836,-0.18560769881135922,-0.10125538369721987,-0.43262769184860994,-0.667,-4.021,-3.521
1621785890466.804,-0.237,-0.094,-0.429,-0.4742841862254714,-4.07413717583686,-3.4768437552904965
1621785890471.714,-0.328,-0.072,-0.415,-0.15546371681415938,-4.162044955752212,-3.403793628318584
1621785890476.622,-0.419,-0.059,-0.387,0.1632140823393612,-4.249913397460562,-3.3307761908426317
1621785890479.699,-0.47040755111177435,-0.045207730189523954,-0.364430831219221,0.363,-4.305,-3.285
1621785890481.53,-0.501,-0.037,-0.351,0.44453931442298805,-4.379725122424466,-3.3473671810034187
1621785890486.439,-0.574,-0.012,-0.326,0.6631407804367242,-4.5800581939696325,-3.5145694354615173
1621785890491.346,-0.637,-0.002,-0.302,0.8816552711817425,-4.780311558717546,-3.6817051649265453
1621785890495.553,-0.6695795313199662,0.008288273048410368,-0.2857102343400169,1.069,-4.952,-3.825
1621785890496.253,-0.675,0.01,-0.283,1.0742099978439645,-4.990103628299504,-3.863103628299504
1621785890501.159,-0.698,0.028,-0.253,1.1107272307265839,-5.257174577263068,-4.130174577263067
1621785890506.066,-0.684,0.028,-0.236,1.1472517325284135,-5.524298687898482,-4.397298687898481
1621785890510.972,-0.639,0.026,-0.211,1.1837689654110328,-5.791369636862045,-4.664369636862045
1621785890511.406,-0.6330706784132198,0.024761037280374296,-0.21073450798865162,1.187,-5.815,-4.688
1621785890515.877,-0.572,0.012,-0.208,1.0927674282456978,-5.961709393150411,-4.8981894190328
1621785890520.783,-0.499,-0.002,-0.201,0.9893652806236424,-6.122694772681754,-5.128831933938283
1621785890525.688,-0.391,-0.007,-0.208,0.8859837156634673,-6.283648107350291,-5.35942853841532
1621785890527.253,-0.35047279334893217,-0.016892467765221287,-0.20959555931697116,0.853,-6.335,-5.433
1621785890530.592,-0.264,-0.038,-0.213,0.7600652686399285,-6.407282568835611,-5.364721421857906
1621785890535.497,-0.14,-0.07,-0.232,0.623547634088843,-6.513462951264233,-5.264422751575476
1621785890540.4,-0.026,-0.105,-0.241,0.4870911542195035,-6.619595768940386,-5.164169011263309
1621785890543.098,0.02407424189613105,-0.11710586067818553,-0.2459523975501668,0.412,-6.678,-5.109
1621785890545.303,0.065,-0.127,-0.25,0.45571153342272774,-6.702639940814723,-4.969791294832077
1621785890550.207,0.15,-0.133,-0.243,0.5529251706971224,-6.757438710870671,-4.660193723894515
1621785890555.109,0.223,-0.133,-0.223,0.6500952513062376,-6.812212928284089,-4.350734868451473
1621785890558.938,0.2643990736590468,-0.11737770805318991,-0.20112879127446587,0.726,-6.855,-4.109
1621785890560.011,0.276,-0.113,-0.195,0.6854134650962013,-6.845717269980267,-4.057165777627035
1621785890564.914,0.302,-0.119,-0.168,0.49995285520473604,-6.803299734829798,-3.820308738283177
1621785890569.815,0.304,-0.112,-0.15,0.3145753576714356,-6.760901208682783,-3.583557844104588
1621785890574.715,0.279,-0.113,-0.147,0.1292255642575234,-6.718509018870251,-3.346842331647755
1621785890574.774,0.27874788283351604,-0.11321610042841487,-0.14709604463485104,0.127,-6.718,-3.344
1621785890579.616,0.258,-0.131,-0.155,0.09121250771128933,-6.564756122763726,-3.5630072177668106
1621785890584.517,0.241,-0.134,-0.155,0.054988340530536695,-6.409642381246144,-3.784686736582356
1621785890589.416,0.23,-0.12,-0.15,0.01878041332510795,-6.254598180135718,-4.006266872301048
1621785890590.604,0.2263625037376657,-0.11199750822286454,-0.14539250473437657,0.01,-6.217,-4.06
1621785890594.315,0.215,-0.087,-0.131,0.226168191143126,-6.005520923632213,-4.517423146334315
1621785890599.215,0.192,-0.054,-0.089,0.5116097545927103,-5.726271151146828,-5.121432354891949
1621785890604.113,0.15,-0.012,-0.042,0.7969233237185914,-5.4471465965356085,-5.725170720797149
1621785890606.432,0.12916897617386103,0.008357591466453991,-0.012173761339846479,0.932,-5.315,-6.011
1621785890609.011,0.106,0.031,0.021,1.1940628201172478,-5.399746683122493,-6.151646899105215
1621785890613.91,0.073,0.087,0.108,1.6918432582536256,-5.560720456649182,-6.418801450169701
1621785890618.807,0.014,0.15,0.215,2.1894252391237274,-5.721630052452946,-6.685849490897871
1621785890622.257,-0.050111471160077775,0.19649842963258388,0.26995268956578095,2.54,-5.835,-6.874
1621785890623.704,-0.077,0.216,0.293,2.4681969350905892,-6.082606237846847,-6.84262617673385
1621785890628.6,-0.206,0.314,0.328,2.225251319485169,-6.920381755609741,-6.73647286953301
1621785890633.497,-0.314,0.428,0.332,1.9822572455939997,-7.758324377295596,-6.630298388839162
1621785890638.077,-0.36825461254612546,0.49909225092250925,0.3058081180811808,1.755,-8.542,-6.531
1621785890638.393,-0.372,0.504,0.304,1.6985452847373377,-8.569047885888946,-6.589813658747433
1621785890643.288,-0.353,0.517,0.274,0.8244780715972769,-8.987820173204279,-7.500403510396888
1621785890648.184,-0.264,0.454,0.22,-0.04976351904166454,-9.406676006113091,-8.411175025857146
1621785890653.079,-0.136,0.356,0.134,-0.9238307321817252,-9.825448293428426,-9.3217648775066
1621785890653.892,-0.11340683462210029,0.3423776502868546,0.11672287353454727,-1.069,-9.895,-9.473
1621785890657.973,0.0,0.274,0.03,-2.0762355257063456,-9.431769723637487,-10.789141732283465
1621785890662.867,0.12,0.225,-0.063,-3.284195044001853,-8.876225953373474,-12.367566929133858
1621785890667.761,0.185,0.192,-0.157,-4.49215456229736,-8.320682183109463,-13.945992125984253
1621785890669.705,0.17586174034527494,0.17173690250474005,-0.21182955792835045,-4.972,-8.1,-14.573
1621785890672.654,0.162,0.141,-0.295,-5.2866923385789075,-8.407417293407255,-14.532707442126235
1621785890677.546,0.14,0.08,-0.487,-5.808713233363705,-8.917370129569285,-14.465868963600142
1621785890682.44,0.276,0.056,-0.667,-6.330968603771254,-9.427552020755794,-14.399000463298997
1621785890685.514,0.49973944294699013,0.03588858939802336,-0.7499595687331537,-6.659,-9.748,-14.357
1621785890687.331,0.632,0.024,-0.799,-6.374791405356977,-9.738917281967314,-14.310781612036207
1621785890692.223,1.093,-0.052,-0.937,-5.6096849145787635,-9.714466063208626,-14.186358954555285
1621785890697.115,1.501,-0.164,-1.103,-4.844540239117674,-9.69001362414656,-14.06193008742933
1621785890701.319,1.7408711867791702,-0.29296300364471517,-1.229383743571821,-4.187,-9.669,-13.955
1621785890702.005,1.78,-0.314,-1.25,-4.169554681827311,-9.47028827882402,-13.791569481994161
1621785890706.896,1.932,-0.503,-1.374,-4.045133355991905,-8.0530612862859,-12.625970693197793
1621785890711.787,1.986,-0.679,-1.487,-3.9207120301564986,-6.635834293747779,-11.460371904401427
1621785890716.676,1.988,-0.798,-1.545,-3.79634659889694,-5.219243971017627,-10.295296744890235
1621785890717.122,1.9835294382022473,-0.8040215730337079,-1.5450912359550562,-3.785,-5.09,-10.189
1621785890721.565,1.939,-0.864,-1.546,-3.343746028311801,-4.7286160907461205,-9.077568708660444
1621785890726.455,1.798,-0.897,-1.527,-2.8580708413179208,-4.330851517586697,-7.854249180935897
1621785890731.343,1.578,-0.906,-1.487,-2.372613880818446,-3.933265670396242,-6.631479322494901
1621785890732.92,1.4815392338045053,-0.8901920483492333,-1.4628041556365816,-2.216,-3.805,-6.237
1621785890736.231,1.279,-0.857,-1.412,-1.7535066163739799,-3.597444039079891,-6.025250989364333
1621785890741.119,0.916,-0.784,-1.302,-1.0707474338362601,-3.291038059609201,-5.712654990106357
1621785890746.007,0.496,-0.705,-1.18,-0.38795414914667314,-2.9846167759089783,-5.400043377442493
1621785890748.713,0.25238107608532745,-0.6817454663535994,-1.1296151770994654,-0.01,-2.815,-5.227
1621785890750.894,0.056,-0.663,-1.089,0.28933789968458157,-3.1847865978106253,-5.293304657059806
1621785890755.78,-0.365,-0.642,-1.016,0.9598829395757313,-4.01314334529037,-5.441833323025543
1621785890760.667,-0.707,-0.607,-0.915,1.6305620013606283,-4.841665656503185,-5.590391675428289
1621785890764.503,-0.9056673996701484,-0.5936508071367884,-0.8144884302064072,2.157,-5.492,-5.707
1621785890765.552,-0.96,-0.59,-0.787,2.310198431603044,-5.6536392996349685,-5.9423473519767365
1621785890770.438,-1.093,-0.562,-0.635,3.023710233248778,-6.406463899028646,-7.038462445090639
1621785890775.323,-1.103,-0.504,-0.431,3.7370794252304647,-7.159138031306069,-8.134358457588318
1621785890780.208,-1.042,-0.435,-0.19,4.450448617212151,-7.911812163583494,-9.230254470085999
1621785890780.287,-1.040493776555861,-0.43397965508622843,-0.18642069482629342,4.462,-7.924,-9.248
1621785890785.092,-0.949,-0.372,0.031,3.6139697837051705,-8.309191462697651,-9.591170575857907
1621785890789.977,-0.85,-0.332,0.194,2.751806448618374,-8.700802456911223,-9.940060370702726
1621785890794.86,-0.738,-0.311,0.304,1.889987823746016,-9.092256877185383,-10.288810672401523
1621785890796.067,-0.7061176499999999,-0.3174259,0.32550205,1.677,-9.189,-10.375
1621785890799.743,-0.609,-0.337,0.391,0.9891912631725548,-8.791273199944293,-10.646908128684833
1621785890804.625,-0.466,-0.405,0.466,0.07572169351469293,-8.263057564644168,-11.008025671974375
1621785890809.509,-0.319,-0.475,0.518,-0.8381133187874283,-7.7346306113922285,-11.369287683951534
1621785890811.844,-0.2663769507803121,-0.49987635054021606,0.5357004801920768,-1.275,-7.482,-11.542
1621785890814.39,-0.209,-0.527,0.555,-1.4522382279186403,-7.25407615863286,-11.304552428717377
1621785890819.271,-0.122,-0.557,0.56,-1.7920468096962943,-6.817090987895112,-10.849307962601777
1621785890824.154,-0.045,-0.597,0.55,-2.1319913624965174,-6.379930961889725,-10.39388133494319
1621785890827.616,0.01175405243145887,-0.609060236141685,0.5386491895137082,-2.373,-6.07,-10.071
1621785890829.034,0.035,-0.614,0.534,-2.295407752561999,-6.001218923186476,-9.90700433449952
1621785890833.914,0.119,-0.616,0.525,-2.0283637728722255,-5.764499752314313,-9.342591566302362
1621785890838.795,0.201,-0.593,0.529,-1.7612797145422459,-5.527745054026441,-8.778094089600296
1621785890843.387,0.28474611036069836,-0.5864132272750012,0.5252361298714293,-1.51,-5.305,-8.247
1621785890843.675,0.29,-0.586,0.525,-1.4931504282240704,-5.288168703247688,-8.209901702055166
1621785890848.553,0.37,-0.559,0.494,-1.2078500518824824,-5.003177763322957,-7.581745775836701
1621785890853.433,0.428,-0.527,0.476,-0.9224211618578575,-4.718058449100962,-6.95330689649832
1621785890858.311,0.445,-0.469,0.459,-0.6371207855162694,-4.43306750917623,-6.325150970279855
1621785890859.151,0.43845745745745746,-0.4572922922922923,0.4605495495495496,-0.588,-4.384,-6.217
1621785890863.189,0.407,-0.401,0.468,-0.3444106296651903,-4.3186842382383,-5.702158113172484
1621785890868.068,0.349,-0.312,0.478,-0.05008574658531295,-4.239764316907734,-5.080083439155078
1621785890872.945,0.271,-0.227,0.496,0.24410659088797348,-4.16087993619723,-4.458288908848763
1621785890874.916,0.23826506808169806,-0.18901131357629156,0.49802067480977175,0.363,-4.129,-4.207
1621785890877.822,0.19,-0.133,0.501,0.3829191781458698,-4.083628538667741,-4.0911736678184605
1621785890882.698,0.133,-0.021,0.513,0.41634149402668236,-4.007499930272557,-3.8968290902892915
1621785890887.575,0.08,0.084,0.527,0.4497705037420394,-3.931356074809799,-3.7024455893518446
1621785890890.672,0.036798477564102566,0.1468963341346154,0.5327178485576923,0.471,-3.883,-3.579
1621785890892.45,0.012,0.183,0.536,0.4366935283907761,-3.8631383585420283,-3.581257004711133
1621785890897.325,-0.061,0.269,0.543,0.34262162162162163,-3.8086756756756754,-3.5874459459459462
1621785890902.2,-0.129,0.337,0.565,0.24854971485246716,-3.754212992809323,-3.593634887180759
1621785890906.426,-0.18013609052673743,0.4020035049068696,0.5745338473863408,0.167,-3.707,-3.599
1621785890907.076,-0.188,0.412,0.576,0.12247377069510759,-3.6984991628945245,-3.616414336206362
1621785890911.95,-0.232,0.466,0.581,-0.21145622248403298,-3.6347460780058287,-3.7470153159298074
1621785890916.823,-0.26,0.492,0.578,-0.5453193092329633,-3.5710057667266075,-3.877590128356173
1621785890921.698,-0.291,0.504,0.572,-0.8793162088423141,-3.5072399082284367,-4.008217275376698
1621785890922.175,-0.2943291240729605,0.5062520545199439,0.5713145921026257,-0.912,-3.501,-4.021
1621785890926.57,-0.325,0.527,0.565,-1.2268891404469118,-3.5858637399786004,-4.004529734675206
1621785890931.443,-0.367,0.524,0.553,-1.576027416378495,-3.679957743421155,-3.9862680695333945
1621785890936.316,-0.401,0.51,0.536,-1.9251482004124862,-3.77404703273528,-3.9680073193046663
1621785890937.919,-0.4102126678693125,0.504077570655442,0.5274453798356384,-2.04,-3.805,-3.962
1621785890941.188,-0.429,0.492,0.51,-2.1357392787902287,-3.9719726250484686,-3.962
1621785890946.059,-0.442,0.454,0.487,-2.2783972392400154,-4.22077305932532,-3.962
1621785890950.93,-0.443,0.428,0.475,-2.42104804963164,-4.469561023652578,-3.962
1621785890953.66,-0.43907688452285487,0.4123075380914194,0.475,-2.501,-4.609,-3.962
1621785890955.801,-0.436,0.4,0.475,-2.56903618252626,-4.690371274301407,-3.970028269538099
1621785890960.671,-0.431,0.361,0.463,-2.7237816480737305,-4.875446851096181,-3.9882882344727
1621785890965.541,-0.412,0.305,0.449,-2.8785348714527315,-5.060531706257467,-4.006549114831422
1621785890969.395,-0.38430109790946004,0.2654301398706572,0.4276322755301549,-3.001,-5.207,-4.021
1621785890970.411,-0.377,0.255,0.422,-3.035807384300214,-5.203189915262128,-4.0368215383182795
1621785890975.28,-0.333,0.202,0.384,-3.2026419126548094,-5.1849278796908465,-4.112655414843095
1621785890980.149,-0.278,0.154,0.335,-3.3694680758605706,-5.1666667597852065,-4.188485489027532
1621785890985.018,-0.22,0.106,0.286,-3.536302604215166,-5.148404724213924,-4.264319365552348
1621785890985.126,-0.21833742915893475,0.10495812227293244,0.284913787050504,-3.54,-5.148,-4.266
1621785890989.886,-0.145,0.059,0.237,-3.400480627735867,-5.198541724876595,-4.132533528918692
1621785890994.753,-0.079,0.031,0.195,-3.2578269535251936,-5.250218869330353,-3.9960687342833197
1621785890999.621,-0.023,0.014,0.164,-3.115137499611934,-5.301908975194809,-3.859569712210115
1621785891000.854,-0.01500039601999901,0.014749962873125093,0.15700034651749914,-3.079,-5.315,-3.825
1621785891004.553,0.009,0.017,0.136,-2.9643869956856346,-5.421221300722948,-3.588928127915112
1621785891009.537,0.023,0.031,0.126,-2.809953329057836,-5.56434768540112,-3.2708364330690296
1621785891015.182,0.028,0.044,0.117,-2.6350495423274256,-5.726445414528918,-2.9105818126166043
1621785891017.604,0.01928249938979741,0.051264583841835486,0.11118833292653162,-2.56,-5.796,-2.756
1621785891020.183,0.01,0.059,0.105,-2.486398295222694,-5.796,-2.7371605180830323
1621785891025.183,-0.007,0.066,0.075,-2.3437096437801324,-5.796,-2.700637175631357
1621785891030.183,-0.044,0.096,0.051,-2.20102099233757,-5.796,-2.6641138331796816
1621785891033.758,-0.08760588752196835,0.13102768014059754,0.04599604569420035,-2.099,-5.796,-2.638
1621785891035.184,-0.105,0.145,0.044,-2.061749512626377,-5.799442580586662,-2.7037621163349503
1621785891040.184,-0.18,0.199,0.042,-1.9311400311314626,-5.811513125085007,-2.9343404663674417
1621785891045.184,-0.269,0.255,0.047,-1.8005305496365478,-5.8235836695833525,-3.1649188163999336
1621785891049.913,-0.3777458504198399,0.29471587580550673,0.05740177699668034,-1.677,-5.835,-3.383
1621785891050.185,-0.384,0.297,0.058,-1.7040729982166067,-5.816345222621891,-3.432701175830487
1621785891055.185,-0.513,0.295,0.063,-2.2017884411933624,-5.473392044252335,-4.3464175860713965
1621785891060.185,-0.663,0.246,0.045,-2.6995038841701176,-5.1304388658827795,-5.260133996312305
1621785891065.186,-0.822,0.208,0.019,-3.1973165371943297,-4.787418704470574,-6.17402886678959
1621785891066.067,-0.8471925781249999,0.196901171875,0.013538671875,-3.285,-4.727,-6.335
1621785891070.186,-0.965,0.145,-0.012,-3.9753445336235433,-4.8144725434181295,-7.102871219335238
1621785891075.186,-1.056,0.04,-0.084,-4.813316087002525,-4.920650690004384,-8.034948185432064
1621785891080.187,-1.091,-0.093,-0.187,-5.651451306700524,-5.026849574509893,-8.967207197811334
1621785891082.219,-1.08449765625,-0.161681005859375,-0.228858837890625,-5.992,-5.07,-9.346
1621785891085.187,-1.075,-0.262,-0.29,-5.583037131069502,-6.0411490229859,-9.419855828081788
1621785891090.187,-1.047,-0.403,-0.333,-4.894087591240876,-7.677172054223149,-9.544275286757038
1621785891095.188,-0.972,-0.499,-0.278,-4.205003490955253,-9.313514621208686,-9.66871904610781
1621785891098.374,-0.8898163444639718,-0.5359507908611599,-0.20792091388400705,-3.766,-10.356,-9.748
1621785891100.189,-0.843,-0.557,-0.168,-3.2812593879864,-10.64897879863997,-9.786532104268984
1621785891105.189,-0.63,-0.564,-0.077,-1.9458426898375516,-11.456108983755195,-9.892684578768417
1621785891110.189,-0.335,-0.548,-0.019,-0.6104259916887038,-12.26323916887042,-9.998837053267849
1621785891114.53,-0.0295083951581413,-0.49939906286606794,0.005300468566966029,0.549,-12.964,-10.091
1621785891115.191,0.017,-0.492,0.009,0.6424661297390412,-12.930335831608215,-10.062121624684567
1621785891120.191,0.389,-0.435,0.031,1.3495907463092522,-12.675647184152073,-9.843640233306637
1621785891125.193,0.712,-0.344,0.08,2.0570261110019796,-12.420846612973904,-9.625062829598512
1621785891130.193,0.955,-0.239,0.194,2.7641507275721904,-12.166157965517762,-9.406581438220583
1621785891130.687,0.970110281195079,-0.22329715875805506,0.21049292130443273,2.834,-12.141,-9.385
1621785891135.194,1.108,-0.08,0.361,2.8641272004714486,-11.008440426721467,-9.992286253947627
1621785891140.194,1.173,0.04,0.49,2.897549283005183,-9.752017694434791,-10.665988787984103
1621785891145.196,1.145,0.164,0.541,2.930984421039907,-8.495104172018314,-11.339954487072937
1621785891146.844,1.08929931640625,0.195640625,0.56506005859375,2.942,-8.081,-11.562
1621785891150.196,0.976,0.26,0.614,2.5738117266697893,-7.789975691559275,-11.94450094423713
1621785891155.197,0.752,0.276,0.768,2.0245059298091888,-7.355792010998474,-12.515160036863017
1621785891160.198,0.646,0.194,0.93,1.4752001329485882,-6.921608330437673,-13.085819129488904
1621785891163.004,0.6734925307557118,0.15584710017574693,0.9754468365553602,1.167,-6.678,-13.406
1621785891165.199,0.695,0.126,1.011,0.7232583150736683,-6.587376698148848,-13.420673638080846
1621785891170.2,0.862,0.113,1.025,-0.2877087268605969,-6.380911598035512,-13.454104268983755
1621785891175.202,1.091,0.127,1.021,-1.2988731847374388,-6.174406180581791,-13.487541428031733
1621785891179.16,1.2485287109375,0.11750078125,1.021,-2.099,-6.011,-13.514
1621785891180.202,1.29,0.115,1.021,-2.1217611191684798,-5.844128112158569,-13.359701534928691
1621785891185.203,1.41,0.063,1.047,-2.2310016920473776,-5.043236886632826,-12.619155668358713
1621785891190.204,1.475,0.0,1.049,-2.3402475978970267,-4.242306562726614,-11.878573649383611
1621785891195.206,1.538,-0.044,1.014,-2.4495095026589317,-3.441258943678995,-11.137883173193135
1621785891195.32,1.5391855106424526,-0.044478763913298185,1.013316051552431,-2.452,-3.423,-11.121
1621785891200.207,1.59,-0.065,0.984,-2.217587648649874,-3.8706519741912087,-9.904777980930508
1621785891205.208,1.625,-0.093,0.962,-1.9777064174435999,-4.328747744752867,-8.660181296181568
1621785891210.21,1.618,-0.101,0.894,-1.737778343583312,-4.786932969673159,-7.415341573610964
1621785891211.477,1.5944367311072056,-0.0956792618629174,0.8757574692442882,-1.677,-4.903,-7.1
1621785891215.211,1.525,-0.08,0.822,-1.1966291640857518,-5.048104802767748,-6.481456119412004
1621785891220.212,1.351,-0.026,0.782,-0.5532450786360683,-5.242450741037301,-5.653010137329848
1621785891225.214,1.107,0.04,0.759,0.09029605233339888,-5.436844117780362,-4.824361937423516
1621785891227.637,0.966502050380785,0.08505623901581721,0.7541552431165788,0.402,-5.531,-4.423
1621785891230.215,0.817,0.133,0.749,0.2893523412356648,-5.499726712297719,-4.300938443406917
1621785891235.216,0.489,0.237,0.759,0.07084148497348264,-5.439063641720684,-4.064166764879198
1621785891240.217,0.129,0.375,0.744,-0.1476693712886995,-5.378400571143647,-3.82739508635148
1621785891243.795,-0.13065272354549007,0.4565438305349473,0.6924986333463491,-0.304,-5.335,-3.658
1621785891245.219,-0.234,0.489,0.672,-0.4932984226748051,-5.3401995376805464,-3.8852814860699825
1621785891250.221,-0.56,0.618,0.572,-1.158195745452348,-5.358462546080861,-4.683591632924397
1621785891255.222,-0.822,0.764,0.478,-1.822963256179368,-5.37672198888016,-5.481745920710702
1621785891259.954,-1.0036358045780662,0.9030649128800821,0.3852900580799453,-2.452,-5.394,-6.237
1621785891260.224,-1.014,0.911,0.38,-2.461490263615077,-5.414801722184455,-6.313189440290052
1621785891265.226,-1.114,1.038,0.283,-2.6372918196238384,-5.800141400407886,-7.724554044867437
1621785891270.227,-1.143,1.11,0.183,-2.8130590527985495,-6.185405846363018,-9.13564309993202
1621785891275.228,-1.108,1.143,0.098,-2.9888262859732606,-6.570670292318151,-10.5467321549966
1621785891276.115,-1.0913348623853212,1.140517958227601,0.08612165723209057,-3.02,-6.639,-10.797
1621785891280.231,-1.014,1.129,0.031,-3.1899172396077304,-7.021377476238686,-11.271596427869868
1621785891285.232,-0.866,1.073,-0.031,-3.3963698605297754,-7.485973254355612,-11.84823995527282
1621785891290.234,-0.696,0.984,-0.096,-3.602862796355339,-7.950659756115989,-12.42499608637181
1621785891292.272,-0.6251057640685246,0.9485528820342622,-0.12818761286543998,-3.687,-8.14,-12.66
1621785891295.236,-0.522,0.897,-0.175,-3.7787284939331207,-8.096704150863568,-12.458564227322867
1621785891300.238,-0.361,0.813,-0.264,-3.9335207996494357,-8.023642182565467,-12.118640323969839
1621785891305.239,-0.199,0.724,-0.353,-4.0882828842986445,-7.950594478611039,-11.778782786080177
1621785891308.429,-0.11100917431192661,0.6755412844036697,-0.399545871559633,-4.187,-7.904,-11.562
1621785891310.242,-0.061,0.648,-0.426,-4.085791955638155,-7.781922004140036,-11.343089917350376
1621785891315.243,0.068,0.586,-0.49,-3.8066180287989364,-7.4451800613450585,-10.739244760739162
1621785891320.245,0.18,0.511,-0.545,-3.527375957572186,-7.108355922215675,-10.135252209781969
1621785891324.587,0.2633136833886395,0.4372326761663088,-0.5901282451688463,-3.285,-6.816,-9.611
1621785891325.248,0.276,0.426,-0.597,-3.2701474072283334,-6.754584733470325,-9.517874652483984
1621785891330.25,0.372,0.332,-0.646,-3.1577766831862686,-6.289933337362505,-8.813313308352472
1621785891335.251,0.442,0.246,-0.681,-3.0454278979813854,-5.82537265804424,-8.108889520125711
1621785891340.254,0.487,0.185,-0.716,-2.93303523510214,-5.360630545146863,-7.404190620089448
1621785891340.745,0.4892585777734394,0.17920625701595977,-0.7199279613451119,-2.922,-5.315,-7.335
1621785891345.256,0.51,0.126,-0.756,-2.7796351769878083,-5.043948542853259,-6.686263041803266
1621785891350.258,0.527,0.077,-0.784,-2.6217756492574518,-4.74339638319409,-5.966918840930036
1621785891355.26,0.513,0.028,-0.799,-2.4639161215270957,-4.442844223534922,-5.247574640056806
1621785891356.905,0.4906364701288559,0.017804861382272552,-0.8055775087856306,-2.412,-4.344,-5.011
1621785891360.262,0.445,-0.003,-0.819,-2.2042552767159713,-4.201487119827156,-4.701460362306798
1621785891365.264,0.356,-0.026,-0.82,-1.8947080846691948,-3.9891377460830677,-4.240235046157101
1621785891370.267,0.246,-0.056,-0.822,-1.5850853490866785,-3.7767365494734615,-3.7788971701391514
1621785891373.064,0.1873000195198126,-0.07668475502635175,-0.8102600039039626,-1.412,-3.658,-3.521
1621785891375.27,0.141,-0.093,-0.801,-1.2473541329868403,-3.6124015592185774,-3.458063229939414
1621785891380.271,0.045,-0.11,-0.777,-0.8741131037817094,-3.509032982307704,-3.315389834861831
1621785891385.273,-0.047,-0.12,-0.756,-0.5007991901732968,-3.4056442201640804,-3.172688579328267
1621785891389.223,-0.12277616236522416,-0.13578670049275504,-0.7394239644826072,-0.206,-3.324,-3.06
1621785891390.277,-0.143,-0.14,-0.735,-0.13175868737535504,-3.3291538345319394,-3.045256118933946
1621785891395.279,-0.25,-0.147,-0.696,0.22050069499002842,-3.3536076932374446,-2.9752995104852844
1621785891400.281,-0.36,-0.155,-0.644,0.5727600773554119,-3.37806155194295,-2.905342902036623
1621785891405.283,-0.454,-0.154,-0.592,0.9250194597207955,-3.402515410648456,-2.8353862935879617
1621785891405.382,-0.45590201054069884,-0.1537424360726137,-0.5910688073394496,0.932,-3.403,-2.834
1621785891410.286,-0.55,-0.141,-0.545,1.0658318098720292,-3.48918647166362,-2.860705667276051
1621785891415.289,-0.649,-0.127,-0.504,1.202375436263919,-3.5771193285690543,-2.8879524680073128
1621785891420.292,-0.749,-0.117,-0.459,1.3389123997159564,-3.665047894601659,-2.9151979391723453
1621785891421.541,-0.7682274502147598,-0.11425322139789146,-0.4485122998828583,1.373,-3.687,-2.922
1621785891425.294,-0.826,-0.106,-0.417,1.4754165218836397,-3.86233894336088,-3.083869196718587
1621785891430.297,-0.871,-0.089,-0.377,1.6119518967835507,-4.096089982021725,-3.2996632019458842
1621785891435.299,-0.897,-0.065,-0.335,1.7484539589974468,-4.329783988759801,-3.515404556510704
1621785891437.701,-0.896039820417724,-0.055398204177239896,-0.32059730626585986,1.814,-4.442,-3.619
1621785891440.302,-0.895,-0.045,-0.305,1.8503760575296109,-4.58251459390863,-3.7389122250423013
1621785891445.305,-0.885,-0.019,-0.281,1.9203420957215374,-4.85278163524293,-3.9695524836838287
1621785891450.307,-0.864,-0.01,-0.258,1.9902944766739183,-5.122995920957216,-4.200147721779067
1621785891453.861,-0.8277772356930282,0.008466507293750305,-0.24095399326730743,2.04,-5.315,-4.364
1621785891455.311,-0.813,0.016,-0.234,2.0144283210708407,-5.3686556631566225,-4.413259128884591
1621785891460.313,-0.74,0.019,-0.206,1.9262127026332885,-5.553753697632609,-4.583190267559034
1621785891465.316,-0.651,0.033,-0.188,1.83797986131045,-5.738887869952109,-4.753154582949343
1621785891470.021,-0.5607374249890228,0.036760940625457386,-0.1654343562472557,1.755,-5.913,-4.913
1621785891470.32,-0.555,0.037,-0.164,1.747931695970032,-5.921900141985379,-4.911001631321371
1621785891475.322,-0.471,0.038,-0.143,1.6297150323243308,-6.070754108513081,-4.87757911908646
1621785891480.325,-0.394,0.028,-0.134,1.5114752885022051,-6.219637136728899,-4.8441500815660685
1621785891485.328,-0.314,0.023,-0.122,1.3932355446800797,-6.368520164944717,-4.8107210440456765
1621785891486.184,-0.29996720831503443,0.02145981554677207,-0.11601039379300249,1.373,-6.394,-4.805
1621785891490.331,-0.232,0.014,-0.087,1.2949966464750222,-6.51228798018097,-4.779854182087343
1621785891495.334,-0.155,0.014,-0.051,1.2008929893200804,-6.654991223432378,-4.749518134715026
1621785891500.337,-0.103,0.012,-0.021,1.1067893321651383,-6.7976944666837875,-4.719182087342709
1621785891502.346,-0.08894843147777723,0.007182319363809338,-0.012569058886666342,1.069,-6.855,-4.707
1621785891505.341,-0.068,0.0,0.0,0.7582042419481538,-6.922274215964711,-4.6506601607347875
1621785891510.344,-0.047,-0.026,-0.003,0.23906284367635489,-7.034646504320503,-4.55655223880597
1621785891515.346,-0.017,-0.042,-0.024,-0.27997721916732154,-7.146996857816182,-4.4624626865671635
1621785891518.507,0.010157894736842102,-0.060947368421052625,-0.04989473684210527,-0.608,-7.218,-4.403
1621785891520.351,0.026,-0.072,-0.065,-0.6930010574177857,-7.1810330971766945,-4.522686052659405
1621785891525.354,0.08,-0.105,-0.105,-0.9236169277481533,-7.08073840994577,-4.847405580144715
1621785891530.356,0.162,-0.145,-0.14,-1.1541877822927837,-6.98046330004985,-5.172061722986752
1621785891534.669,0.23439810704005465,-0.16740893789335026,-0.14689505781333853,-1.353,-6.894,-5.452
1621785891535.36,0.246,-0.171,-0.148,-1.3324743520029,-6.8424293094072866,-5.517425502990756
1621785891540.364,0.314,-0.175,-0.138,-1.1838718506434656,-6.4690655247417075,-5.991095976073954
1621785891545.368,0.365,-0.171,-0.106,-1.0352693492840312,-6.095701740076128,-6.464766449157151
1621785891550.371,0.387,-0.166,-0.063,-0.8866885988762008,-5.722392604676454,-6.93836759108211
1621785891550.832,0.38672359945344525,-0.16682920163966428,-0.0581169236775327,-0.873,-5.688,-6.982
1621785891555.374,0.384,-0.175,-0.01,-0.4900293602368151,-5.811910529813327,-6.924118890835498
1621785891560.378,0.36,-0.202,0.051,-0.06811115809822998,-5.948422582009303,-6.860351356249622
1621785891565.381,0.304,-0.23,0.106,0.35374528786322723,-6.084914652933002,-6.796593155319277
1621785891566.997,0.27622706869633096,-0.22321823770491803,0.12020940671350507,0.49,-6.129,-6.776
1621785891570.385,0.218,-0.209,0.15,0.46337755857339236,-6.564811462408797,-6.599285684073777
1621785891575.388,0.134,-0.171,0.187,0.42406451759090014,-7.208369038807232,-6.338333766371093
1621785891580.392,0.082,-0.124,0.204,0.3847418843184942,-7.852083641746854,-6.077318177011737
1621785891583.159,0.09139993169398908,-0.1068589480874317,0.2089764344262295,0.363,-8.208,-5.933
1621785891585.396,0.099,-0.093,0.213,-0.004859684630256156,-8.279966529724504,-6.080946577452876
1621785891590.399,0.164,-0.103,0.208,-0.8275357358627355,-8.440911430642823,-6.411812152609956
1621785891595.403,0.255,-0.182,0.173,-1.650412518124698,-8.60189560173997,-6.742758458192363
