time,gyro_x,gyro_y,gyro_z,acc_x,acc_y,acc_z
1621784888646.576,,,,-1.589,-3.766,-8.669
1621784888665.219,,,,-1.657,-3.344,-8.767
1621784888682.877,0.229,1.733,1.698,-1.1454303714296759,-3.417613844548371,-9.068909944730027
1621784888684.169,0.2200504867183633,1.7406398284111533,1.7045484243524172,-1.108,-3.423,-9.091
1621784888688.796,0.188,1.768,1.728,-0.9830391174792368,-3.5431546947315034,-9.263061522855512
1621784888694.745,0.161,1.789,1.766,-0.8223675901857606,-3.6976465478983074,-9.484293856590376
1621784888700.723,0.138,1.801,1.78,-0.6609246180181323,-3.852880174982565,-9.706588410575034
1621784888703.423,0.13395448079658606,1.801,1.78,-0.588,-3.923,-9.807
1621784888706.73,0.129,1.801,1.78,-0.4206442103686693,-4.022399196265881,-9.893213588597959
1621784888712.767,0.143,1.796,1.778,-0.11511641664378602,-4.203864188902479,-10.050606694456231
1621784888718.833,0.171,1.801,1.784,0.19186933080398372,-4.386195117689639,-10.20875086738387
1621784888722.985,0.19484700132206242,1.810538800528825,1.7989895436881536,0.402,-4.511,-10.317
1621784888724.927,0.206,1.815,1.806,0.46275726291184327,-4.534904496883349,-10.294202192787177
1621784888729.797,0.236,1.812,1.813,0.6151316507123775,-4.594855075690116,-10.237027103739983
1621784888735.406,0.264,1.815,1.805,0.7906203806767587,-4.66389982190561,-10.171178873552984
1621784888740.532,0.2904743684508022,1.8213903647984695,1.7903934518892124,0.951,-4.727,-10.111
1621784888741.021,0.293,1.822,1.789,0.9494132629769865,-4.724364402910927,-10.09042620639652
1621784888746.642,0.323,1.82,1.765,0.9311741051048632,-4.694068852547061,-9.853935430596955
1621784888752.269,0.344,1.815,1.74,0.9129159349069523,-4.663741722387819,-9.617198139047773
1621784888757.903,0.356,1.803,1.716,0.8946347914820484,-4.633376433309165,-9.380162974301136
1621784888758.715,0.35672000692730654,1.8027119972290773,1.711967961207083,0.892,-4.629,-9.346
1621784888763.542,0.361,1.801,1.688,0.892,-4.597790427011986,-9.070932577054794
1621784888769.189,0.356,1.819,1.662,0.892,-4.561278494220891,-8.749132491438356
1621784888774.841,0.34,1.82,1.639,0.892,-4.524733411815069,-8.427040239726027
1621784888776.965,0.332117865309116,1.82075067949437,1.6269891280900814,0.892,-4.511,-8.306
1621784888780.5,0.319,1.822,1.607,0.8333289968275972,-4.486489416437845,-8.16221744288342
1621784888786.165,0.278,1.84,1.571,0.7393030311108741,-4.447208832075924,-7.9317919676894775
1621784888791.836,0.225,1.836,1.546,0.6451798139212498,-4.407887619631575,-7.701128162405694
1621784888795.281,0.1934439857222724,1.8390342321420892,1.5247603750053755,0.588,-4.384,-7.561
1621784888797.513,0.173,1.841,1.511,0.5535128845438606,-4.427958928856065,-7.516919637638808
1621784888803.197,0.103,1.827,1.48,0.465684288826311,-4.539909462834069,-7.404659848042081
1621784888808.887,0.033,1.812,1.457,0.3777651559428298,-4.651975399819351,-7.292284336645237
1621784888813.661,-0.020639192490677645,1.780989841841327,1.436885302815996,0.304,-4.746,-7.198
1621784888814.583,-0.031,1.775,1.433,0.28930136206599866,-4.7690478642434515,-7.219098044925675
1621784888820.286,-0.099,1.74,1.403,0.19839707731610784,-4.91158825631726,-7.349579705348988
1621784888825.995,-0.15,1.688,1.386,0.10739161052060309,-5.054287304591844,-7.480206599864985
1621784888831.71,-0.188,1.62,1.358,0.0162966365309013,-5.197126702582498,-7.61096197069374
1621784888832.105,-0.1892428626296249,1.6153047411769728,1.3568952332181112,0.01,-5.207,-7.62
1621784888837.431,-0.206,1.552,1.342,0.07214362017804153,-5.328410220903396,-7.7949227827233765
1621784888843.158,-0.209,1.491,1.319,0.13896759643916914,-5.458964470820969,-7.983019901088031
1621784888848.892,-0.201,1.433,1.29,0.20587418397626112,-5.589680118694361,-8.171349554896143
1621784888850.617,-0.19198353681881994,1.415568171183052,1.286393414727528,0.226,-5.629,-8.228
1621784888854.631,-0.171,1.375,1.278,0.3467953685206603,-5.677836767952896,-8.318974687204289
1621784888860.379,-0.147,1.335,1.262,0.5197600541478289,-5.747765245505205,-8.449239682998632
1621784888866.13,-0.117,1.304,1.244,0.6928202476080328,-5.817732336242246,-8.579576608663652
1621784888869.193,-0.10210678706176608,1.293893891220484,1.2322981898342447,0.785,-5.855,-8.649
1621784888871.889,-0.089,1.285,1.222,0.8487730921853923,-5.871919391804288,-8.636274303600192
1621784888877.655,-0.054,1.285,1.204,0.9851788964993387,-5.908108686826355,-8.609055004780178
1621784888883.426,-0.017,1.279,1.197,1.1217002108516574,-5.944328627368807,-8.581812656337991
1621784888887.835,0.005132998055954692,1.2782367931704843,1.187841518045812,1.226,-5.972,-8.561
1621784888889.203,0.012,1.278,1.185,1.2496212932024642,-5.9662957867808295,-8.517267698653022
1621784888894.988,0.04,1.279,1.18,1.3495195912081026,-5.942171739584421,-8.332316670147227
1621784888900.779,0.073,1.285,1.175,1.4495190691239428,-5.918023258849327,-8.147178317844837
1621784888906.54,0.10083133951137321,1.2949397641112046,1.175,1.549,-5.894,-7.963
1621784888906.575,0.101,1.295,1.175,1.550023875234326,-5.8935066782961885,-7.962104574567799
1621784888912.372,0.126,1.309,1.176,1.7200372838991878,-5.811591126848573,-7.813420120808165
1621784888918.174,0.15,1.326,1.187,1.8901938918975214,-5.7296065793584665,-7.66461043272235
1621784888923.985,0.169,1.342,1.204,2.0606154186627785,-5.6474943891897516,-7.515569061133098
1621784888925.294,0.17057557309597784,1.343575573095978,1.2071511461919555,2.099,-5.629,-7.482
1621784888929.8,0.176,1.349,1.218,2.089420159343939,-5.551403290685905,-7.3505166869955625
1621784888935.621,0.171,1.365,1.232,2.077044792775024,-5.451162821477694,-7.180664780837205
1621784888941.449,0.161,1.361,1.257,2.0646548932084188,-5.350804634988192,-7.010613409285547
1621784888944.109,0.1537050552393706,1.3641915383327754,1.2633830766655507,2.059,-5.305,-6.933
1621784888947.283,0.145,1.368,1.271,2.0211736516105674,-5.23741692421088,-6.926443432945832
1621784888953.123,0.126,1.365,1.292,1.951575614550063,-5.113068431329445,-6.914379773188678
1621784888958.968,0.093,1.382,1.307,1.8819193875835674,-4.9886159724826395,-6.902306027181152
1621784888962.989,0.07375774013185346,1.3799383292998415,1.3248678127347076,1.834,-4.903,-6.894
1621784888964.819,0.065,1.379,1.333,1.8150643639644284,-4.897299987111741,-6.90250171413842
1621784888970.677,0.031,1.379,1.363,1.7544531511792756,-4.879054775099884,-6.929714911715427
1621784888976.542,0.01,1.391,1.393,1.693768681531125,-4.860787511277227,-6.956961000128882
1621784888981.932,-0.0010205915387495323,1.3946735305129165,1.4187147135904157,1.638,-4.844,-6.982
1621784888982.411,-0.002,1.395,1.421,1.6308176178181957,-4.848208623945128,-6.989434395591692
1621784888988.288,-0.012,1.395,1.45,1.542692497398944,-4.89984685240132,-7.080651625499339
1621784888994.171,-0.017,1.395,1.47,1.454483179838927,-4.951534417427717,-7.171956006833391
1621784889000.058,-0.014,1.379,1.485,1.3662079688643982,-5.003260593682967,-7.263328593631588
1621784889000.939,-0.014,1.3763098048962346,1.4867934634025104,1.353,-5.011,-7.277
1621784889005.952,-0.014,1.361,1.497,1.319617282212123,-5.047011278243615,-7.4213079690200345
1621784889011.854,0.0,1.354,1.508,1.2803133713115278,-5.089409985278116,-7.591212276771427
1621784889017.76,0.016,1.344,1.506,1.2409834474812775,-5.131836753504448,-7.761229034116367
1621784889020.01,0.027034847233691164,1.3394338563170933,1.5101856317093312,1.226,-5.148,-7.826
1621784889023.673,0.045,1.332,1.517,1.2185340852546027,-5.187435344552611,-7.852226418464601
1621784889029.591,0.068,1.328,1.511,1.2064723834798474,-5.251145871875678,-7.894597011878485
1621784889035.516,0.087,1.314,1.508,1.1943962514513187,-5.314932620539189,-7.93701829618383
1621784889039.145,0.10290845099411353,1.3054339110031696,1.5092237269995472,1.187,-5.354,-7.963
1621784889041.447,0.113,1.3,1.51,1.189278144432152,-5.365750429176363,-7.953647617594323
1621784889047.384,0.134,1.306,1.51,1.1951536260634037,-5.3960555449586085,-7.929527219318659
1621784889053.327,0.152,1.292,1.51,1.2010349063441803,-5.426390569564719,-7.905383016060733
1621784889058.344,0.16549365945746297,1.2810364016908113,1.508313292567817,1.206,-5.452,-7.885
1621784889059.276,0.168,1.279,1.508,1.2041132938746024,-5.445372340021039,-7.876921027616887
1621784889065.231,0.18,1.267,1.508,1.1920565645555823,-5.403019213951661,-7.825293494379032
1621784889071.192,0.182,1.251,1.51,1.179987972269046,-5.360624415406649,-7.773615163305915
1621784889077.159,0.187,1.22,1.506,1.1679070227246804,-5.318186208032851,-7.721883917821067
1621784889077.607,0.187,1.2185751941152432,1.5054750715161422,1.167,-5.315,-7.718
1621784889083.133,0.187,1.201,1.499,1.1978834565093803,-5.295554860716316,-7.661952245594088
1621784889089.112,0.188,1.18,1.496,1.2312978965321204,-5.274516139220517,-7.601311224812077
1621784889095.098,0.188,1.157,1.497,1.2647505400795906,-5.253453363653591,-7.54060087170741
1621784889096.932,0.18641872605565613,1.1519399233780996,1.4960512356333937,1.275,-5.247,-7.522
1621784889100.897,0.183,1.141,1.494,1.2917428563876185,-5.221671063413602,-7.477781686976289
1621784889106.613,0.176,1.122,1.492,1.3158793317649546,-5.185156908355581,-7.414036636620761
1621784889112.329,0.162,1.112,1.489,1.3400158071422907,-5.14864275329756,-7.350291586265232
1621784889115.404,0.15393042029728343,1.1093101400990946,1.4868481120792756,1.353,-5.129,-7.316
1621784889118.045,0.147,1.107,1.485,1.338988527168669,-5.129,-7.282258085834754
1621784889123.761,0.12,1.1,1.477,1.308661207819501,-5.129,-7.209224949442881
1621784889129.477,0.091,1.098,1.464,1.2783338884703332,-5.129,-7.136191813051006
1621784889133.875,0.07099555802332039,1.0964611967710247,1.461691795156537,1.255,-5.129,-7.08
1621784889135.193,0.065,1.096,1.461,1.2515034694228202,-5.126217047091632,-7.084210108245992
1621784889140.909,0.031,1.091,1.452,1.2363412590370204,-5.114149165355996,-7.102466647281955
1621784889146.625,0.0,1.086,1.443,1.2211784010256275,-5.102080768163254,-7.120723966112
1621784889152.342,-0.031,1.089,1.435,1.2060129525118621,-5.0900103091420945,-7.1389844041183705
1621784889152.347,-0.031025626788536282,1.0889897492845855,1.4349880408320164,1.206,-5.09,-7.139
1621784889158.058,-0.061,1.077,1.421,1.2273332584388463,-5.09,-7.163425035024186
1621784889163.774,-0.094,1.082,1.421,1.2486838439375114,-5.09,-7.187869908276282
1621784889169.491,-0.119,1.08,1.419,1.2700389891887605,-5.09,-7.212320002114668
1621784889170.819,-0.12387850706751505,1.0804646197207157,1.4169092112567794,1.275,-5.09,-7.218
1621784889175.208,-0.14,1.082,1.41,1.2935327447429983,-5.127303088777573,-7.222514386539961
1621784889180.924,-0.162,1.079,1.403,1.317669539128481,-5.175886123630404,-7.228393862095399
1621784889186.641,-0.178,1.08,1.401,1.3418104571708014,-5.224477458664305,-7.234274342131349
1621784889189.291,-0.18588134290107636,1.08,1.4042452588416197,1.353,-5.247,-7.237
1621784889192.357,-0.195,1.08,1.408,1.3790597961854156,-5.2778733891113845,-7.2613999365557715
1621784889198.074,-0.209,1.075,1.41,1.4276537002524552,-5.335443237241762,-7.306898687497522
1621784889203.791,-0.225,1.065,1.408,1.4762476043194945,-5.39301308537214,-7.352397438439272
1621784889207.762,-0.22777879810361765,1.0608318028445736,1.4073053004740956,1.51,-5.433,-7.384
1621784889209.507,-0.229,1.059,1.407,1.5004892605968447,-5.450080511581176,-7.404962446031445
1621784889215.06,-0.23,1.052,1.405,1.470226002661091,-5.504430852363755,-7.471665136991881
1621784889220.61,-0.229,1.042,1.41,1.4399787112716214,-5.558752518532598,-7.538332636380916
1621784889225.744,-0.22714861771438635,1.030891706286318,1.4081486177143863,1.412,-5.609,-7.6
1621784889226.156,-0.227,1.03,1.408,1.4097442694484215,-5.61171608372537,-7.603613772414263
1621784889231.7,-0.216,1.028,1.401,1.3793988136633257,-5.648254489670689,-7.652228431172018
1621784889237.24,-0.208,1.028,1.395,1.3490747392104725,-5.684767150746574,-7.700808836162814
1621784889242.778,-0.194,1.028,1.386,1.3187613554237405,-5.721266939387742,-7.7493721142701295
1621784889243.648,-0.19038465610799843,1.0265853002161733,1.3856856222702607,1.314,-5.727,-7.757
1621784889248.312,-0.171,1.019,1.384,1.3293997158159363,-5.745009837140671,-7.779969067657667
1621784889253.843,-0.154,1.023,1.377,1.3476618892775167,-5.766367294239808,-7.80720756366816
1621784889259.372,-0.126,1.021,1.37,1.3659176139468794,-5.787717209531096,-7.834436441141108
1621784889261.517,-0.1151271987978432,1.0182817996994606,1.3672817996994608,1.373,-5.796,-7.845
1621784889264.896,-0.098,1.014,1.363,1.376788459432826,-5.764366363735903,-7.837612504105989
1621784889270.418,-0.072,1.023,1.356,1.3829797437862696,-5.712669139384649,-7.825539499616775
1621784889275.937,-0.044,1.016,1.353,1.3891677433482974,-5.660999343041716,-7.81347290047082
1621784889279.355,-0.027269154162793786,1.0104230513875978,1.3505213561722658,1.393,-5.629,-7.806
1621784889281.453,-0.017,1.007,1.349,1.3790964225479576,-5.59200234474626,-7.784084191473899
1621784889286.966,0.005,1.0,1.347,1.3425584746808539,-5.494774246184646,-7.726490477039312
1621784889292.475,0.017,0.993,1.344,1.3060480330184152,-5.39761934209985,-7.668940119842587
1621784889297.16,0.026357997871963114,0.9870449104451143,1.3405970916829226,1.275,-5.315,-7.62
1621784889297.982,0.028,0.986,1.34,1.2740749872937813,-5.297332257311227,-7.609084850066622
1621784889303.485,0.035,0.977,1.339,1.2678823198120852,-5.17905230841083,-7.536011373782607
1621784889308.985,0.04,0.977,1.337,1.2616932238080192,-5.060840574733169,-7.462980040934628
1621784889314.482,0.03,0.979,1.342,1.2555076992815835,-4.942697056278245,-7.389990851522686
1621784889314.933,0.028932646170250577,0.9788357917185001,1.3424105207037498,1.255,-4.933,-7.384
1621784889319.977,0.017,0.977,1.347,1.2495529730104766,-4.8851234996184,-7.308314993408729
1621784889325.405,0.002,0.993,1.344,1.2436912232012767,-4.83360180392701,-7.226867522375633
1621784889330.83,-0.023,0.998,1.353,1.2378326372025255,-4.782107916464303,-7.145464011656144
1621784889332.527,-0.03395878378378379,0.9970606756756757,1.3555048648648649,1.236,-4.766,-7.12
1621784889336.25,-0.058,0.995,1.361,1.2568566802975534,-4.791113145664401,-7.103186961800952
1621784889341.666,-0.098,1.005,1.372,1.2871986434243765,-4.827647346164046,-7.078727624178309
1621784889347.078,-0.143,1.012,1.382,1.317517354956665,-4.86415354984578,-7.054287030187995
1621784889350.02,-0.16421654929577464,1.0103679577464788,1.3868961267605633,1.334,-4.884,-7.041
1621784889352.486,-0.182,1.009,1.391,1.310404814524702,-4.943482473563476,-7.082538829519387
1621784889357.889,-0.215,1.002,1.393,1.2587107788284004,-5.0738009707379845,-7.173545095954792
1621784889363.289,-0.246,0.993,1.4,1.2070424383147764,-5.204054691434006,-7.264506126559615
1621784889367.474,-0.25142910143878383,0.975161523843996,1.4038779295991313,1.167,-5.305,-7.335
1621784889368.685,-0.253,0.97,1.405,1.154690236823287,-5.3391474221455715,-7.370468809153241
1621784889374.075,-0.26,0.958,1.412,1.0998993816514533,-5.491137873497946,-7.528340764733101
1621784889379.462,-0.248,0.935,1.41,1.0451383081647247,-5.643045710119323,-7.686126908677911
1621784889384.845,-0.236,0.894,1.405,0.9904169435914694,-5.794843393766038,-7.843798637109326
1621784889384.886,-0.23577129373326677,0.8938780233244089,1.4049847529155512,0.99,-5.796,-7.845
1621784889390.225,-0.206,0.878,1.403,1.0022964899703397,-5.844263723133584,-7.929538368546085
1621784889395.6,-0.166,0.85,1.395,1.0146756350243888,-5.892851867470727,-8.014644990792673
1621784889400.969,-0.127,0.834,1.393,1.0270407230914127,-5.941384838133795,-8.099654971253461
1621784889402.254,-0.11742525128485014,0.8344787374357575,1.3918031564106061,1.03,-5.953,-8.12
1621784889406.337,-0.087,0.836,1.388,0.9790890846311042,-5.890539849200198,-8.087709280529912
1621784889411.699,-0.052,0.831,1.393,0.9122296948770348,-5.808513283066732,-8.04530309350997
1621784889417.057,-0.021,0.829,1.386,0.8454220562328236,-5.726550207878232,-8.002929730110633
1621784889419.577,-0.007820975832193343,0.8257052439580483,1.3775277701778386,0.814,-5.688,-7.983
1621784889422.411,0.007,0.822,1.368,0.7430030581039755,-5.629986295163665,-7.9169334012912
1621784889427.76,0.026,0.81,1.356,0.6089969418960244,-5.520485927058557,-7.792233265375467
1621784889433.085,0.051,0.799,1.344,0.47559633027522935,-5.411480334692491,-7.668096585117228
1621784889436.821,0.058022624019090446,0.7919773759809096,1.3306570143637282,0.382,-5.335,-7.581
1621784889438.405,0.061,0.789,1.325,0.3748021846731524,-5.323188200489276,-7.547502474825055
1621784889443.721,0.073,0.789,1.309,0.3506460146782727,-5.283547306138704,-7.435083376002731
1621784889449.032,0.082,0.787,1.299,0.32651203277009727,-5.243942823007339,-7.322767537122376
1621784889453.986,0.08666740270494065,0.7851330389180238,1.2887317140491306,0.304,-5.207,-7.218
1621784889454.339,0.087,0.785,1.288,0.30319569279041575,-5.208216772445268,-7.215153989873778
1621784889459.641,0.087,0.78,1.272,0.2911160664622406,-5.226491078941739,-7.172410696712544
1621784889464.939,0.086,0.777,1.264,0.2790458960279541,-5.2447510803679664,-7.1297008628681455
1621784889470.232,0.08,0.756,1.248,0.26698685017471296,-5.2629942522997935,-7.087030392925907
1621784889471.104,0.07983511816838995,0.7533618906942393,1.2460214180206794,0.265,-5.266,-7.08
1621784889475.521,0.079,0.74,1.236,0.265,-5.319300802311114,-7.095265763768717
1621784889480.805,0.072,0.719,1.23,0.265,-5.383063198089327,-7.113527809161506
1621784889486.085,0.065,0.707,1.223,0.265,-5.446778456301932,-7.131776353989388
1621784889488.175,0.0634154365832215,0.7022463097496645,1.221811577437416,0.265,-5.472,-7.139
1621784889491.361,0.061,0.695,1.22,0.286894089305687,-5.515975307579799,-7.192331756001033
1621784889496.631,0.059,0.679,1.223,0.3231090940376839,-5.588714846998767,-7.280547793168718
1621784889501.898,0.063,0.663,1.223,0.35930228856577473,-5.6614105795979235,-7.368710702916631
1621784889505.201,0.05986087521462713,0.649815675901434,1.223,0.382,-5.707,-7.424
1621784889507.159,0.058,0.642,1.223,0.3186714610361591,-5.719458073238788,-7.4374962460086875
1621784889512.417,0.059,0.621,1.211,0.14860827604061788,-5.752913126024796,-7.473739219860197
1621784889517.67,0.054,0.578,1.192,-0.021289086097287357,-5.786335557920778,-7.509946854414176
1621784889522.175,0.05743375511723112,0.5419455712690734,1.1713974692966131,-0.167,-5.815,-7.541
1621784889522.918,0.058,0.536,1.168,-0.19065378347586565,-5.820178379313826,-7.535865505256631
1621784889528.162,0.068,0.487,1.141,-0.35762166683491725,-5.856731645058479,-7.499622012950492
1621784889533.401,0.08,0.447,1.11,-0.5244185402575676,-5.893247472635237,-7.463415641539638
1621784889538.638,0.08,0.41,1.072,-0.6911610014277266,-5.9297513880676656,-7.427221081322739
1621784889539.104,0.08169213902495918,0.40732820153953814,1.06897196174481,-0.706,-5.933,-7.424
1621784889543.871,0.099,0.38,1.038,-0.8028268733102979,-5.9219905304399365,-7.451664820945799
1621784889549.099,0.105,0.332,1.005,-0.9090160910234353,-5.909916537755353,-7.482004597435267
1621784889554.322,0.108,0.3,0.962,-1.0151011724905665,-5.897854385635183,-7.5123146207115905
1621784889555.991,0.108,0.2878482481171352,0.9479295504514197,-1.049,-5.894,-7.522
1621784889559.541,0.108,0.262,0.918,-1.150399321512968,-5.9270970758368735,-7.555097075836874
1621784889564.755,0.106,0.229,0.876,-1.2993219478956752,-5.975705916464909,-7.603705916464909
1621784889569.965,0.12,0.19,0.827,-1.4481399741942966,-6.024280615277556,-7.652280615277556
1621784889572.831,0.12495572024954266,0.16632266991885172,0.7983669496693091,-1.53,-6.051,-7.679
1621784889575.17,0.129,0.147,0.775,-1.5586909746452664,-6.082337229588276,-7.687078041404978
1621784889580.37,0.147,0.11,0.719,-1.6224819725517563,-6.152011863224006,-7.705038613631078
1621784889585.566,0.171,0.066,0.674,-1.6862190625726914,-6.221627616887648,-7.722984007908816
1621784889589.624,0.19444759486528426,0.027702261720035738,0.6357022617200357,-1.736,-6.276,-7.737
1621784889590.758,0.201,0.017,0.625,-1.7194097469240188,-6.282636101230392,-7.726436410286314
1621784889595.945,0.227,-0.014,0.578,-1.6435267508309523,-6.312989299667619,-7.678119073998484
1621784889601.128,0.251,-0.051,0.541,-1.567704472563998,-6.343318210974401,-7.629840398857077
1621784889606.306,0.274,-0.089,0.504,-1.4919536270336464,-6.373618549186541,-7.581607207417343
1621784889606.371,0.27415118199405464,-0.08944094748265936,0.5036346435143679,-1.491,-6.374,-7.581
1621784889611.48,0.286,-0.124,0.475,-1.3319390302729093,-6.350140854540936,-7.493822353130345
1621784889616.649,0.302,-0.155,0.449,-1.1710081858180703,-6.326001227872711,-7.405619871073366
1621784889621.813,0.307,-0.188,0.422,-1.0102293636988202,-6.301884404554824,-7.317500708950315
1621784889623.073,0.3057793282876064,-0.19288268684957427,0.4166290444654683,-0.971,-6.296,-7.296
1621784889626.974,0.302,-0.208,0.4,-0.8377069680843265,-6.229236354840129,-7.250085352802334
1621784889632.129,0.3,-0.225,0.374,-0.6615789828620018,-6.141017592470423,-7.189415607453343
1621784889637.28,0.29,-0.232,0.351,-0.48557612408555806,-6.052861503276597,-7.128788963656888
1621784889639.726,0.28097044872403,-0.2353266767858837,0.3391190114789868,-0.402,-6.011,-7.1
1621784889642.427,0.271,-0.239,0.326,-0.35107896627039387,-5.992026239024319,-7.060268620179129
1621784889647.586,0.244,-0.243,0.291,-0.2538167079552617,-5.955785206467406,-6.984379278500125
1621784889652.741,0.225,-0.239,0.258,-0.15662809481229564,-5.9195716149459825,-6.908547398818511
1621784889656.381,0.21298663443765106,-0.22203995450021327,0.23326660031281105,-0.088,-5.894,-6.855
1621784889657.892,0.208,-0.215,0.223,-0.064815457390078,-5.890454128777306,-6.860364266721512
1621784889663.038,0.192,-0.204,0.195,0.014144599021609791,-5.878377884855519,-6.8786334562442155
1621784889668.181,0.168,-0.18,0.162,0.09305595628094196,-5.866309089039386,-6.896891378119904
1621784889673.0,0.14454252032133857,-0.16029571706992443,0.13760422113419216,0.167,-5.855,-6.914
1621784889673.317,0.143,-0.159,0.136,0.15650002210205255,-5.85106011758292,-6.916428956635773
1621784889678.451,0.112,-0.143,0.112,-0.013610944936419761,-5.787229772938248,-6.955780673965256
1621784889683.58,0.079,-0.136,0.08,-0.18356012495027038,-5.7234601352645615,-6.995094965152431
1621784889688.705,0.058,-0.129,0.056,-0.3533717859931925,-5.659742098516215,-7.034377444118644
1621784889689.569,0.05496237661532593,-0.12967502741881645,0.052456106051213584,-0.382,-5.649,-7.041
1621784889693.825,0.04,-0.133,0.035,-0.4602928227403008,-5.6538933014212684,-7.030955854977396
1621784889698.941,0.04,-0.148,0.021,-0.5544085926188577,-5.659775537038679,-7.018881792394291
1621784889704.052,0.045,-0.171,0.014,-0.6484345359453949,-5.665652158496587,-7.006819253612268
1621784889706.094,0.045,-0.18219357613994838,0.01240091769429309,-0.686,-5.668,-7.002
1621784889709.16,0.045,-0.199,0.01,-0.6149415494000889,-5.675254658569101,-6.963680521404236
1621784889714.263,0.045,-0.22,0.016,-0.49666923418752784,-5.687329580802844,-6.899900162938824
1621784889719.361,0.033,-0.232,0.031,-0.3785100873944601,-5.699392949192712,-6.836180832469264
1621784889722.576,0.017853486700215672,-0.24335988497483824,0.03983546609154086,-0.304,-5.707,-6.796
1621784889724.455,0.009,-0.25,0.045,-0.2771321856154006,-5.7003687947476305,-6.8049178277531865
1621784889729.545,-0.021,-0.257,0.063,-0.20435835239594782,-5.682407593357298,-6.829072546864324
1621784889734.631,-0.065,-0.257,0.079,-0.13163687947476307,-5.664459314934197,-6.853209886812632
1621784889739.012,-0.11587194272259863,-0.2354440920666955,0.08589789053865743,-0.069,-5.649,-6.874
1621784889739.712,-0.124,-0.232,0.087,-0.08069994936105568,-5.659461633552769,-6.898296610169491
1621784889744.789,-0.185,-0.211,0.112,-0.1655664114861041,-5.73534587888356,-7.074533898305084
1621784889749.861,-0.239,-0.201,0.134,-0.25034717464478273,-5.811153495576539,-7.250593220338983
1621784889754.929,-0.272,-0.206,0.148,-0.3350585624497334,-5.886899079562718,-7.426508474576271
1621784889755.404,-0.2741578439880436,-0.20712583164593576,0.1483752772153119,-0.343,-5.894,-7.443
1621784889759.993,-0.295,-0.218,0.152,-0.4558551670574881,-5.954638597224919,-7.7018369751915525
1621784889765.053,-0.29,-0.225,0.155,-0.5802984631009813,-6.021503651815453,-7.9872516989529965
1621784889770.108,-0.276,-0.236,0.157,-0.7046156706943677,-6.088300957388019,-8.272377234776634
1621784889771.75,-0.2623457876166079,-0.2392510029484267,0.16057610324326937,-0.745,-6.11,-8.365
1621784889775.159,-0.234,-0.246,0.168,-0.7717678713175276,-6.1202470757387415,-8.39364998726954
1621784889780.206,-0.182,-0.25,0.171,-0.8113991972322485,-6.1354184426904705,-8.436067890787642
1621784889785.248,-0.129,-0.26,0.171,-0.850990264943312,-6.150574398298612,-8.47844270544714
1621784889788.051,-0.10118076084322752,-0.2622255391325418,0.17378192391567726,-0.873,-6.159,-8.502
1621784889790.286,-0.079,-0.264,0.176,-0.8648876772410479,-6.136038001682287,-8.39956473804374
1621784889795.32,-0.033,-0.272,0.171,-0.846614125210286,-6.084314557798606,-8.168822428502764
1621784889800.348,0.007,-0.267,0.173,-0.8283636145157414,-6.032656332612353,-7.938371064647921
1621784889804.305,0.027473594714084438,-0.2599129864451246,0.18402424330758393,-0.814,-5.992,-7.757
1621784889805.373,0.033,-0.258,0.187,-0.7952853958308229,-5.986794177009278,-7.700131326063381
1621784889810.395,0.037,-0.241,0.201,-0.7072946740571153,-5.962317884684902,-7.432751069405953
1621784889815.411,0.04,-0.227,0.22,-0.6194108928786601,-5.937871339920473,-7.16569577659959
1621784889820.423,0.026,-0.202,0.241,-0.5315912760573563,-5.913442643692012,-6.898835462103868
1621784889820.514,0.025528379169104738,-0.20140140433001757,0.24129022820362783,-0.53,-5.913,-6.894
1621784889825.43,0.0,-0.169,0.257,-0.4314551386623165,-5.960751676635853,-6.765648359615733
1621784889830.433,-0.03,-0.14,0.281,-0.33116313213703097,-6.009349963748415,-6.63502111654885
1621784889835.432,-0.058,-0.105,0.314,-0.23095921696574223,-6.057905564618452,-6.504508609751677
1621784889836.677,-0.06448093841642229,-0.09577712609970675,0.3239706744868035,-0.206,-6.07,-6.472
1621784889840.427,-0.084,-0.068,0.354,-0.2150719651078265,-6.136295129634117,-6.55643905984977
1621784889845.417,-0.101,-0.033,0.375,-0.22714370305306517,-6.224511676157015,-6.6687990822631456
1621784889850.403,-0.105,0.0,0.401,-0.23920599103464985,-6.312659165253211,-6.7810711473225105
1621784889852.798,-0.10211498872659543,0.00817419860797961,0.40965503382021373,-0.245,-6.355,-6.835
1621784889855.384,-0.099,0.017,0.419,-0.3218520356598736,-6.361231246134585,-6.944765797293832
1621784889860.361,-0.089,0.035,0.428,-0.469766083900261,-6.373224277072994,-7.156027649978127
1621784889865.334,-0.072,0.052,0.44,-0.6175567857843212,-6.385207306955485,-7.36711333021586
1621784889868.983,-0.05063636363636364,0.06196969696969697,0.44356060606060604,-0.726,-6.394,-7.522
1621784889870.458,-0.042,0.066,0.445,-0.77148087141339,-6.3686733970952885,-7.550804551895147
1621784889875.58,-0.014,0.063,0.442,-0.9294068366985476,-6.280730310544339,-7.650824329909081
1621784889880.698,0.009,0.068,0.438,-1.0872048352816153,-6.192858483882395,-7.7507630623450225
1621784889885.524,0.02975275590551181,0.068,0.4313968503937008,-1.236,-6.11,-7.845
1621784889885.814,0.031,0.068,0.431,-1.241849620724837,-6.103799050703101,-7.842083972851883
1621784889890.927,0.061,0.073,0.422,-1.3449713436543493,-5.994483830900945,-7.790677948808943
1621784889896.037,0.065,0.087,0.417,-1.4480339795058332,-5.885231246950273,-7.73930137958568
1621784889901.145,0.07,0.105,0.41,-1.5510523000487955,-5.776025639888213,-7.6879469014771775
1621784889902.035,0.07087175930354922,0.10761527791064765,0.4072103702286425,-1.569,-5.757,-7.679
1621784889906.249,0.075,0.12,0.394,-1.5741132340961268,-5.766970806487447,-7.53097187291713
1621784889911.351,0.077,0.133,0.387,-1.5803038584018365,-5.779042523883581,-7.3517532992668295
1621784889916.45,0.084,0.147,0.377,-1.5864906317114715,-5.7911067318373695,-7.172646211952899
1621784889918.518,0.08318852380496217,0.15836066673052973,0.3741598333173676,-1.589,-5.796,-7.1
1621784889921.547,0.082,0.175,0.37,-1.5781384672453447,-5.814041189999259,-7.022312426737888
1621784889926.64,0.084,0.187,0.363,-1.5598768751391052,-5.844374004006232,-6.891695615401736
1621784889931.731,0.08,0.201,0.356,-1.5416214110839084,-5.874696639216559,-6.761122635210327
1621784889934.972,0.08,0.205458759176623,0.34517158485677274,-1.53,-5.894,-6.678
1621784889936.819,0.08,0.208,0.339,-1.541021121631464,-5.891750791503783,-6.691270330127681
1621784889941.904,0.087,0.216,0.328,-1.571360524399126,-5.88555907665324,-6.727801447745886
1621784889946.987,0.089,0.223,0.309,-1.6016882738528768,-5.879369740030025,-6.764318533822852
1621784889951.397,0.09768288227659472,0.2264731529106379,0.29510738835744843,-1.628,-5.874,-6.796
1621784889952.066,0.099,0.227,0.293,-1.6291833914157208,-5.869225627736574,-6.809996663985942
1621784889957.143,0.105,0.229,0.274,-1.6381650731242368,-5.832989187740148,-6.916228278676318
1621784889962.217,0.126,0.239,0.253,-1.647141140201948,-5.796775399874899,-7.022393485836833
1621784889967.288,0.147,0.237,0.218,-1.6561120245435321,-5.760582521669198,-7.128497393739017
1621784889967.79,0.14987746730370155,0.23719844602094492,0.21611476280102312,-1.657,-5.757,-7.139
1621784889972.347,0.176,0.239,0.199,-1.5395275817736052,-5.789646729055791,-7.070637191293429
1621784889977.402,0.192,0.248,0.178,-1.409209666327812,-5.82586334688752,-6.994798974466304
1621784889982.454,0.206,0.264,0.161,-1.2789735693356454,-5.862057226574179,-6.919008371703642
1621784889984.121,0.21062243713733075,0.26862243713733075,0.15340599613152806,-1.236,-5.874,-6.894
1621784889987.503,0.22,0.278,0.138,-1.1424278353603738,-5.882091606254868,-6.82885219579414
1621784889992.549,0.236,0.304,0.124,-1.002805898388353,-5.894165343598346,-6.731643131028698
1621784889997.592,0.265,0.323,0.108,-0.8632717782038224,-5.906231487028938,-6.634495206997784
1621784890000.421,0.2767868145708196,0.34039958341406706,0.09621318542918039,-0.785,-5.913,-6.58
1621784890002.632,0.286,0.354,0.087,-0.7396103592113555,-5.891800048014884,-6.573341040722624
1621784890007.669,0.309,0.387,0.063,-0.6362169972691535,-5.84350853764667,-6.558172553491582
1621784890012.704,0.316,0.421,0.042,-0.5328587162020226,-5.795233412357831,-6.543009212855985
1621784890016.692,0.31282942689377397,0.45429101761537344,0.03328092395787839,-0.451,-5.757,-6.531
1621784890017.735,0.312,0.463,0.031,-0.41637402089754194,-5.777107479515898,-6.518408734871833
1621784890022.764,0.29,0.49,0.021,-0.24945946027211907,-5.874035600992257,-6.457712531008043
1621784890027.79,0.271,0.529,0.03,-0.08263403743516501,-5.970911959708337,-6.397048740885515
1621784890032.812,0.239,0.56,0.037,0.08405362700142821,-6.067708321431256,-6.336435044726754
1621784890032.931,0.2383367059052437,0.5602842688977527,0.03740271427181632,0.088,-6.07,-6.335
1621784890037.831,0.211,0.572,0.054,-0.0988729360009642,-6.120498026395083,-6.420876883210799
1621784890042.848,0.178,0.569,0.073,-0.29019633602506933,-6.1721986862721465,-6.508798963480776
1621784890047.861,0.147,0.559,0.082,-0.48138007713631437,-6.223861606604797,-6.596656863926721
1621784890049.136,0.13758640682095005,0.5490775639464068,0.08479863580998782,-0.53,-6.237,-6.619
1621784890052.872,0.11,0.52,0.093,-0.7746207037087353,-6.223371462210751,-6.8275859258252956
1621784890057.879,0.066,0.483,0.106,-1.1024440972693927,-6.205107458225784,-7.107118054612145
1621784890062.884,0.03,0.435,0.122,-1.4301555948014308,-6.1868496882971815,-7.386554770638048
1621784890065.31,0.015446690099589922,0.4020124975590705,0.12054466900995899,-1.589,-6.178,-7.522
1621784890067.885,0.0,0.367,0.119,-1.667160191164683,-6.181190211884273,-7.690921719272243
1621784890072.884,-0.009,0.302,0.12,-1.8189007879493657,-6.1873837056305865,-8.018867213139547
1621784890077.88,-0.007,0.246,0.119,-1.970545046203173,-6.193573267191966,-8.346604497814612
1621784890081.453,0.0015886150234741781,0.20090977112676056,0.11470569248826291,-2.079,-6.198,-8.581
1621784890082.872,0.005,0.183,0.113,-2.069487674055668,-6.2238946650706835,-8.58531577751178
1621784890087.862,0.028,0.122,0.106,-2.036041530932287,-6.314942499128775,-8.600490416521463
1621784890092.849,0.068,0.079,0.101,-2.002615024470068,-6.405936877831483,-8.615656146305248
1621784890097.566,0.12099892230821985,0.03925080826883511,0.08112540413441756,-1.971,-6.492,-8.63
1621784890097.833,0.124,0.037,0.08,-1.954707584406121,-6.492,-8.620550066796211
1621784890102.813,0.178,0.016,0.072,-1.6509299854262813,-6.492,-8.444352866164683
1621784890107.791,0.229,-0.01,0.051,-1.3472715265970368,-6.492,-8.268224769249453
1621784890112.767,0.276,-0.017,0.047,-1.0437322079183873,-6.492,-8.092165776050523
1621784890113.648,0.2806063343972502,-0.014519666093788363,0.04611416646206727,-0.99,-6.492,-8.061
1621784890117.739,0.302,-0.003,0.042,-0.665649614852854,-6.4021289749160575,-7.851216077424452
1621784890122.707,0.325,0.016,0.047,-0.2717720718941339,-6.292993360579772,-7.596463255291026
1621784890127.674,0.332,0.042,0.045,0.12202804661268019,-6.183879199015482,-7.341760509883165
1621784890129.717,0.33118281250000003,0.051806250000000005,0.047451562499999995,0.284,-6.139,-7.237
1621784890132.674,0.33,0.066,0.051,0.45840781691951654,-6.1228782690242465,-7.145399255819582
1621784890137.671,0.323,0.094,0.054,0.7531241964515298,-6.09563557847927,-6.990611241359491
1621784890142.665,0.311,0.122,0.072,1.0476821805091283,-6.06840752953277,-6.835906417799828
1621784890145.858,0.296286210438781,0.14439054933228979,0.0809562197329159,1.236,-6.051,-6.737
1621784890147.656,0.288,0.157,0.086,1.2753898004636153,-6.057583564383437,-6.715129175946548
1621784890152.646,0.269,0.195,0.106,1.3847025135221127,-6.075853961183583,-6.6544342984409806
1621784890157.632,0.251,0.237,0.133,1.4939296547126646,-6.094110055603533,-6.593786933927246
1621784890161.972,0.24838716315531603,0.2631283684468398,0.1478060754532092,1.589,-6.11,-6.541
1621784890162.615,0.248,0.267,0.15,1.572928298221116,-6.111159401372109,-6.544118389897395
1621784890167.595,0.23,0.307,0.182,1.4484671847489528,-6.120137939408658,-6.568267561168113
1621784890172.573,0.227,0.34,0.19,1.324054884342177,-6.129112956104669,-6.592407261247041
1621784890177.549,0.223,0.365,0.211,1.1996913970007892,-6.138084451460142,-6.616537490134175
1621784890178.057,0.2228978639823226,0.3676555364596121,0.21222563221212865,1.187,-6.139,-6.619
1621784890182.521,0.222,0.391,0.223,1.0095945132151223,-6.155405836552207,-6.684623346208826
1621784890187.491,0.234,0.408,0.239,0.8120859819337571,-6.173670732078227,-6.757682928312905
1621784890192.458,0.251,0.419,0.244,0.6146938775510205,-6.191924860853432,-6.83069944341373
1621784890194.111,0.25699409826390596,0.4206650272955294,0.2463310382137412,0.549,-6.198,-6.855
1621784890197.422,0.269,0.424,0.251,0.44157167230295835,-6.2019252658197,-6.863057124577279
1621784890202.383,0.29,0.433,0.26,0.28061137007586145,-6.207806507631844,-6.87512914724431
1621784890207.342,0.311,0.433,0.258,0.11971443804649179,-6.2136854339944545,-6.887196417146513
1621784890210.138,0.3115640267927502,0.4262316784869976,0.26138416075650117,0.029,-6.217,-6.894
1621784890212.299,0.312,0.421,0.264,-0.0027455133683310963,-6.217,-6.870224636796484
1621784890217.252,0.316,0.412,0.265,-0.07549983213282871,-6.217,-6.815736295934562
1621784890222.203,0.311,0.401,0.271,-0.14822546087168845,-6.217,-6.7612694420705655
1621784890226.136,0.29987156461242415,0.387486899886515,0.276564217693788,-0.206,-6.217,-6.718
1621784890227.151,0.297,0.384,0.278,-0.21221308850218853,-6.218267977245344,-6.719204578383077
1621784890232.109,0.276,0.368,0.279,-0.2425656026475926,-6.224462367887264,-6.725089249492901
1621784890237.063,0.248,0.346,0.283,-0.2728942030532721,-6.230651878174137,-6.730969284265431
1621784890242.016,0.232,0.33,0.283,-0.3032168250240205,-6.236840168372249,-6.736848159953636
1621784890242.144,0.2322326476246855,0.3297156529031622,0.28294830052784764,-0.304,-6.237,-6.737
1621784890246.965,0.241,0.319,0.281,-0.3365808304561704,-6.254798787008464,-6.766564086895414
1621784890251.912,0.251,0.297,0.274,-0.37001301597971215,-6.273062666137065,-6.7969006996852945
1621784890256.856,0.258,0.283,0.264,-0.4034237526352776,-6.291314827828532,-6.8272178496134925
1621784890258.125,0.25954068072914094,0.2783779578125772,0.2606618584201946,-0.412,-6.296,-6.835
1621784890261.798,0.264,0.265,0.251,-0.4163746843579266,-6.287020384738993,-6.817040769477985
1621784890266.737,0.267,0.257,0.239,-0.4222570282968336,-6.274946099811762,-6.792892199623525
1621784890271.673,0.281,0.241,0.218,-0.42813588295609323,-6.262878977090124,-6.7687579541802485
1621784890274.078,0.2819750061865875,0.241,0.20873744122741897,-0.431,-6.257,-6.757
1621784890276.606,0.283,0.241,0.199,-0.4108401882482792,-6.2366814495730685,-6.7320780279919665
1621784890281.537,0.279,0.234,0.185,-0.3715173608449711,-6.197048993607529,-6.683466343721736
1621784890286.465,0.272,0.227,0.171,-0.33221984271764293,-6.157442046203609,-6.634885947296613
1621784890290.004,0.2569137631957179,0.22412643108489866,0.16381607771224663,-0.304,-6.129,-6.6
1621784890291.391,0.251,0.223,0.161,-0.2834933501243972,-6.111896581380348,-6.590575667291212
1621784890296.314,0.23,0.229,0.148,-0.2107203673557146,-6.051200817028596,-6.557131062444328
1621784890301.234,0.206,0.22,0.138,-0.1379906932456922,-5.990541173941088,-6.523706361151212
1621784890305.901,0.17088994787788533,0.21335755770662695,0.12661295606850334,-0.069,-5.933,-6.492
1621784890306.152,0.169,0.213,0.126,-0.06526462806866425,-5.932066157017166,-6.492
1621784890311.067,0.131,0.215,0.122,0.007812896080723566,-5.913796775979819,-6.492
1621784890315.979,0.089,0.213,0.113,0.08085048914046639,-5.895537377714883,-6.492
1621784890320.888,0.052,0.208,0.112,0.15384089091244696,-5.877289777271888,-6.492
1621784890321.773,0.04604821135379869,0.2072785710731877,0.11073749937807852,0.167,-5.874,-6.492
1621784890325.795,0.019,0.204,0.105,0.20166772142176892,-5.9038597892537865,-6.534259193265952
1621784890330.72,-0.019,0.199,0.106,0.24411958157967498,-5.940424165156216,-6.586007081195662
1621784890335.643,-0.054,0.194,0.096,0.28655460661730825,-5.976974040736076,-6.637734447482412
1621784890337.667,-0.06264055985705777,0.194,0.09517708953742307,0.304,-5.992,-6.659
1621784890340.562,-0.075,0.194,0.094,0.3147539849670289,-6.01879382695175,-6.7178735109211924
1621784890345.48,-0.101,0.183,0.089,0.3330225187143582,-6.0643103432374685,-6.817885992283689
1621784890350.395,-0.117,0.171,0.089,0.3512801696973423,-6.109799744839141,-6.917838895122738
1621784890353.55,-0.12278095332770018,0.1690730155574333,0.08321904667229982,0.363,-6.139,-6.982
1621784890355.307,-0.126,0.168,0.08,0.36510480618245633,-6.149856368730565,-7.014679885464454
1621784890360.217,-0.133,0.161,0.075,0.37098749961513594,-6.180198682225438,-7.1060164413929
1621784890365.124,-0.126,0.154,0.075,0.3768663905908433,-6.2105213830475074,-7.19729395917362
1621784890369.409,-0.11988497337116122,0.14788497337116122,0.07237927430192623,0.382,-6.237,-7.277
1621784890370.029,-0.119,0.147,0.072,0.3758897113249445,-6.240055144337528,-7.280055144337528
1621784890374.931,-0.112,0.141,0.068,0.3275895632864545,-6.264205218356773,-7.304205218356773
1621784890379.831,-0.098,0.134,0.063,0.27930625462620284,-6.2883468726868985,-7.3283468726868985
1621784890384.728,-0.087,0.12,0.058,0.23105421909696522,-6.3124728904515175,-7.3524728904515175
1621784890385.241,-0.08616152848448567,0.11874229272672852,0.05758076424224284,0.226,-6.315,-7.355
1621784890389.622,-0.079,0.108,0.054,0.18247983378902327,-6.3313547121429785,-7.333378516149961
1621784890394.515,-0.065,0.113,0.051,0.1338764539598684,-6.349619676537374,-7.309231614069234
1621784890399.404,-0.054,0.094,0.045,0.08530945209076726,-6.3678709702334055,-7.285102785115159
1621784890401.046,-0.05064035569765699,0.0916482489883599,0.043320177848828495,0.069,-6.374,-7.277
1621784890404.291,-0.044,0.087,0.04,0.04061367399681208,-6.365977777433882,-7.25272763428713
1621784890409.175,-0.031,0.079,0.035,-0.0021088998591745484,-6.353904006561537,-7.2161967378015754
1621784890414.056,-0.019,0.075,0.024,-0.04480371098283788,-6.341838081678763,-7.1796895804639504
1621784890416.822,-0.013897673254941206,0.06819689767325494,0.02003152364273205,-0.069,-6.335,-7.159
1621784890418.935,-0.01,0.063,0.017,-0.04525643211407317,-6.329768366398016,-7.14062221016739
1621784890423.812,-0.012,0.058,0.014,0.009544435833849951,-6.317693598884067,-7.098205719156851
1621784890428.685,-0.005,0.052,0.01,0.06430141041537507,-6.3056285027898324,-7.055823202107874
1621784890432.574,-0.008991230268103233,0.05120175394637935,0.009201753946379353,0.108,-6.296,-7.022
1621784890433.557,-0.01,0.051,0.009,0.11168807253982548,-6.294749805918704,-7.011560879421173
1621784890438.425,-0.019,0.051,0.007,0.12995438313200633,-6.288557836226438,-6.959857932490762
1621784890443.291,-0.028,0.052,0.005,0.14821244915070025,-6.282368661304847,-6.908178321895476
1621784890448.155,-0.038,0.049,0.005,0.166463186659628,-6.276181970623854,-6.856519454709189
1621784890448.298,-0.03832374064587414,0.04908829290342022,0.00505886193561348,0.167,-6.276,-6.855
1621784890453.016,-0.049,0.052,0.007,0.167,-6.276,-6.8195302535386535
1621784890457.874,-0.056,0.059,0.003,0.167,-6.276,-6.783008803857521
1621784890462.73,-0.068,0.044,0.002,0.167,-6.276,-6.746502037641935
1621784890463.994,-0.06982307073146192,0.045302193379615656,0.0027813160277693934,0.167,-6.276,-6.737
1621784890467.583,-0.075,0.049,0.005,0.1894474221342765,-6.271647948769885,-6.7550953709041615
1621784890472.435,-0.087,0.04,0.0,0.2197936616755738,-6.265764494164939,-6.779558155840514
1621784890477.283,-0.094,0.045,-0.002,0.2501139433788816,-6.259886072202053,-6.804000015580935
1621784890479.663,-0.09743810771323493,0.04794694946848708,-0.0010176835105043076,0.265,-6.257,-6.816
1621784890482.129,-0.101,0.051,0.0,0.265,-6.259995208291061,-6.839173453620315
1621784890486.972,-0.105,0.052,0.0,0.265,-6.265877975307871,-6.884687493171424
1621784890491.812,-0.108,0.049,-0.002,0.265,-6.271757183661365,-6.930173999906351
1621784890495.305,-0.10655601534113847,0.04611203068227695,-0.004165976988292289,0.265,-6.276,-6.963
1621784890496.65,-0.106,0.045,-0.005,0.26327722617465404,-6.284441591744195,-6.976523774528966
1621784890501.485,-0.105,0.031,-0.005,0.25708380892815264,-6.314789336252052,-7.025142099914002
1621784890506.318,-0.098,0.03,-0.009,0.25089320616058164,-6.3451232898131495,-7.073738331639434
1621784890510.919,-0.08942673002072486,0.021426730020724864,-0.011857756659758379,0.245,-6.374,-7.12
1621784890511.148,-0.089,0.021,-0.012,0.24442712623518173,-6.3742937814178555,-7.1214395289474925
1621784890515.976,-0.08,0.012,-0.012,0.23234913948353353,-6.380487620777675,-7.151789341810608
1621784890520.801,-0.073,0.0,-0.016,0.22027909234696275,-6.386677388540019,-7.182119203846094
1621784890525.623,-0.059,-0.002,-0.019,0.20821637408584806,-6.392863397904693,-7.2124306497329975
1621784890526.509,-0.05587519627209644,-0.0012647520640226917,-0.019367623967988655,0.206,-6.394,-7.218
1621784890530.443,-0.042,0.002,-0.021,0.18602751890551947,-6.394,-7.222803508111331
1621784890535.26,-0.035,-0.003,-0.026,0.16157319024757602,-6.394,-7.228684928927798
1621784890540.075,-0.023,-0.012,-0.031,0.1371287771815871,-6.394,-7.234563964981644
1621784890542.07,-0.017610045662100456,-0.014073059360730594,-0.031829223744292236,0.127,-6.394,-7.237
1621784890544.887,-0.01,-0.017,-0.033,0.13062653423645706,-6.383301724002452,-7.222856516477817
1621784890549.698,0.0,-0.028,-0.037,0.13682037057409124,-6.365029906806431,-7.198700554761044
1621784890554.505,0.009,-0.038,-0.04,0.14300886360421805,-6.346773852367557,-7.17456543194355
1621784890557.605,0.009,-0.043806422111574025,-0.04258063204958845,0.147,-6.335,-7.159
1621784890559.31,0.009,-0.047,-0.044,0.14480104217502873,-6.330712032241306,-7.143937138898947
1621784890564.112,0.014,-0.044,-0.044,0.1386081295949371,-6.318635852710128,-7.101515687725319
1621784890568.911,0.017,-0.056,-0.047,0.13241931014939942,-6.306567654791329,-7.059122274523386
1621784890573.113,0.012620133340119091,-0.062131813323833274,-0.04524805333604764,0.127,-6.296,-7.022
1621784890573.708,0.012,-0.063,-0.045,0.12477077879065072,-6.295231303031259,-7.020462606062518
1621784890578.502,0.014,-0.073,-0.049,0.10680894552566003,-6.289037567422642,-7.008075134845283
1621784890583.293,0.012,-0.072,-0.051,0.08885808913982904,-6.2828476169447685,-6.9956952338895375
1621784890588.083,0.014,-0.072,-0.051,0.07091089171371795,-6.276658928177144,-6.983317856354288
1621784890588.593,0.014,-0.07359847982451664,-0.051745957251441106,0.069,-6.276,-6.982
1621784890592.869,0.014,-0.087,-0.058,0.057931827158543336,-6.270742617900308,-6.982
1621784890597.653,0.014,-0.089,-0.061,0.045547910577454775,-6.26486025752429,-6.982
1621784890602.434,0.012,-0.091,-0.063,0.03317220949522079,-6.25898179951023,-6.982
1621784890604.046,0.013349136609788495,-0.09268642076223561,-0.06536098906712987,0.029,-6.257,-6.982
1621784890607.213,0.016,-0.096,-0.07,0.025099510990837015,-6.248788444191235,-6.976046622038647
1621784890611.989,0.016,-0.099,-0.075,0.019217205526278307,-6.236404643213217,-6.967068366329583
1621784890616.764,0.017,-0.106,-0.07,0.013336403487948852,-6.22402400734305,-6.958092405323712
1621784890619.473,0.012457578548766758,-0.10997461876982909,-0.07567802681404155,0.01,-6.217,-6.953
1621784890621.535,0.009,-0.113,-0.08,0.01254385492129417,-6.209234548134996,-6.942422919011461
1621784890626.303,0.01,-0.119,-0.08,0.018426105289856224,-6.191278204904649,-6.917965141163229
1621784890631.069,0.003,-0.12,-0.084,0.02430594613445778,-6.173329217063234,-6.893517381861991
1621784890634.874,-0.0009934915184748629,-0.12718828473325475,-0.084,0.029,-6.159,-6.874
1621784890635.833,-0.002,-0.129,-0.084,0.030247459349593497,-6.157752540650407,-6.871567454268292
1621784890640.594,-0.01,-0.134,-0.087,0.03644061229674797,-6.151559387703252,-6.859490806021341
1621784890645.352,-0.023,-0.14,-0.091,0.042629954268292684,-6.145370045731707,-6.847421589176829
1621784890650.108,-0.031,-0.145,-0.091,0.048816438008130084,-6.13918356199187,-6.835357945884146
1621784890650.249,-0.03126719400071909,-0.14520781755611484,-0.09105937644460424,0.049,-6.139,-6.835
1621784890654.861,-0.04,-0.152,-0.093,0.0429899785254116,-6.168449105225483,-6.870459126700072
1621784890659.611,-0.047,-0.15,-0.094,0.03680020679233278,-6.19877898671757,-6.906978779925237
1621784890664.359,-0.054,-0.154,-0.091,0.03061329833770779,-6.229094838145232,-6.943481539807524
1621784890665.597,-0.054521815188310355,-0.154,-0.0930872607532414,0.029,-6.237,-6.953
1621784890669.104,-0.056,-0.154,-0.099,0.03357841309301844,-6.2594342241557905,-6.9866513362336855
1621784890673.847,-0.054,-0.157,-0.094,0.03977018692929196,-6.289773915953531,-7.032160873930296
1621784890678.588,-0.044,-0.162,-0.105,0.04595941100540231,-6.320101113926471,-7.077651670889707
1621784890680.917,-0.042033293820543216,-0.1615083234551358,-0.10155826418595063,0.049,-6.335,-7.1
1621784890683.325,-0.04,-0.161,-0.098,0.0644316048278945,-6.325709544032186,-7.10614114886008
1621784890688.061,-0.033,-0.169,-0.105,0.09478319177469825,-6.307436649849927,-7.118219841624625
1621784890692.794,-0.026,-0.173,-0.112,0.12511443898077781,-6.289176001021777,-7.130290440002555
1621784890696.209,-0.023834004335707648,-0.17516599566429233,-0.11055600289047177,0.147,-6.276,-7.139
1621784890697.524,-0.023,-0.176,-0.11,0.15544065628298204,-6.276,-7.122979978891483
1621784890702.251,-0.017,-0.175,-0.11,0.18578376563149646,-6.276,-7.065389995842262
1621784890706.976,-0.021,-0.175,-0.113,0.21611433780023664,-6.276,-7.00782380784853
1621784890711.476,-0.025765006979990693,-0.175,-0.11204699860400186,0.245,-6.276,-6.953
1621784890711.698,-0.026,-0.175,-0.112,0.245,-6.276291257469681,-6.951849532994761
1621784890716.418,-0.038,-0.173,-0.108,0.245,-6.2824858456559705,-6.927380909658918
1621784890721.135,-0.037,-0.164,-0.11,0.245,-6.288676588859161,-6.9029274740063125
1621784890725.85,-0.044,-0.171,-0.103,0.245,-6.294864768740288,-6.878484163475864
1621784890726.715,-0.044917875647668394,-0.16934782383419691,-0.10226569948186529,0.245,-6.296,-6.874
1621784890730.562,-0.049,-0.162,-0.099,0.23008147185313563,-6.305861399961487,-6.896504220424931
1621784890735.271,-0.051,-0.159,-0.101,0.21181983760189999,-6.317932649720778,-6.924051431414083
1621784890739.978,-0.047,-0.15,-0.096,0.19356577764939983,-6.329998892740227,-6.95158721676616
1621784890741.929,-0.04492678497301785,-0.15,-0.09724392901618929,0.186,-6.335,-6.963
1621784890744.683,-0.042,-0.15,-0.099,0.18962744782790444,-6.342073523264413,-6.99147546544905
1621784890749.384,-0.04,-0.15,-0.096,0.19581896524003986,-6.354146982218078,-7.040078877134313
1621784890754.084,-0.028,-0.152,-0.099,0.20200919643718446,-6.36621793305251,-7.088672192031899
1621784890757.114,-0.02348338965427606,-0.14877384975305433,-0.09577384975305434,0.206,-6.374,-7.12
1621784890758.78,-0.021,-0.147,-0.094,0.20819806413167768,-6.376198064131677,-7.122088160925094
1621784890763.475,-0.012,-0.145,-0.093,0.21439252065516742,-6.382392520655167,-7.127972894622409
1621784890768.167,0.0,-0.136,-0.091,0.22058278977629608,-6.388582789776296,-7.133853650287482
1621784890772.273,0.004379231330069785,-0.13775169253202793,-0.09362753879804186,0.226,-6.394,-7.139
1621784890772.855,0.005,-0.138,-0.094,0.22823073324191337,-6.394,-7.134500072598209
1621784890777.542,0.017,-0.131,-0.087,0.2461944986690328,-6.394,-7.098262821650399
1621784890782.226,0.023,-0.131,-0.091,0.2641470355731225,-6.394,-7.062048221343874
1621784890786.907,0.03,-0.133,-0.084,0.28208740824392997,-6.394,-7.025858159232072
1621784890787.406,0.02957329993215385,-0.13278664996607695,-0.08357329993215386,0.284,-6.394,-7.022
1621784890791.585,0.026,-0.131,-0.08,0.29506428363659865,-6.383212323454316,-6.992126434181183
1621784890796.261,0.026,-0.129,-0.079,0.30744462040658027,-6.3711414951035845,-6.958699524902233
1621784890800.935,0.03,-0.113,-0.073,0.3198197860444071,-6.359075708606704,-6.925286577680101
1621784890802.514,0.02797187957348944,-0.113,-0.0726619799289149,0.324,-6.355,-6.914
1621784890805.606,0.024,-0.113,-0.072,0.324,-6.346799935254128,-6.9057999352541275
1621784890810.274,0.026,-0.113,-0.068,0.324,-6.334420524441567,-6.8934205244415665
1621784890814.94,0.019,-0.106,-0.068,0.324,-6.322046293298802,-6.881046293298802
1621784890817.597,0.01501230108877722,-0.10429098618090452,-0.06401230108877722,0.324,-6.315,-6.874
1621784890819.604,0.012,-0.103,-0.061,0.3161337798608521,-6.312466810463665,-6.876666515301406
1621784890824.264,0.01,-0.093,-0.056,0.2978704853959553,-6.30658541055124,-6.882857462577642
1621784890828.923,0.005,-0.094,-0.059,0.27961006146510764,-6.300704935048086,-6.889047436791489
1621784890832.651,0.0033983006398825132,-0.0883940522395888,-0.04938980383929508,0.265,-6.296,-6.894
1621784890833.578,0.003,-0.087,-0.047,0.25895450926873653,-6.298405858556319,-6.898256518984257
1621784890838.231,0.0,-0.084,-0.051,0.2286092346184465,-6.310482039284496,-6.919622069503339
1621784890842.882,-0.005,-0.077,-0.049,0.1982766973729103,-6.322553151045475,-6.940978651849686
1621784890847.529,0.005,-0.087,-0.044,0.16797122711247586,-6.334613491251157,-6.962316176828971
1621784890847.678,0.005,-0.08719232790331055,-0.044,0.167,-6.335,-6.963
1621784890852.175,0.005,-0.093,-0.044,0.1550085931905475,-6.340995703404726,-6.96869591823449
1621784890856.817,0.012,-0.093,-0.042,0.14263114380574182,-6.34718442809713,-6.974575206692273
1621784890861.457,0.017,-0.094,-0.042,0.13025825141592345,-6.353370874292039,-6.980452330577436
1621784890862.679,0.018053850607990737,-0.09215576143601621,-0.042,0.127,-6.355,-6.982
1621784890866.095,0.021,-0.087,-0.042,0.11810112359550562,-6.345872947277442,-6.9664840103716505
1621784890870.73,0.021,-0.087,-0.04,0.10602671189315242,-6.333488935275028,-6.945431189967548
1621784890875.362,0.024,-0.089,-0.042,0.09395993216027135,-6.3211127509336125,-6.924391676587139
1621784890877.65,0.024988293608943262,-0.09245902763130141,-0.04298829360894326,0.088,-6.315,-6.914
1621784890879.992,0.026,-0.096,-0.044,0.07875411255411255,-6.3181341991341995,-6.898642424242424
1621784890884.619,0.024,-0.093,-0.044,0.06048787061994609,-6.324326145552561,-6.868301886792453
1621784890889.245,0.021,-0.094,-0.049,0.042224520133954085,-6.330517111818999,-6.837966152086906
1621784890892.595,0.01810083989224024,-0.08892646981142041,-0.04610083989224024,0.029,-6.335,-6.816
1621784890893.867,0.017,-0.087,-0.045,0.03573545198664659,-6.335,-6.805939451462984
1621784890898.487,0.01,-0.094,-0.038,0.06020026837729921,-6.335,-6.7693970674870725
1621784890903.104,0.003,-0.082,-0.038,0.0846482784578124,-6.335,-6.7328797866073185
1621784890907.514,-0.004646118842266787,-0.08582305942113339,-0.0399115297105667,0.108,-6.335,-6.698
1621784890907.718,-0.005,-0.086,-0.04,0.108,-6.335,-6.697465490671826
1621784890912.33,-0.014,-0.084,-0.035,0.108,-6.335,-6.685387242204663
1621784890916.939,-0.021,-0.08,-0.037,0.108,-6.335,-6.673317305485425
1621784890921.546,-0.03,-0.082,-0.033,0.108,-6.335,-6.661252483687989
1621784890922.406,-0.032615441722345956,-0.08031864460706331,-0.032626365468236294,0.108,-6.335,-6.659
1621784890926.15,-0.044,-0.073,-0.031,0.108,-6.344822540115295,-6.66378534005617
1621784890930.751,-0.054,-0.066,-0.031,0.108,-6.356893983937458,-6.669666299866966
1621784890935.35,-0.066,-0.066,-0.028,0.108,-6.368960303513065,-6.675544763249955
1621784890937.271,-0.07059652663444686,-0.0630749375962611,-0.027164267884646025,0.108,-6.374,-6.678
1621784890939.947,-0.077,-0.059,-0.026,0.10439274665964589,-6.381214506680708,-6.692248650694399
1621784890944.541,-0.08,-0.056,-0.03,0.09820009214769959,-6.393599815704601,-6.716709636016587
1621784890949.133,-0.079,-0.058,-0.026,0.09201007042717041,-6.405979859145659,-6.7411602218126765
1621784890952.108,-0.07964841421881652,-0.05670317156236697,-0.026,0.088,-6.414,-6.757
1621784890953.721,-0.08,-0.056,-0.026,0.088,-6.418247123784408,-6.767672259765947
1621784890958.308,-0.084,-0.058,-0.028,0.088,-6.430325103016318,-6.798022053733312
1621784890962.891,-0.082,-0.054,-0.023,0.088,-6.442392154277238,-6.828344387671008
1621784890966.92,-0.07320503117838298,-0.052241006235676596,-0.0256384906464851,0.088,-6.453,-6.855
1621784890967.472,-0.072,-0.052,-0.026,0.08654393989431967,-6.453,-6.857912120211361
1621784890972.051,-0.066,-0.047,-0.024,0.07446527410832232,-6.453,-6.882069451783355
1621784890976.627,-0.059,-0.049,-0.023,0.06239498018494055,-6.453,-6.906210039630119
1621784890981.2,-0.056,-0.049,-0.021,0.05033241413474241,-6.453,-6.930335171730515
1621784890981.705,-0.05522645943491962,-0.049552528975057415,-0.020778988409977033,0.049,-6.453,-6.933
1621784890985.771,-0.049,-0.054,-0.019,0.043489080079417604,-6.453,-6.933
1621784890990.339,-0.045,-0.052,-0.023,0.03729748510919921,-6.453,-6.933
1621784890994.905,-0.042,-0.058,-0.017,0.031108868299139645,-6.453,-6.933
1621784890996.461,-0.03824917067950776,-0.05322621722846442,-0.018363937934724454,0.029,-6.453,-6.933
1621784890999.468,-0.031,-0.044,-0.021,0.029,-6.456878791394571,-6.9170765405907115
1621784891004.028,-0.024,-0.047,-0.021,0.029,-6.462760748500017,-6.8929295587894055
1621784891008.587,-0.019,-0.051,-0.023,0.029,-6.468641131037226,-6.868789041005072
1621784891011.191,-0.01728502519026691,-0.04699839211062279,-0.02357165826991103,0.029,-6.472,-6.855
1621784891013.142,-0.016,-0.044,-0.024,0.02647878063359235,-6.466824865511058,-6.849824865511058
1621784891017.695,-0.017,-0.047,-0.017,0.02059561997741914,-6.454748904164176,-6.837748904164176
1621784891022.245,-0.017,-0.047,-0.019,0.014716244935910209,-6.4426807132895,-6.8256807132895
1621784891025.895,-0.017,-0.04298722353446425,-0.019,0.01,-6.433,-6.816
1621784891026.793,-0.017,-0.042,-0.019,0.008776223194529937,-6.435386364770666,-6.81477622319453
1621784891031.338,-0.019,-0.04,-0.019,0.002582142441231762,-6.447464822239598,-6.808582142441232
1621784891035.88,-0.014,-0.044,-0.017,-0.003607945565555907,-6.459535493852834,-6.802392054434444
1621784891040.42,-0.012,-0.047,-0.016,-0.009795371741336571,-6.4716009748956065,-6.796204628258664
1621784891040.57,-0.011933828276307295,-0.04690074241446094,-0.016,-0.01,-6.472,-6.796
1621784891044.958,-0.01,-0.044,-0.016,-0.015691260291323623,-6.466308739708677,-6.807682060597981
1621784891049.492,-0.014,-0.044,-0.016,-0.02157188093730209,-6.460428119062699,-6.819752808239725
1621784891054.025,-0.012,-0.045,-0.017,-0.027451234958834704,-6.4545487650411655,-6.831820955968134
1621784891055.219,-0.010681742224138861,-0.042890787558622176,-0.016736348444827773,-0.029,-6.453,-6.835
1621784891058.554,-0.007,-0.037,-0.016,-0.0381224789635368,-6.444105583010551,-6.839561239481768
1621784891063.081,-0.007,-0.037,-0.017,-0.050505943635635105,-6.432031704955255,-6.845752971817817
1621784891067.607,-0.003,-0.037,-0.014,-0.0628860691865901,-6.419961082543074,-6.851943034593296
1621784891069.842,-0.0025056161572524034,-0.04046068689923318,-0.015483151528242792,-0.069,-6.414,-6.855
1621784891072.128,-0.002,-0.044,-0.017,-0.07510783641381617,-6.410867776198042,-6.855
1621784891076.648,-0.003,-0.04,-0.016,-0.0871852136823618,-6.40467424939366,-6.855
1621784891081.165,-0.002,-0.042,-0.024,-0.09925476290039308,-6.398484736974157,-6.855
1621784891084.438,-0.002725079777164801,-0.0434501595543296,-0.020374601114175998,-0.108,-6.394,-6.855
1621784891085.679,-0.003,-0.044,-0.019,-0.10629655322642806,-6.395703446773572,-6.8532965532264285
1621784891090.191,-0.005,-0.049,-0.019,-0.10010308483721242,-6.401896915162787,-6.8471030848372125
1621784891094.7,-0.01,-0.047,-0.024,-0.09391363796310259,-6.408086362036897,-6.840913637963102
1621784891099.008,-0.009044147120957694,-0.048911705758084616,-0.02591170575808461,-0.088,-6.414,-6.835
1621784891099.207,-0.009,-0.049,-0.026,-0.08827363685200107,-6.414,-6.835
1621784891103.71,-0.01,-0.051,-0.026,-0.09446622347569164,-6.414,-6.835
1621784891108.212,-0.007,-0.051,-0.024,-0.10065746709642762,-6.414,-6.835
1621784891112.711,-0.009,-0.061,-0.03,-0.10684468170829975,-6.414,-6.835
1621784891113.551,-0.00993424196350999,-0.05969206125108601,-0.029626303214596004,-0.108,-6.414,-6.835
1621784891117.207,-0.014,-0.054,-0.028,-0.11278635713684919,-6.403923458659264,-6.835
1621784891121.701,-0.012,-0.054,-0.028,-0.11866966103120531,-6.391537555723778,-6.835
1621784891126.192,-0.01,-0.047,-0.03,-0.12454912944738834,-6.379159727479182,-6.835
1621784891128.064,-0.010834249034433988,-0.050754120654952946,-0.03125137355165098,-0.127,-6.374,-6.835
1621784891130.68,-0.012,-0.056,-0.033,-0.1235698134825024,-6.366959090832505,-6.838610722649998
1621784891135.166,-0.016,-0.051,-0.037,-0.11768743576350862,-6.354884736567202,-6.844802699196307
1621784891139.651,-0.017,-0.044,-0.037,-0.1118066586915132,-6.342813667840474,-6.850992990851039
1621784891142.554,-0.017,-0.04270404882567708,-0.040239877935807314,-0.108,-6.335,-6.855
1621784891144.131,-0.017,-0.042,-0.042,-0.09731276060570251,-6.335,-6.8507469149349225
1621784891148.61,-0.016,-0.045,-0.044,-0.06696166247446697,-6.335,-6.838668416699023
1621784891153.085,-0.019,-0.049,-0.04,-0.036638688657426935,-6.335,-6.826601110792241
1621784891157.016,-0.02339321183018662,-0.050757284732074644,-0.04351456946414929,-0.01,-6.335,-6.816
1621784891157.559,-0.024,-0.051,-0.044,-0.008533105582708993,-6.335752253547328,-6.814495492905342
1621784891162.029,-0.028,-0.049,-0.038,0.0035430499416529964,-6.341945153816233,-6.8021096923675355
1621784891166.497,-0.042,-0.044,-0.04,0.015613928867391635,-6.3481353481371245,-6.789729303725752
1621784891170.963,-0.049,-0.044,-0.04,0.027678871619679003,-6.3543224982665025,-6.777355003466996
1621784891171.452,-0.049986105792899735,-0.044,-0.039233028827744654,0.029,-6.355,-6.776
1621784891175.426,-0.058,-0.044,-0.033,0.05078858014232464,-6.355,-6.770759708573364
1621784891179.886,-0.065,-0.037,-0.033,0.07524083361572349,-6.355,-6.764878786851915
1621784891184.344,-0.072,-0.031,-0.033,0.09968237885462555,-6.355,-6.759000440528634
1621784891185.861,-0.07540530469092503,-0.02861628671635248,-0.03197840859272249,0.108,-6.355,-6.757
1621784891188.799,-0.082,-0.024,-0.03,0.13598889718864593,-6.350914029607497,-6.777021254923265
1621784891193.252,-0.087,-0.012,-0.03,0.17840949680836615,-6.344721241341844,-6.8073659174249626
1621784891197.702,-0.094,-0.002,-0.028,0.22080218660871928,-6.338532527502377,-6.837690615238354
1621784891200.242,-0.09514210439650914,-0.0008578956034908612,-0.025144739008727154,0.245,-6.335,-6.855
1621784891202.15,-0.096,0.0,-0.023,0.26586871109296867,-6.332341565465864,-6.8718810592917645
1621784891206.594,-0.101,0.005,-0.026,0.3144769194135456,-6.326149437017383,-6.91120107493962
1621784891211.037,-0.101,0.007,-0.024,0.3630744463720788,-6.319958669251965,-6.9505124502500255
1621784891214.596,-0.101,0.007,-0.025603101286704056,0.402,-6.315,-6.982
1621784891215.477,-0.101,0.007,-0.026,0.4026150830847891,-6.317460332339157,-6.9808313421389006
1621784891219.914,-0.099,0.007,-0.026,0.40571248402215593,-6.329849936088624,-6.974946280357904
1621784891224.348,-0.105,0.017,-0.024,0.408807669365147,-6.342230677460589,-6.969065428206221
1621784891228.781,-0.103,0.017,-0.023,0.4119023434171282,-6.354609373668514,-6.963185547507456
1621784891228.921,-0.10315792955184389,0.01712634364147511,-0.023094757731106332,0.412,-6.355,-6.963
1621784891233.21,-0.108,0.021,-0.026,0.4030013829841725,-6.366698202120576,-6.942303180863597
1621784891237.637,-0.106,0.023,-0.024,0.39371336372483734,-6.378772627157712,-6.920940736567126
1621784891242.061,-0.103,0.024,-0.03,0.3844314910618245,-6.390839061619628,-6.899592429442197
1621784891243.22,-0.10195186575402958,0.02321389931552219,-0.03,0.382,-6.394,-6.894
1621784891246.484,-0.099,0.021,-0.03,0.3776554065610782,-6.416408955632334,-6.86701778811617
1621784891250.903,-0.094,0.016,-0.033,0.3717730304792529,-6.446749632264906,-6.830485136660624
1621784891255.32,-0.094,0.007,-0.035,0.3658935791742209,-6.47707522320665,-6.793970649608319
1621784891257.494,-0.09497899945024739,0.007978999450247388,-0.03597899945024739,0.363,-6.492,-6.776
1621784891259.761,-0.096,0.009,-0.037,0.34614648701858003,-6.501855020302695,-6.745292328042328
1621784891264.758,-0.093,0.005,-0.033,0.3089983388704319,-6.523577242524917,-6.677607142857143
1621784891269.754,-0.089,0.003,-0.035,0.271859265411591,-6.545294158361019,-6.609938492063492
1621784891273.367,-0.08755393785421145,0.0022769689271057263,-0.03716909321868282,0.245,-6.561,-6.561
1621784891274.751,-0.087,0.002,-0.038,0.23994130191475846,-6.5626290722647385,-6.543337427024411
1621784891279.747,-0.084,-0.007,-0.04,0.22168037448198674,-6.568509709912581,-6.479578934632022
1621784891284.743,-0.08,-0.01,-0.038,0.20342033939320608,-6.574390060195408,-6.415823557881364
1621784891289.509,-0.08381587177482408,-0.01,-0.041815871774824084,0.186,-6.58,-6.355
1621784891289.739,-0.084,-0.01,-0.042,0.18684080422383928,-6.578745919123765,-6.354159195776161
1621784891294.735,-0.08,-0.021,-0.044,0.20510642804193582,-6.551502276818808,-6.3358935719580645
1621784891299.73,-0.094,-0.031,-0.042,0.22336758899260223,-6.524265290994085,-6.3176324110073985
1621784891304.726,-0.105,-0.045,-0.044,0.24163321281069877,-6.4970216486891275,-6.299366787189301
1621784891305.647,-0.10776607186506966,-0.047028452701051084,-0.04418440479100464,0.245,-6.492,-6.296
1621784891309.72,-0.12,-0.056,-0.045,0.2697368707730017,-6.50184426489946,-6.271263129226998
1621784891314.714,-0.138,-0.066,-0.038,0.30006819179035604,-6.513914892651264,-6.240931808209644
1621784891319.709,-0.148,-0.072,-0.035,0.33040396108513764,-6.525987290635922,-6.210596038914863
1621784891321.783,-0.15754960899315737,-0.0740760019550342,-0.030432795698924733,0.343,-6.531,-6.198
1621784891324.704,-0.171,-0.077,-0.024,0.3536828740485162,-6.539872217430124,-6.201440247574946
1621784891329.698,-0.194,-0.07,-0.026,0.3719459905267778,-6.555039890437493,-6.207321590169641
1621784891334.691,-0.208,-0.086,-0.017,0.3902055356305141,-6.570204597388054,-6.213201782660674
1621784891337.916,-0.2157493156042237,-0.08793732890105592,-0.015062671098944075,0.402,-6.58,-6.217
1621784891339.685,-0.22,-0.089,-0.014,0.4073740691408852,-6.592941635890295,-6.2493540897257365
1621784891344.678,-0.229,-0.08,-0.012,0.4225417600048435,-6.629467911848399,-6.340669779620996
1621784891349.671,-0.234,-0.087,-0.005,0.43770945086880186,-6.665994187806502,-6.431985469516255
1621784891354.046,-0.22611267605633803,-0.08437089201877934,0.0020109546165884198,0.451,-6.698,-6.512
1621784891354.663,-0.225,-0.084,0.003,0.4524925291793451,-6.696507470820655,-6.521376144844603
1621784891359.656,-0.215,-0.084,0.007,0.4645667832326627,-6.684433216767338,-6.59722722800006
1621784891364.648,-0.208,-0.082,0.016,0.4766386756891775,-6.672361324310822,-6.6730634754832945
1621784891369.641,-0.199,-0.091,0.019,0.4887135201416958,-6.660286479858304,-6.748918267556807
1621784891370.173,-0.19825402259500172,-0.09057372719714384,0.02017225020785445,0.49,-6.659,-6.757
1621784891374.633,-0.192,-0.087,0.03,0.49,-6.637150971961485,-6.784103857566765
1621784891379.624,-0.187,-0.079,0.04,0.49,-6.612700584388058,-6.81443471810089
1621784891384.615,-0.18,-0.079,0.049,0.49,-6.588250196814631,-6.844765578635015
1621784891386.299,-0.17763801790343883,-0.07933742601379445,0.04967485202758891,0.49,-6.58,-6.855
1621784891389.606,-0.173,-0.08,0.051,0.47789892489400365,-6.561950938824955,-6.8810480769230775
1621784891394.597,-0.161,-0.086,0.059,0.4596351907934585,-6.534710115081769,-6.920361538461539
1621784891399.588,-0.152,-0.093,0.063,0.4413714566929134,-6.507469291338583,-6.959675
1621784891402.422,-0.14916008610988796,-0.09470394833406723,0.06583991389011204,0.431,-6.492,-6.982
1621784891404.578,-0.147,-0.096,0.068,0.41134122404470896,-6.4552233783149315,-7.008211701273722
1621784891409.568,-0.133,-0.099,0.066,0.3658343859330274,-6.370091538310085,-7.06888748542263
1621784891414.558,-0.124,-0.106,0.063,0.3203297741832886,-6.2849638632680564,-7.129560301088948
1621784891418.542,-0.11441761683386348,-0.11478385123562515,0.05741027648642036,0.284,-6.217,-7.178
1621784891419.547,-0.112,-0.117,0.056,0.2583665904167487,-6.190742906485283,-7.1829271030585815
1621784891424.537,-0.106,-0.126,0.042,0.13110857281362195,-6.060388586750693,-7.207387889897138
1621784891429.526,-0.091,-0.134,0.03,0.0038816863856023787,-5.930066155640727,-7.231842692884519
1621784891434.516,-0.082,-0.157,0.009,-0.12338255745254578,-5.799705458181212,-7.256304676493311
1621784891434.658,-0.08180093000489476,-0.157710964268233,0.008260597161037688,-0.127,-5.796,-7.257
1621784891439.504,-0.075,-0.182,-0.017,-0.2893640081799591,-5.663102052563811,-7.215807649776566
1621784891444.493,-0.063,-0.194,-0.051,-0.4565214723926381,-5.526280572597138,-7.17339918200409
1621784891449.481,-0.054,-0.209,-0.089,-0.6236462167689163,-5.38948587442248,-7.130999015375293
1621784891450.775,-0.05166531251529538,-0.2149664235720229,-0.09885756937986392,-0.667,-5.354,-7.12
1621784891454.469,-0.045,-0.232,-0.127,-0.8334233490387384,-5.228150938536822,-7.041143757480267
1621784891459.456,-0.037,-0.243,-0.176,-1.0580965200660537,-5.058253457966579,-6.934687048343357
1621784891464.444,-0.031,-0.265,-0.225,-1.2828136864271973,-4.888322708197615,-6.828209492932568
1621784891466.89,-0.029528639968667385,-0.2743186135317732,-0.2480513071575443,-1.393,-4.805,-6.776
1621784891469.431,-0.028,-0.284,-0.272,-1.484161279568426,-4.817459759664197,-6.658499734812323
1621784891474.418,-0.035,-0.302,-0.328,-1.663076677122638,-4.841913594278008,-6.427890788137776
1621784891479.405,-0.052,-0.319,-0.377,-1.8419920746768499,-4.866367428891818,-6.19728184146323
1621784891483.001,-0.0664239338001273,-0.31827880330999364,-0.40440547422024187,-1.971,-4.884,-6.031
1621784891484.391,-0.072,-0.318,-0.415,-1.964268075302392,-4.976261891047989,-5.984480674204989
1621784891489.377,-0.099,-0.309,-0.442,-1.940123472883257,-5.30716676266408,-5.817635280565071
1621784891494.365,-0.134,-0.293,-0.445,-1.915968229908752,-5.638217464455695,-5.650716357959196
1621784891499.108,-0.18442514324893483,-0.28443723982565255,-0.4421457466085509,-1.893,-5.953,-5.492
1621784891499.35,-0.187,-0.284,-0.442,-1.8860679844173955,-5.96656329296206,-5.506149732458201
1621784891504.336,-0.246,-0.272,-0.436,-1.743360703945673,-6.2457866486789655,-5.797445938366858
1621784891509.321,-0.311,-0.25,-0.428,-1.600674387230753,-6.524968986372801,-6.088699352745904
1621784891514.306,-0.375,-0.258,-0.408,-1.4579950584347667,-6.804137651392279,-6.379938503281744
1621784891515.214,-0.38775282824820023,-0.2603683823889515,-0.40399196826485134,-1.432,-6.855,-6.433
1621784891519.291,-0.445,-0.271,-0.386,-1.2755655297862665,-6.988905881461271,-6.8104171441564345
1621784891524.275,-0.51,-0.304,-0.36,-1.0843293315143248,-7.1526015916325605,-7.271797680763984
1621784891529.26,-0.545,-0.356,-0.337,-0.8930462937698953,-7.316337395785964,-7.733291223283311
1621784891531.32,-0.5425199372979328,-0.37336043891447046,-0.3283197805427648,-0.814,-7.384,-7.924
1621784891534.244,-0.539,-0.398,-0.316,-0.6965241517329209,-7.583545528972984,-8.025497680342037
1621784891539.228,-0.501,-0.436,-0.286,-0.4962678522696261,-7.923702674429182,-8.198516646957154
1621784891544.211,-0.429,-0.476,-0.248,-0.29606059916916827,-8.263776509293793,-8.371493238121229
1621784891547.423,-0.37164153808474165,-0.497912221405829,-0.2299546411951996,-0.167,-8.483,-8.483
1621784891549.195,-0.34,-0.51,-0.22,-0.14103220035778177,-8.507757436099572,-8.440857342106062
1621784891554.178,-0.223,-0.527,-0.183,-0.06800894454382828,-8.577377065583216,-8.322349261696129
1621784891559.162,-0.119,-0.553,-0.166,0.005032200357781735,-8.647013750341106,-8.203812149419363
1621784891563.527,-0.037532729054385094,-0.5670158745712885,-0.14760416462518372,0.069,-8.708,-8.1
1621784891564.145,-0.026,-0.569,-0.145,0.0881913983712713,-8.696331629790267,-8.061617203257457
1621784891569.127,0.04,-0.571,-0.113,0.24292062601416417,-8.602256259383388,-7.752158747971671
1621784891574.109,0.105,-0.555,-0.08,0.397649853657057,-8.50818088897651,-7.442700292685886
1621784891579.091,0.136,-0.536,-0.037,0.5523866638358532,-8.414100908387802,-7.133226672328293
1621784891579.626,0.13846951876898952,-0.5322420366558855,-0.0322757032245418,0.569,-8.404,-7.1
1621784891584.073,0.159,-0.501,0.007,0.6474736275238543,-8.23876327725611,-6.804618634426055
1621784891589.054,0.169,-0.475,0.049,0.735369260175058,-8.053687262025758,-6.473772045326982
1621784891594.036,0.168,-0.442,0.098,0.8232821255745513,-7.868574960938092,-6.142860590707058
1621784891595.72,0.16090016174092045,-0.43726677449394696,0.11152350144586581,0.853,-7.806,-6.031
1621784891599.017,0.147,-0.428,0.138,0.8650885864700438,-7.661346744951679,-5.9004842443827465
1621784891603.998,0.11,-0.396,0.187,0.8833508109174214,-7.44281911003899,-5.703314126196653
1621784891608.979,0.065,-0.386,0.237,0.9016130353647991,-7.224291475126303,-5.506144008010559
1621784891611.812,0.03200500049024414,-0.37689793116972253,0.2688572409059712,0.912,-7.1,-5.394
1621784891613.959,0.007,-0.37,0.293,0.8741092045575228,-7.018881677362583,-5.40960994037595
1621784891618.939,-0.052,-0.358,0.351,0.7862201386676376,-6.830724803908182,-5.445817759774248
1621784891623.919,-0.11,-0.342,0.396,0.6983310727777525,-6.6425679304537795,-5.482025579172546
1621784891627.904,-0.13800789293067947,-0.32519526424159234,0.42800902049220513,0.628,-6.492,-5.511
1621784891628.899,-0.145,-0.321,0.436,0.5958432681801626,-6.478642588320991,-5.524357411679009
1621784891633.878,-0.176,-0.305,0.476,0.43490967585285906,-6.411793249969649,-5.591206750030351
1621784891638.857,-0.201,-0.295,0.504,0.2739760835255554,-6.344943911618308,-5.658056088381692
1621784891643.836,-0.218,-0.271,0.531,0.11304249119825183,-6.278094573266966,-5.724905426733034
1621784891643.992,-0.2187834722903384,-0.2699344776851398,0.5315327611574301,0.108,-6.276,-5.727
1621784891648.814,-0.243,-0.237,0.548,0.013867676522372654,-6.317370256815008,-5.777064006435554
1621784891653.793,-0.251,-0.201,0.564,-0.08332915427114322,-6.360087335316617,-5.828757862303442
1621784891658.771,-0.264,-0.175,0.592,-0.18050692125554008,-6.402796035456256,-5.880441579139093
1621784891660.077,-0.2666233447768514,-0.16476895537027955,0.5951480137322217,-0.206,-6.414,-5.894
1621784891663.749,-0.274,-0.136,0.604,-0.28886989451316686,-6.427240919784473,-5.981207437201184
1621784891668.728,-0.283,-0.105,0.621,-0.40123267815132424,-6.445194202018669,-6.099451468467785
1621784891673.705,-0.288,-0.087,0.644,-0.513551384988996,-6.463140441678683,-6.217649115883737
1621784891676.162,-0.287012607309296,-0.08206303654648026,0.6489369634535198,-0.569,-6.472,-6.276
1621784891678.682,-0.286,-0.077,0.654,-0.7195743195032716,-6.456644866481456,-6.326765951632736
1621784891683.659,-0.276,-0.068,0.651,-1.016988143492584,-6.426315465075678,-6.427038666484492
1621784891688.636,-0.26,-0.056,0.644,-1.3144019674818965,-6.3959860636699,-6.527311381336248
1621784891692.244,-0.25130108898263515,-0.05962454625723536,0.6374758167369764,-1.53,-6.374,-6.6
1621784891693.613,-0.248,-0.061,0.635,-1.5817713938657758,-6.364037412693592,-6.613368600060735
1621784891698.589,-0.232,-0.065,0.625,-1.769931976920741,-6.327828879441238,-6.661956119040388
1621784891703.565,-0.237,-0.056,0.611,-1.9580833282720922,-6.2916221226844815,-6.710541254175523
1621784891708.323,-0.23221906584240998,-0.06938661564125209,0.5870953292120498,-2.138,-6.257,-6.757
1621784891708.541,-0.232,-0.07,0.586,-2.1409291582512036,-6.256728781643407,-6.758328969947305
1621784891713.516,-0.241,-0.079,0.565,-2.2077716967092376,-6.250539657712108,-6.788655677210673
1621784891718.491,-0.243,-0.082,0.543,-2.2746109550348512,-6.244350837496773,-6.8189808962658125
1621784891723.467,-0.25,-0.086,0.518,-2.341466614022566,-6.238160498701614,-6.84931355636209
1621784891724.4,-0.25056254600775385,-0.08656254600775383,0.5131246012661334,-2.354,-6.237,-6.855
1621784891728.442,-0.253,-0.089,0.492,-2.3587771230713157,-6.261639897946787,-6.886931296318795
1621784891733.417,-0.253,-0.087,0.475,-2.364657058680598,-6.2919679868788725,-6.926234023812417
1621784891738.391,-0.258,-0.087,0.447,-2.3705358401166325,-6.32229012270684,-6.965529036569069
1621784891740.476,-0.2575808177489815,-0.08993427575712953,0.4373588082265744,-2.373,-6.335,-6.982
1621784891743.365,-0.257,-0.094,0.424,-2.3994229770169073,-6.3492001032948,-7.003210280870714
1621784891748.339,-0.251,-0.106,0.391,-2.4449179262049796,-6.373649769865261,-7.039730036001276
1621784891753.313,-0.244,-0.096,0.358,-2.4904106424025154,-6.398098236393189,-7.076247998663243
1621784891756.548,-0.23749452599538515,-0.09730109480092297,0.33392974618292504,-2.52,-6.414,-7.1
1621784891758.286,-0.234,-0.098,0.321,-2.530597733280666,-6.446874601197168,-7.119140803986509
1621784891763.259,-0.225,-0.087,0.29,-2.56092589103947,-6.540953784448968,-7.1739171705508795
1621784891768.232,-0.204,-0.093,0.26,-2.5912525599343685,-6.6350283491841635,-7.228690848044726
1621784891772.618,-0.18283357879234166,-0.09123613156602847,0.23530584192439863,-2.618,-6.718,-7.277
1621784891773.205,-0.18,-0.091,0.232,-2.6083517862841337,-6.727648213715866,-7.282372300819062
1621784891778.177,-0.162,-0.089,0.188,-2.526652878873068,-6.809347121126931,-7.327863737900223
1621784891783.15,-0.131,-0.073,0.155,-2.4449379245369034,-6.891062075463097,-7.3733641102010425
1621784891788.122,-0.096,-0.035,0.126,-2.363235005394563,-6.972764994605438,-7.418857781087119
1621784891788.684,-0.09226977657746133,-0.030817628283820283,0.1241914068254358,-2.354,-6.982,-7.424
1621784891793.094,-0.063,0.002,0.11,-2.3323140785994347,-6.957843530591775,-7.37815760919121
1621784891798.066,-0.021,0.024,0.098,-2.3078644418102794,-6.930608492143096,-7.326472933953375
1621784891803.037,0.009,0.019,0.072,-2.2834184067353576,-6.903377465730525,-7.274795872465882
1621784891804.749,0.017265212907028142,0.0227882225823879,0.06235725160846716,-2.275,-6.894,-7.257
1621784891808.008,0.033,0.03,0.044,-2.181461635506916,-6.800461635506916,-7.085952621979024
1621784891812.979,0.051,0.04,0.017,-2.0387891776865783,-6.6577891776865785,-6.825056999544003
1621784891817.949,0.049,0.056,0.0,-1.8961447484420124,-6.515144748442013,-6.564212631098951
1621784891820.811,0.0420895515056246,0.06291044849437541,-0.004031094955052317,-1.814,-6.433,-6.414
1621784891822.919,0.037,0.068,-0.007,-1.7406202545117297,-6.393094020342693,-6.298088881455916
1621784891827.89,0.019,0.086,-0.003,-1.5675735788241376,-6.298986346981284,-6.024743238106821
1621784891832.859,-0.005,0.099,-0.005,-1.3945948945615982,-6.204915649278579,-5.7515049944506105
1621784891836.869,-0.03485190097259063,0.11513616268788682,-0.005,-1.255,-6.129,-5.531
1621784891837.829,-0.042,0.119,-0.005,-1.2391541490558577,-6.126667969106333,-5.512822118162192
1621784891842.798,-0.08,0.143,0.003,-1.157152978380515,-6.114599872289962,-5.418752850670478
1621784891847.768,-0.122,0.173,0.017,-1.0751356919147383,-6.102529403715754,-5.324665095630492
1621784891852.737,-0.164,0.197,0.03,-0.9931345212393955,-6.090461306899383,-5.230595828138778
1621784891852.927,-0.1651849850144942,0.1977262811379158,0.030840957107060384,-0.99,-6.09,-5.227
1621784891857.706,-0.195,0.216,0.052,-0.9289741776540901,-6.1513235092841825,-5.270759979926091
1621784891862.674,-0.215,0.237,0.075,-0.8655353802636981,-6.21507176422282,-5.316250239518226
1621784891867.642,-0.227,0.257,0.096,-0.8020965828733063,-6.278820019161459,-5.36174049911036
1621784891868.981,-0.22834748636296626,0.26292893999705147,0.09977296181630547,-0.785,-6.296,-5.374
1621784891872.61,-0.232,0.279,0.11,-0.7759570665977218,-6.351387967088955,-5.427127233738385
1621784891877.578,-0.227,0.298,0.126,-0.7635786199869208,-6.427205952580111,-5.499850607576841
1621784891882.545,-0.22,0.321,0.133,-0.7512019983879062,-6.503012759874075,-5.572563259471051
1621784891885.034,-0.21398791095385522,0.3335251855128016,0.14051511130768096,-0.745,-6.541,-5.609
1621784891887.513,-0.208,0.346,0.148,-0.7707939185591944,-6.580385923548471,-5.653019561612997
1621784891892.479,-0.192,0.353,0.147,-0.8224655846427648,-6.6592857729575154,-5.7412017462466345
1621784891897.447,-0.175,0.374,0.157,-0.8741575728997125,-6.738216653230101,-5.829418612433641
1621784891901.084,-0.1544938301951723,0.3835207216950986,0.16066181603657637,-0.912,-6.796,-5.894
1621784891902.413,-0.147,0.387,0.162,-0.9485330208777163,-6.821183760423641,-5.908580071824214
1621784891907.38,-0.122,0.391,0.169,-1.085055389859395,-6.915294418406476,-5.96306518960375
1621784891912.346,-0.096,0.391,0.175,-1.2215576267575627,-7.009391198490474,-6.0175422728102745
1621784891917.128,-0.06614910771348509,0.3842594759353031,0.17114827196303034,-1.353,-7.1,-6.07
1621784891917.312,-0.065,0.384,0.171,-1.3582896579011443,-7.101571980764548,-6.073717677136596
1621784891922.277,-0.044,0.377,0.169,-1.5009630965424885,-7.14397167944972,-6.173991417092768
1621784891927.243,-0.023,0.372,0.169,-1.6436575815680545,-7.1863776327002675,-6.274279948867787
1621784891932.208,-0.002,0.351,0.168,-1.7863310202093987,-7.228777331385439,-6.374553688823959
1621784891933.171,0.0007150513841766236,0.34731528740718887,0.1668364065496386,-1.814,-7.237,-6.394
1621784891937.173,0.012,0.332,0.162,-1.8898565513882124,-7.357023030321481,-6.474847113979542
1621784891942.137,0.035,0.305,0.161,-1.983940331222601,-7.50588585301997,-6.575120616171456
1621784891947.103,0.051,0.284,0.157,-2.078065757428154,-7.654814570141257,-6.675438504627374
1621784891949.21,0.05736681093842219,0.27848209718670075,0.157,-2.118,-7.718,-6.718
1621784891952.067,0.066,0.271,0.157,-2.1249472386287525,-7.840200146136516,-6.759861566096328
1621784891957.031,0.089,0.253,0.152,-2.137018525847896,-8.052530993119406,-6.832598809596298
1621784891961.994,0.113,0.229,0.157,-2.149086844669062,-8.264809626742982,-6.905318166595628
1621784891965.248,0.1306994540894113,0.21588929326710274,0.157,-2.157,-8.404,-6.953
1621784891966.958,0.14,0.209,0.157,-2.1737424595380563,-8.465744484538437,-6.953
1621784891971.921,0.169,0.185,0.162,-2.2223347949877437,-8.644948065591741,-6.953
1621784891976.884,0.204,0.161,0.159,-2.2709295208514138,-8.824160462248207,-6.953
1621784891981.283,0.23946152332218068,0.13706347175752806,0.15722692383389097,-2.314,-8.983,-6.953
1621784891981.846,0.244,0.134,0.157,-2.321233573419013,-8.983,-6.943343530629959
1621784891986.809,0.297,0.112,0.152,-2.3850025734342406,-8.983,-6.858215011192155
1621784891991.771,0.34,0.101,0.143,-2.4487558892052808,-8.983,-6.77310742945897
1621784891996.733,0.367,0.086,0.136,-2.5125092049763214,-8.983,-6.687999847725784
1621784891997.316,0.36899734317343175,0.08517756457564575,0.1362349815498155,-2.52,-8.983,-6.678
1621784892001.695,0.384,0.079,0.138,-2.562889916081573,-8.766091761982365,-6.694117866552948
1621784892006.657,0.374,0.077,0.14,-2.611487488386969,-8.520318052361443,-6.712380648502109
1621784892011.618,0.326,0.086,0.169,-2.660075496123913,-8.274592713870147,-6.730639836122999
1621784892013.346,0.2956970621524531,0.0936628118694946,0.18119083706510508,-2.677,-8.189,-6.737
1621784892016.579,0.239,0.108,0.204,-2.5959142334932603,-8.054462173482598,-7.037743477267535
1621784892021.54,0.126,0.126,0.22,-2.471496595841901,-7.848027933896885,-7.499202924377427
1621784892026.5,0.0,0.141,0.234,-2.347103449851496,-7.641634330972508,-7.960571533013479
1621784892029.375,-0.07765669291338582,0.14621574803149606,0.243851968503937,-2.275,-7.522,-8.228
1621784892031.461,-0.134,0.15,0.251,-2.2800762621492336,-7.634328570122787,-8.358160567929069
1621784892036.421,-0.225,0.119,0.276,-2.2921466439170044,-7.901424453855763,-8.667657536333445
1621784892041.381,-0.229,0.079,0.291,-2.3042176198165807,-8.168533484659212,-8.977169738886689
1621784892045.401,-0.16496223907050017,0.04738642181961402,0.2942424182749114,-2.314,-8.385,-9.228
1621784892046.34,-0.15,0.04,0.295,-2.308255671862382,-8.388458320001218,-9.2550217884841
1621784892051.3,-0.026,0.033,0.283,-2.27791988542,-8.406721701634899,-9.397723804299797
1621784892056.259,0.12,0.049,0.262,-2.2475900717648676,-8.424981487406866,-9.540397723636696
1621784892061.219,0.262,0.045,0.25,-2.217254285322485,-8.443244869040546,-9.683099739452393
1621784892061.424,0.26683947212921016,0.04528954106755958,0.2493381918455781,-2.216,-8.444,-9.689
1621784892066.177,0.379,0.052,0.234,-1.9658929562010425,-7.908480173123229,-9.619278582096376
1621784892071.135,0.482,0.079,0.227,-1.704994361303301,-7.34985388155689,-9.54654884330519
1621784892076.094,0.559,0.105,0.232,-1.4440443780669938,-6.791117559206316,-9.473804779176445
1621784892077.444,0.5756106952924956,0.11153535552491628,0.23336153240102422,-1.373,-6.639,-9.454
1621784892081.052,0.62,0.129,0.237,-1.1831197396698623,-6.195045085277934,-9.186635979819842
1621784892086.009,0.66,0.152,0.243,-0.9222367510554954,-5.585080232894877,-8.819295401545519
1621784892090.967,0.695,0.168,0.251,-0.6613023670533006,-4.974995214071241,-8.451882455150969
1621784892093.462,0.7080857959022853,0.17403959810874706,0.251,-0.53,-4.668,-8.267
1621784892095.924,0.721,0.18,0.251,-0.2781901466418707,-4.41173197463492,-8.052854013597146
1621784892100.881,0.717,0.215,0.267,0.22877537270205173,-3.895790875278193,-7.621716670223469
1621784892105.838,0.709,0.257,0.29,0.7357159232950214,-3.3798751867321117,-7.190600560958507
1621784892109.478,0.6943132387706855,0.2988572695035461,0.3002807328605201,1.108,-3.001,-6.874
1621784892110.795,0.689,0.314,0.304,1.1878641984721185,-2.955845061831933,-6.821607111815922
1621784892115.751,0.627,0.349,0.321,1.4884283862704137,-2.7859071224897454,-6.624429575639286
1621784892120.708,0.534,0.391,0.356,1.7890517985392114,-2.615935697839313,-6.427213186746161
1621784892125.489,0.4278643082380765,0.4074027887268427,0.39652453685455263,2.079,-2.452,-6.237
1621784892125.663,0.424,0.408,0.398,2.068865393707392,-2.454870746846833,-6.239348792874682
1621784892130.619,0.302,0.387,0.408,1.7803347161005965,-2.5366004666839514,-6.306218563650506
1621784892135.574,0.169,0.342,0.382,1.4918466805960136,-2.618318107642331,-6.373078451707362
1621784892140.529,0.028,0.279,0.346,1.2033586450914304,-2.700035748600711,-6.439938339764218
1621784892141.497,0.004165065287016507,0.2698176890859818,0.34052968711505294,1.147,-2.716,-6.453
1621784892145.484,-0.094,0.232,0.318,0.9736475504850223,-3.221611311085352,-6.557858306387652
1621784892150.438,-0.204,0.209,0.297,0.7582361661887622,-3.8498945152827773,-6.6881574339576595
1621784892155.393,-0.276,0.201,0.272,0.5427823195656154,-4.478301567933622,-6.818482246354707
1621784892157.504,-0.29389621014242767,0.2061132028978365,0.25879089251392245,0.451,-4.746,-6.874
1621784892160.347,-0.318,0.213,0.241,0.25930032801891834,-5.085871614921047,-7.013466397131741
1621784892165.301,-0.347,0.227,0.204,-0.07474602181707218,-5.678115050728508,-7.256493630330307
1621784892170.255,-0.363,0.257,0.155,-0.4087759096803723,-6.270329300480586,-7.499508887024182
1621784892173.506,-0.3721877587226493,0.2832507392075695,0.12218657599053814,-0.628,-6.659,-7.659
1621784892175.209,-0.377,0.297,0.105,-0.7094040855556234,-6.820744065417709,-7.740404085555623
1621784892180.162,-0.37,0.349,0.058,-0.9461820192835785,-7.291204796485019,-7.977182019283578
1621784892185.115,-0.344,0.412,0.0,-1.1829482821748947,-7.761642338439007,-8.213948282174893
1621784892189.509,-0.2730299684542587,0.4572433951104101,-0.04613052050473186,-1.393,-8.179,-8.424
1621784892190.068,-0.264,0.463,-0.052,-1.3970882873535155,-8.180712188720703,-8.455518249511718
1621784892195.02,-0.154,0.508,-0.099,-1.433299087524414,-8.195877395629882,-8.734681854248047
1621784892199.972,-0.028,0.545,-0.152,-1.4695098876953125,-8.211042602539063,-9.013845458984376
1621784892204.924,0.108,0.585,-0.215,-1.5057224731445313,-8.226208557128906,-9.293022827148437
1621784892205.509,0.12430173051323769,0.5872444411576196,-0.22114268106295912,-1.51,-8.228,-9.326
1621784892209.876,0.246,0.604,-0.267,-1.4565016785692486,-7.898821552829152,-9.277960690960143
1621784892214.827,0.354,0.618,-0.312,-1.3958491118842704,-7.52562259659403,-9.223497161691999
1621784892219.779,0.45,0.621,-0.351,-1.335181590673259,-7.152331624244644,-9.169020203869865
1621784892221.508,0.48317668524088964,0.6168092608116771,-0.3618260762365008,-1.314,-7.022,-9.15
1621784892224.73,0.545,0.609,-0.382,-1.2567995055171468,-6.690076003845978,-8.987864795567969
1621784892229.681,0.63,0.613,-0.403,-1.1689031027272867,-6.1800292721639725,-8.738721822871359
1621784892234.632,0.686,0.606,-0.424,-1.0810023655815515,-5.66995738900844,-8.489566564412497
1621784892237.505,0.6981877681874229,0.6007766707768187,-0.4332859186189889,-1.03,-5.374,-8.345
1621784892239.582,0.707,0.597,-0.44,-1.0019430839694656,-5.2274805496183205,-8.138729709923664
1621784892244.532,0.689,0.581,-0.442,-0.9350820152671756,-4.878317190839694,-7.647177038167939
1621784892249.482,0.653,0.56,-0.44,-0.8682209465648855,-4.529153832061069,-7.155624366412214
1621784892253.496,0.6132889392744479,0.5518957018927445,-0.43675828075709777,-0.814,-4.246,-6.757
1621784892254.435,0.604,0.55,-0.436,-0.7949108122185116,-4.214243604277092,-6.698082753760838
1621784892259.365,0.56,0.534,-0.443,-0.6946851312846595,-4.047510141242072,-6.38874423236006
1621784892264.295,0.525,0.524,-0.456,-0.5944594503508073,-3.880776678207053,-6.079405710959282
1621784892269.225,0.471,0.504,-0.461,-0.4942288060295965,-3.714034958178866,-5.770051870461717
1621784892269.433,0.46813031849026693,0.5034091832185844,-0.46091559760265494,-0.49,-3.707,-5.757
1621784892274.154,0.403,0.49,-0.459,-0.33021213282639356,-3.669054087201815,-5.480706322438216
1621784892279.084,0.33,0.478,-0.45,-0.1633508615931808,-3.629428404979457,-5.192181823756669
1621784892284.012,0.237,0.473,-0.449,0.003444303060035625,-3.5898184215367634,-4.903771631814559
1621784892285.358,0.20804889769630913,0.47436561803319294,-0.449,0.049,-3.579,-4.825
1621784892288.94,0.131,0.478,-0.449,0.13944984588016993,-3.6343499056878654,-4.708000199358985
1621784892293.868,0.028,0.468,-0.445,0.2638861966906409,-3.710497523348004,-4.547037755524544
1621784892298.795,-0.084,0.452,-0.435,0.38829788832829826,-3.7866300510665707,-4.386107209127574
1621784892301.278,-0.1500356346334936,0.44242231253407344,-0.4279427566040541,0.451,-3.825,-4.305
1621784892303.721,-0.215,0.433,-0.421,0.5549157820457753,-3.9484095845861202,-4.38481714425968
1621784892308.648,-0.368,0.417,-0.394,0.764502469779714,-4.197313125115052,-4.545799533656501
1621784892313.573,-0.494,0.419,-0.372,0.9740060747376817,-4.446117997177394,-4.706718107627171
1621784892317.193,-0.5336843931208802,0.4057718689597066,-0.35362759577737024,1.128,-4.629,-4.825
1621784892318.499,-0.548,0.401,-0.347,1.138423700725783,-4.703032898068159,-4.934489895812555
1621784892323.424,-0.593,0.379,-0.321,1.177735219652913,-4.982237544306516,-5.347415614306977
1621784892328.349,-0.644,0.349,-0.302,1.2170467385800432,-5.261442190544874,-5.760341332801399
1621784892333.104,-0.6691078936929791,0.3036126537088457,-0.2865489884966283,1.255,-5.531,-6.159
1621784892333.273,-0.67,0.302,-0.286,1.2552124426297449,-5.541420310988994,-6.170450657743257
1621784892338.198,-0.661,0.262,-0.278,1.2614055136844367,-5.845190446221622,-6.50425718759114
1621784892343.121,-0.606,0.227,-0.246,1.2675961287549695,-6.1488401154312555,-6.837931339892858
1621784892348.044,-0.543,0.206,-0.229,1.2737864368274823,-6.452474726388014,-7.171588945001305
1621784892349.009,-0.5316301016612943,0.20227537813042398,-0.22586347632035705,1.275,-6.512,-7.237
1621784892352.967,-0.485,0.187,-0.213,1.1699777566277265,-6.643651106028276,-7.3469996008780685
1621784892357.889,-0.394,0.176,-0.213,1.0393801482891485,-6.8073623259598115,-7.48378666932748
1621784892362.81,-0.288,0.143,-0.216,0.9088019741184779,-6.971049184102666,-7.620553382558372
1621784892364.913,-0.23715347222222222,0.13488164682539683,-0.21856369047619048,0.853,-7.041,-7.679
1621784892367.732,-0.169,0.124,-0.222,0.8565457420999294,-7.068834075484446,-7.611099038786353
1621784892372.653,-0.056,0.101,-0.223,0.8627358965697264,-7.117426788072352,-7.49255758068974
1621784892377.573,0.04,0.079,-0.23,0.8689245155544636,-7.16600744710254,-7.374045527132021
1621784892380.813,0.09662363564199244,0.057930740226235365,-0.22802475689620957,0.873,-7.198,-7.296
1621784892382.494,0.126,0.047,-0.227,0.8853743432977972,-7.157598297950782,-7.19023638207011
1621784892387.414,0.202,0.012,-0.23,0.9215951334910443,-7.039338965866847,-6.880656978709023
1621784892392.333,0.267,-0.019,-0.229,0.9578069372330947,-6.921108974162033,-6.5711543826231225
1621784892396.706,0.308783998411753,-0.058116934683343266,-0.22366587254318046,0.99,-6.816,-6.296
1621784892397.252,0.314,-0.063,-0.223,0.9940541479079916,-6.7934273290207585,-6.251851016425685
1621784892402.17,0.353,-0.098,-0.211,1.030577741583565,-6.590071387962692,-5.854115271738296
1621784892407.088,0.374,-0.131,-0.202,1.0671013352591388,-6.386715446904627,-5.456379527050906
1621784892412.006,0.37,-0.162,-0.194,1.1036267420598946,-6.183349410734316,-5.058624037737589
1621784892412.595,0.3658083416087388,-0.16535332671300895,-0.19208381330685204,1.108,-6.159,-5.011
1621784892416.923,0.335,-0.19,-0.178,1.0491437266565224,-6.035837798373834,-4.687835462104794
1621784892421.84,0.272,-0.215,-0.178,0.9822797067367548,-5.895918645578765,-4.320702463841625
1621784892426.756,0.18,-0.25,-0.171,0.9154289666620556,-5.756027282089116,-3.9536423817648054
1621784892428.479,0.1474130585898709,-0.2566575471698113,-0.16609443892750747,0.892,-5.707,-3.825
1621784892431.673,0.087,-0.269,-0.157,0.7264509686346864,-5.8095880996309965,-3.7972408671586715
1621784892436.588,-0.014,-0.29,-0.155,0.47171829643296437,-5.967441881918819,-3.7545274907749078
1621784892441.504,-0.101,-0.314,-0.143,0.21692235547355476,-6.125334870848708,-3.7118035055350553
1621784892444.358,-0.1416548092209857,-0.3354889705882353,-0.14416156597774243,0.069,-6.217,-3.687
1621784892446.418,-0.171,-0.351,-0.145,-0.06337096278068285,-6.304857982159335,-3.876601937865272
1621784892451.333,-0.215,-0.4,-0.161,-0.3791913257459243,-6.514476007382344,-4.328968163641957
1621784892456.246,-0.232,-0.447,-0.166,-0.6948861888649647,-6.724010735158413,-4.781154629344817
1621784892460.232,-0.22226620956923537,-0.4794459681025488,-0.18303413325383813,-0.951,-6.894,-5.148
1621784892461.16,-0.22,-0.487,-0.187,-0.9177368655798216,-6.900313565056906,-5.273569793909566
1621784892466.073,-0.188,-0.518,-0.195,-0.7416286527222393,-6.933740079975392,-5.9383860350661335
1621784892470.985,-0.129,-0.52,-0.206,-0.5655554444786219,-6.967159950784374,-6.6030701322669945
1621784892475.897,-0.056,-0.492,-0.201,-0.38949098738849586,-7.000578160565979,-7.2677211934789305
1621784892476.106,-0.053192605843768635,-0.49008586762075135,-0.20023434704830054,-0.382,-7.002,-7.296
1621784892480.81,0.01,-0.447,-0.183,0.11481796923076926,-6.9350066461538455,-7.624445292307692
1621784892485.722,0.068,-0.393,-0.161,0.6335786461538463,-6.865054430769231,-7.967396861538462
1621784892490.633,0.105,-0.36,-0.141,1.1522619692307692,-6.795112646153846,-8.310297292307691
1621784892491.975,0.11155999204415494,-0.35070667793744714,-0.13826666998160209,1.294,-6.776,-8.404
1621784892495.543,0.129,-0.326,-0.131,1.5654584404192122,-6.926010588036134,-8.19236587205097
1621784892500.453,0.14,-0.272,-0.113,1.9390249311315961,-7.132447082903707,-7.901126379291771
1621784892505.363,0.148,-0.195,-0.093,2.3126099970759784,-7.338893842626079,-7.609872404930824
1621784892507.839,0.14547799273884715,-0.14960386929924901,-0.08492957676431094,2.501,-7.443,-7.463
1621784892510.272,0.143,-0.105,-0.077,2.389619792468516,-7.631088339440219,-7.330601764325523
1621784892515.181,0.141,-0.028,-0.077,2.164881023493549,-8.01060587492687,-7.063453613326354
1621784892520.09,0.143,0.035,-0.101,1.9401310773778366,-8.390142285309604,-6.796292176001478
1621784892523.697,0.16504745560364123,0.06072203153758146,-0.12157762523006517,1.775,-8.669,-6.6
1621784892524.998,0.173,0.07,-0.129,1.5778028735101173,-8.75106289075734,-6.587936755058671
1621784892529.905,0.215,0.082,-0.157,0.8340488773907418,-9.06057350087776,-6.5424386953709694
1621784892534.813,0.26,0.047,-0.188,0.090146863161785,-9.37014570821399,-6.496931580892544
1621784892539.551,0.3024850987611324,0.0016181899596994856,-0.23241623961391117,-0.628,-9.669,-6.453
1621784892539.72,0.304,0.0,-0.234,-0.6391827831097007,-9.669426416896462,-6.461986736092925
1621784892544.627,0.335,-0.075,-0.29,-0.963984456118189,-9.68181160938487,-6.723004667786114
1621784892549.532,0.351,-0.173,-0.351,-1.2886568483970853,-9.694191872198173,-6.983918706576495
1621784892554.438,0.332,-0.257,-0.408,-1.6133938810407775,-9.706574599849029,-7.24488469181828
1621784892555.399,0.32533910706286395,-0.26307316708974166,-0.4175995221741078,-1.677,-9.709,-7.296
1621784892559.343,0.298,-0.288,-0.457,-1.6451410039133516,-9.56986579052784,-8.14300127877238
1621784892564.248,0.264,-0.271,-0.506,-1.6055198903028995,-9.396832958432194,-9.196365728900256
1621784892569.152,0.213,-0.248,-0.562,-1.5659066650232643,-9.223834576156287,-10.249520460358056
1621784892571.245,0.1771547038327526,-0.25397421602787457,-0.5969918367346939,-1.549,-9.15,-10.699
1621784892574.057,0.129,-0.262,-0.644,-1.40628888477899,-9.33442394118735,-10.78437816719068
1621784892578.961,0.117,-0.288,-0.707,-1.157383946735713,-9.65608094445472,-10.933287713457863
1621784892583.864,0.246,-0.307,-0.731,-0.9085285740706491,-9.977673894950989,-11.082167606805992
1621784892587.086,0.4109707156730913,-0.3654955924099806,-0.7474313461825788,-0.745,-10.189,-11.18
1621784892588.766,0.497,-0.396,-0.756,-0.5525514035980206,-10.031879618924293,-11.068604726448688
1621784892593.669,0.799,-0.515,-0.836,0.009022661055357761,-9.57339494982195,-10.743548073810295
1621784892598.57,1.091,-0.63,-0.927,0.5704009773543605,-9.11507009511477,-10.41860472644869
1621784892602.923,1.2863680645482618,-0.6752898695089152,-0.9705137961948401,1.069,-8.708,-10.13
1621784892603.472,1.311,-0.681,-0.976,1.1053620551409362,-8.53294911490779,-10.082753592795905
1621784892608.373,1.421,-0.689,-0.997,1.4300810306544132,-6.969716677974465,-9.660835610312713
1621784892613.273,1.405,-0.691,-1.005,1.7547191297107259,-5.40687358909517,-9.239022713254796
1621784892618.174,1.285,-0.668,-1.016,2.079438105224203,-3.8436411521618448,-8.817104730771602
1621784892618.756,1.261361933233682,-0.6637237668161435,-1.017781763826607,2.118,-3.658,-8.767
1621784892623.074,1.086,-0.632,-1.031,1.4626497076654892,-2.967726794501951,-8.239882279437854
1621784892627.974,0.866,-0.604,-1.049,0.7189238387609336,-2.1843685728830815,-7.641681455656171
1621784892632.873,0.651,-0.586,-1.068,-0.024616756398192052,-1.4012054980485318,-7.043629653055243
1621784892634.582,0.5847055129099791,-0.5793705512909979,-1.0760251221214236,-0.284,-1.128,-6.835
1621784892637.771,0.461,-0.567,-1.091,-0.32551208750520677,-1.505437572316759,-6.649203181166016
1621784892642.669,0.325,-0.529,-1.121,-0.38927073851802707,-2.0851460837100233,-6.363836791681452
1621784892647.567,0.248,-0.456,-1.127,-0.4530293895308474,-2.6648545951032876,-6.078470402196887
1621784892650.407,0.21320364923475746,-0.39626626451966696,-1.0968431626701232,-0.49,-3.001,-5.913
1621784892652.464,0.188,-0.353,-1.075,-0.41991660879897535,-3.100469006064534,-6.0800819252195115
1621784892657.361,0.096,-0.262,-0.99,-0.25308386957393947,-3.3372538771353177,-6.4778186040769725
1621784892662.257,-0.026,-0.211,-0.932,-0.08628440041356106,-3.573991528169992,-6.875475965618876
1621784892666.228,-0.13549311857983445,-0.19721197766031714,-0.8849585120175526,0.049,-3.766,-7.198
1621784892667.153,-0.161,-0.194,-0.874,0.08625715476521256,-3.8680623784384554,-7.26508627396499
1621784892672.049,-0.278,-0.185,-0.82,0.28344770152202775,-4.40824684325893,-7.620153082646414
1621784892676.945,-0.38,-0.187,-0.742,0.4806382482788429,-4.948431308079405,-7.975219891327838
1621784892681.84,-0.478,-0.225,-0.648,0.6777894631224723,-5.488508026921059,-8.33021587786731
1621784892682.044,-0.4803327513095535,-0.2276243452232477,-0.6434594662010477,0.686,-5.511,-8.345
1621784892686.734,-0.534,-0.288,-0.539,0.9799367878207703,-6.180143686502177,-8.554700614519964
1621784892691.628,-0.543,-0.365,-0.414,1.286665410863725,-6.8784078374455735,-8.773527190192384
1621784892696.522,-0.506,-0.428,-0.264,1.5933940339066797,-7.57667198838897,-8.992353765864806
1621784892697.856,-0.48473505638159864,-0.444630276419519,-0.22446901506835645,1.677,-7.767,-9.052
1621784892701.415,-0.428,-0.489,-0.119,1.4054441629853882,-8.023019060269995,-9.074066726390905
1621784892706.308,-0.316,-0.562,0.0,1.0321061134966483,-8.37499697259893,-9.10440431250193
1621784892711.2,-0.206,-0.644,0.091,0.6588612029285472,-8.726887074850946,-9.134734330110284
1621784892713.662,-0.14812121968260306,-0.6968458428984928,0.12270750573909572,0.471,-8.904,-9.15
1621784892716.092,-0.091,-0.749,0.154,0.2372315347054824,-8.653775465109092,-9.244891541504419
1621784892720.984,0.005,-0.819,0.19,-0.23338222387044938,-8.150032974843933,-9.435923573768465
1621784892725.875,0.089,-0.866,0.222,-0.7039255207367575,-7.646365906421905,-9.626927004141171
1621784892729.462,0.13520125786163523,-0.8902006588799042,0.24620065887990417,-1.049,-7.277,-9.767
1621784892730.766,0.152,-0.899,0.255,-1.0919334940727345,-7.137713837498648,-9.755688675600068
1621784892735.656,0.209,-0.932,0.251,-1.2529059674502712,-6.615481986368062,-9.713278620114064
1621784892740.546,0.251,-0.953,0.239,-1.4138784408278078,-6.093250135237477,-9.670868564628059
1621784892745.258,0.2895518825526815,-0.9414344352341955,0.21683266753220812,-1.569,-5.59,-9.63
1621784892745.435,0.291,-0.941,0.216,-1.5573559791009708,-5.583298243986891,-9.617358560563904
1621784892750.324,0.349,-0.915,0.187,-1.2357400915105423,-5.3981911210041424,-9.268193285104806
1621784892755.213,0.421,-0.876,0.176,-0.9141242039201137,-5.213083998021394,-8.919028009645707
1621784892760.101,0.475,-0.838,0.162,-0.5925564984851296,-5.0280046064428365,-8.569915043591172
1621784892761.052,0.4804461922596754,-0.8276911360799001,0.16102746566791512,-0.53,-4.992,-8.502
1621784892764.99,0.503,-0.785,0.157,-0.21201883233347768,-4.93064833941493,-7.995724101676047
1621784892769.877,0.497,-0.723,0.159,0.1825892912363164,-4.854512183808523,-7.367446069639434
1621784892774.764,0.449,-0.639,0.159,0.5771974148061103,-4.778376028202116,-6.739168037602821
1621784892776.842,0.41412346974466596,-0.6024221755858692,0.16708114725428472,0.745,-4.746,-6.472
1621784892779.65,0.367,-0.553,0.178,0.8846551270747289,-4.728565347193219,-6.219019629681192
1621784892784.536,0.278,-0.463,0.208,1.127670348198679,-4.698227141243986,-5.778806069887234
1621784892789.422,0.204,-0.386,0.244,1.3706977121908208,-4.6678874193698086,-5.338570513712933
1621784892792.625,0.1423653538584566,-0.34469167333066775,0.262359256297481,1.53,-4.648,-5.05
1621784892794.307,0.11,-0.323,0.272,1.5885141332095614,-4.671021954049663,-4.998840102111859
1621784892799.192,0.026,-0.26,0.302,1.7584675794847993,-4.737888883731724,-4.850246925040612
1621784892804.076,-0.035,-0.176,0.339,1.9283870503597125,-4.804742446043165,-4.70168345323741
1621784892808.405,-0.07400064983754062,-0.09268042989252687,0.38686443389152714,2.079,-4.864,-4.57
1621784892808.96,-0.079,-0.082,0.393,2.063134661218931,-4.859180595536571,-4.584141610177361
1621784892813.844,-0.119,-0.005,0.433,1.9235015321756896,-4.816764323521219,-4.708603955799053
1621784892818.727,-0.143,0.054,0.464,1.7838963227783453,-4.7743565326399855,-4.833041415173183
1621784892823.611,-0.15,0.119,0.476,1.6442631937351038,-4.731940260624633,-4.957503760794874
1621784892824.18,-0.14836867373474694,0.12634096819363871,0.4780974194838968,1.628,-4.727,-4.972
1621784892828.493,-0.136,0.182,0.494,1.2604710690071514,-4.633203554069533,-5.020128788582397
1621784892833.375,-0.105,0.227,0.485,0.8444472926534783,-4.527030819479274,-5.074608092628711
1621784892838.257,-0.072,0.262,0.482,0.42842351629980513,-4.420858084889013,-5.1290873966750254
1621784892839.952,-0.06505522208883553,0.2692920168067227,0.4795693277310924,0.284,-4.384,-5.148
1621784892843.138,-0.052,0.283,0.475,0.04635250394871318,-4.409664312923907,-4.9855267118833035
1621784892848.019,-0.047,0.291,0.478,-0.3177307442162965,-4.448982826968937,-4.736612654464369
1621784892852.899,-0.065,0.302,0.478,-0.6817229397008269,-4.488291507943882,-4.487760847347394
1621784892855.718,-0.08117469608284557,0.29968932913102203,0.4762669968482665,-0.892,-4.511,-4.344
1621784892857.779,-0.093,0.298,0.475,-1.0074468243274637,-4.4866816428936485,-4.288956836872184
1621784892862.658,-0.127,0.297,0.469,-1.2807338815840419,-4.429114946801096,-4.158658024748719
1621784892867.537,-0.168,0.286,0.464,-1.5540346141337174,-4.371545370069229,-4.0283526924685225
1621784892871.482,-0.20680248148889335,0.2593232939763858,0.4559161496898139,-1.775,-4.325,-3.923
1621784892872.417,-0.216,0.253,0.454,-1.7808144470435145,-4.321499465555435,-3.9328489613186064
1621784892877.295,-0.272,0.22,0.449,-1.8111467321425805,-4.303238191873344,-3.984228138119065
1621784892882.173,-0.328,0.204,0.443,-1.8414805353740338,-4.284976004213592,-4.035609886449894
1621784892887.05,-0.382,0.176,0.429,-1.8718067479435503,-4.2667183864421485,-4.086978777128872
1621784892887.242,-0.3835738886663997,0.17560652783340008,0.42888195835002,-1.873,-4.266,-4.089
1621784892891.927,-0.422,0.166,0.426,-1.803118698960222,-4.432228286303132,-4.205865324717586
1621784892896.803,-0.447,0.152,0.421,-1.7303897075914647,-4.605230440239877,-4.327492957091721
1621784892901.68,-0.45,0.138,0.403,-1.6576461500317665,-4.778267243115925,-4.449144949095811
1621784892902.997,-0.444326171875,0.13610872395833334,0.40110872395833336,-1.638,-4.825,-4.482
1621784892906.555,-0.429,0.131,0.396,-1.5006467414894276,-4.9490245705958955,-4.583885394059652
1621784892911.431,-0.396,0.131,0.384,-1.3124068952688037,-5.118997721212873,-4.723517253673963
1621784892916.305,-0.356,0.14,0.375,-1.1242424505487691,-5.288902787251193,-4.863093182240962
1621784892918.746,-0.3334707089925896,0.1510143200480673,0.3760013018225516,-1.03,-5.374,-4.933
1621784892921.181,-0.311,0.162,0.377,-0.9859325725980248,-5.460434006728786,-4.922331043892153
1621784892926.055,-0.265,0.204,0.384,-0.8977181816772353,-5.6334580226050015,-4.900973875563962
1621784892930.928,-0.225,0.251,0.393,-0.8095214654490768,-5.806447371277073,-4.879620986371882
1621784892934.493,-0.20817741935483872,0.28025666199158483,0.3966570827489481,-0.745,-5.933,-4.864
1621784892935.802,-0.202,0.291,0.398,-0.7923166563275434,-5.947718889578164,-4.868074720843673
1621784892940.675,-0.19,0.332,0.386,-0.9684525124069479,-6.002509832506203,-4.883242834987593
1621784892945.547,-0.178,0.354,0.374,-1.144553070719603,-6.05728979528536,-4.898407909429281
1621784892950.235,-0.1760754698070659,0.38286795289401154,0.36533961413179655,-1.314,-6.11,-4.913
1621784892950.419,-0.176,0.384,0.365,-1.310215258601967,-6.114917827557321,-4.916212357668083
1621784892955.291,-0.183,0.421,0.363,-1.2099120722285999,-6.245250054295554,-5.001346234991158
1621784892960.163,-0.204,0.454,0.367,-1.1096088858552324,-6.375582281033787,-5.086480112314232
1621784892965.032,-0.222,0.518,0.374,-1.009371040302814,-6.5058296050386275,-5.171558530607179
1621784892965.973,-0.22393124874724393,0.5301668671076368,0.37496562437362196,-0.99,-6.531,-5.188
1621784892969.904,-0.232,0.581,0.379,-0.9435223699933271,-6.597218128772948,-5.450123838048387
1621784892974.774,-0.243,0.635,0.386,-0.885946336845699,-6.679248498580052,-5.7748402830583965
1621784892979.643,-0.26,0.661,0.386,-0.8283789630503267,-6.761266531137975,-6.099507891183911
1621784892981.705,-0.2680466329037758,0.6516828461114176,0.38007090207090205,-0.804,-6.796,-6.237
1621784892984.512,-0.279,0.639,0.372,-1.0454316467484093,-6.648964022970667,-6.681498323762223
1621784892989.381,-0.311,0.586,0.325,-1.4642463603911222,-6.393898742821667,-7.452575523824305
1621784892994.249,-0.342,0.527,0.262,-1.8829560763619433,-6.138897408039734,-8.223459413316778
1621784892997.435,-0.36294387883043283,0.4883847234063895,0.22534821204674255,-2.157,-5.972,-8.728
1621784892999.117,-0.374,0.468,0.206,-2.3290832906400882,-6.086330042072253,-8.893666263021439
1621784893003.984,-0.382,0.384,0.145,-2.8270482200797975,-6.417171875242576,-9.373061959542328
1621784893008.851,-0.365,0.271,0.077,-3.3250381289491253,-6.7480303044416505,-9.85248170400385
1621784893013.161,-0.3464076433121019,0.17007006369426753,0.010598726114649681,-3.766,-7.041,-10.277
1621784893013.719,-0.344,0.157,0.002,-3.720379406740177,-7.164938903556453,-10.258219226587979
1621784893018.585,-0.318,0.024,-0.037,-3.3226261065382823,-8.245527830408449,-10.094474871874514
1621784893023.451,-0.25,-0.098,-0.045,-2.9248728063363876,-9.326116757260444,-9.930730517161049
1621784893028.316,-0.129,-0.188,-0.014,-2.5271993321944404,-10.406488818139463,-9.767019024693274
1621784893028.881,-0.11180624278616952,-0.1939248757966578,-0.0080751242033422,-2.481,-10.532,-9.748
1621784893033.181,0.019,-0.239,0.037,-1.8023423623514794,-10.719923336180788,-9.506462436903005
1621784893038.046,0.206,-0.278,0.079,-1.0344789314281275,-10.93254815562631,-9.233176096916983
1621784893042.91,0.396,-0.284,0.112,-0.26676963578473245,-11.145130294323211,-8.959944614428826
1621784893044.6,0.44708071073633493,-0.287127390453245,0.12172965918787332,0.0,-11.219,-8.865
1621784893047.774,0.543,-0.293,0.14,0.3050220647647461,-11.113959288955186,-8.451099198209958
1621784893052.637,0.639,-0.284,0.182,0.7723862576915905,-10.953012679470445,-7.816907654297967
1621784893057.5,0.668,-0.25,0.255,1.239750450618435,-10.792066069985705,-7.182716110385978
1621784893060.312,0.6338837291028666,-0.21819669662131633,0.31860660675736735,1.51,-10.699,-6.816
1621784893062.363,0.609,-0.195,0.365,1.5816840068386697,-10.546622520982282,-7.023348274790177
1621784893067.225,0.504,-0.113,0.497,1.751614609884986,-10.18540391669257,-7.514877960833074
1621784893072.086,0.405,-0.021,0.581,1.9215025489586572,-9.824276002486789,-8.006284239975132
1621784893076.02,0.2909114235500879,0.0437311072056239,0.6166021089630931,2.059,-9.532,-8.404
1621784893076.948,0.264,0.059,0.625,1.8932843193656224,-9.542460654590686,-8.50718815206406
1621784893081.808,0.112,0.075,0.682,1.0253805955064916,-9.597246303350696,-9.047616077120423
1621784893086.669,0.056,0.04,0.752,0.15734607789784638,-9.65204020834953,-9.588125445075022
1621784893091.529,0.127,0.012,0.773,-0.7105576459612846,-9.70682585710954,-10.128553370131385
1621784893091.722,0.1343037885639634,0.012714501055170335,0.7732778615214552,-0.745,-9.709,-10.15
1621784893096.388,0.311,0.03,0.78,-1.2463675436959631,-9.650452634197922,-10.187743733283574
1621784893101.248,0.572,0.086,0.768,-1.7685904242084964,-9.589469879330721,-10.227057488959383
1621784893106.107,0.84,0.148,0.747,-2.290682139080674,-9.52850244137588,-10.266361370280524
1621784893107.422,0.8922484044424343,0.16045298758731594,0.7318398411980501,-2.432,-9.512,-10.277
1621784893110.965,1.033,0.194,0.691,-2.5227536168756415,-8.699506798170562,-10.026863165427335
1621784893115.823,1.155,0.215,0.618,-2.647189633178806,-7.585463955695218,-9.683890264770854
1621784893120.681,1.225,0.229,0.578,-2.77162564948197,-6.471421113219876,-9.340917364114372
1621784893123.116,1.233021311887409,0.23301065594370446,0.5759946720281477,-2.834,-5.913,-9.169
1621784893125.538,1.241,0.237,0.574,-2.5993661117161975,-5.578492344795395,-8.799605990353198
1621784893130.395,1.194,0.222,0.593,-2.1288685234168354,-4.907723743581764,-8.058881826668742
1621784893135.251,1.101,0.185,0.63,-1.658465536019916,-4.237090010891551,-7.318306597168196
1621784893138.807,1.019700844815448,0.1630272553555265,0.6578321432163331,-1.314,-3.746,-6.776
1621784893140.106,0.99,0.155,0.668,-1.0452132775175462,-3.712712180394964,-6.588445494016402
1621784893144.962,0.862,0.169,0.724,-0.04048335641699996,-3.588281672606172,-5.88736315535567
1621784893149.818,0.712,0.227,0.796,0.964297079008388,-3.4638449088843584,-5.18624556871411
1621784893154.495,0.5771051202092344,0.32431702042048083,0.8971711598430742,1.932,-3.344,-4.511
1621784893154.672,0.572,0.328,0.901,1.9415149689411983,-3.340568741923933,-4.51885577506889
1621784893159.527,0.452,0.428,1.033,2.202500723926953,-3.2464528824747405,-4.734331558544674
1621784893164.38,0.347,0.475,1.131,2.4633683620568867,-3.1523796179533883,-4.949709822054085
1621784893169.234,0.216,0.499,1.14,2.7243016206622763,-3.058282689583236,-5.165142263322591
1621784893170.177,0.18587194324242728,0.49394626144711684,1.1269769044983395,2.775,-3.04,-5.207
1621784893174.086,0.061,0.473,1.073,2.469306666874309,-3.04,-5.569044632706772
1621784893178.939,-0.101,0.429,0.99,2.0897818354538797,-3.04,-6.018530811517917
1621784893183.791,-0.244,0.37,0.909,1.7103333748617882,-3.04,-6.467926541354554
1621784893185.854,-0.29459625641541715,0.3648978564959243,0.8749857099728289,1.549,-3.04,-6.659
1621784893188.643,-0.363,0.358,0.829,1.4461436048413476,-3.455340529931305,-6.761856395158652
1621784893193.495,-0.463,0.37,0.763,1.267207330560618,-4.177896350296742,-6.940792669439382
1621784893198.346,-0.529,0.408,0.707,1.0883160739598423,-4.900270386466657,-7.119683926040158
1621784893201.527,-0.5519563072586328,0.4480095640793315,0.6669904359206684,0.971,-5.374,-7.237
1621784893203.196,-0.564,0.469,0.646,0.8111141236599352,-5.553698516579407,-7.320617863375717
1621784893208.046,-0.579,0.534,0.572,0.346495496758913,-6.075891470331588,-7.563606285838943
1621784893212.896,-0.572,0.592,0.492,-0.1181465189478933,-6.5981107111692845,-7.806606940289205
1621784893217.195,-0.5489492498237841,0.6629253851575874,0.4317134226160507,-0.53,-7.061,-8.022
1621784893217.745,-0.546,0.672,0.424,-0.5595570823866289,-7.090557082386629,-8.059481045161693
1621784893222.594,-0.52,0.757,0.353,-0.8201133244109683,-7.351113324410968,-8.389889850291015
1621784893227.442,-0.469,0.843,0.298,-1.0806170904790064,-7.611617090479006,-8.720232111176818
1621784893232.296,-0.408,0.915,0.227,-1.341448831273927,-7.8724488312739265,-9.050990273584612
1621784893232.883,-0.39987778375997257,0.9206502373843669,0.21958406343301845,-1.373,-7.904,-9.091
1621784893237.284,-0.339,0.963,0.164,-1.560284535114423,-7.858407409090221,-9.401411831523466
1621784893242.272,-0.244,0.984,0.098,-1.7725562724340045,-7.806731927847698,-9.7532383115998
1621784893247.262,-0.108,1.0,0.04,-1.9849111272661186,-7.75503621245854,-10.10520255350084
1621784893249.003,-0.05565598238316614,1.00314064105701,0.02115615365793981,-2.059,-7.737,-10.228
1621784893252.251,0.042,1.009,-0.014,-2.0293827235279864,-7.5750116307244975,-10.091800823842984
1621784893257.24,0.192,1.004,-0.068,-1.9838904622001454,-7.326196813666101,-9.882598315968016
1621784893262.229,0.318,0.984,-0.113,-1.9383982008723044,-7.077381996607706,-9.673395808093046
1621784893265.124,0.3742870565206753,0.9607888426718865,-0.1385322730609249,-1.912,-6.933,-9.552
1621784893267.218,0.415,0.944,-0.157,-1.857308195628796,-6.758531844963119,-9.342975978068248
1621784893272.207,0.497,0.904,-0.199,-1.7270030746860943,-6.342855414022386,-8.84496899565303
1621784893277.196,0.567,0.852,-0.232,-1.5966979537433925,-5.927178983081653,-8.34696201323781
1621784893281.243,0.6140379177063457,0.7895531092519203,-0.24740897304173395,-1.491,-5.59,-7.943
1621784893282.186,0.625,0.775,-0.251,-1.4996008269720102,-5.519438113413304,-7.8299605597964375
1621784893287.175,0.656,0.688,-0.264,-1.5450986005089058,-5.14617066521265,-7.2319898218829515
1621784893292.163,0.635,0.607,-0.269,-1.5905874681933843,-4.772976281352236,-6.634136132315522
1621784893297.152,0.607,0.527,-0.283,-1.6360852417302798,-4.399708833151582,-6.036165394402036
1621784893297.362,0.6046011744555909,0.5240119892341571,-0.283799608514803,-1.638,-4.384,-6.011
1621784893302.141,0.55,0.456,-0.302,-1.7310971025248776,-4.162820259606501,-5.601254153855475
1621784893307.13,0.466,0.407,-0.328,-1.8282795389485482,-3.931934598548991,-5.173527634309256
1621784893312.119,0.37,0.351,-0.344,-1.9254667312906109,-3.7010376383987396,-4.745780182663617
1621784893313.481,0.3484320528505016,0.33461928064595053,-0.35109831172008804,-1.952,-3.638,-4.629
1621784893317.108,0.291,0.291,-0.37,-1.848270810614322,-3.680076699382043,-4.470143584151217
1621784893322.097,0.22,0.216,-0.394,-1.705587316733309,-3.7379548194595906,-4.251630467708711
1621784893327.086,0.124,0.171,-0.419,-1.5629038228522962,-3.795832939537138,-4.033117351266206
1621784893329.6,0.06403122094445804,0.1357242476143871,-0.4205118179593834,-1.491,-3.825,-3.923
1621784893332.075,0.005,0.101,-0.422,-1.3178098087030279,-3.892709995001742,-3.87325388122321
1621784893337.065,-0.136,0.024,-0.403,-0.9686104084940097,-4.029232100934523,-3.772951925844024
1621784893342.054,-0.271,-0.017,-0.393,-0.6194793481059632,-4.1657274889053815,-3.6726695999878833
1621784893345.719,-0.35768539270858823,-0.054465720577440674,-0.3797768045020798,-0.363,-4.266,-3.599
1621784893347.043,-0.389,-0.068,-0.375,-0.32111784481192074,-4.280453449633534,-3.65057253619238
1621784893352.032,-0.482,-0.103,-0.372,-0.16329711066690897,-4.334917075534557,-3.8449086558846695
1621784893357.021,-0.559,-0.136,-0.372,-0.005476376521897142,-4.389380701435581,-4.039244775576958
1621784893361.841,-0.6208327379495963,-0.1398645461218498,-0.3787629557132371,0.147,-4.442,-4.227
1621784893362.01,-0.623,-0.14,-0.379,0.15964108817158695,-4.449819445917084,-4.234400172677563
1621784893367.0,-0.661,-0.152,-0.391,0.5330098759448038,-4.680775594904497,-4.45297261394447
1621784893371.989,-0.684,-0.154,-0.391,0.9063055938441964,-4.911686544782563,-4.671502279646768
1621784893376.979,-0.698,-0.145,-0.387,1.2796743816174132,-5.142642693769975,-4.890074720913677
1621784893377.959,-0.6983928553951553,-0.14283929532664547,-0.3844464399314901,1.353,-5.188,-4.933
1621784893381.968,-0.7,-0.134,-0.374,1.5335680747618254,-5.397667888463111,-5.032983975281341
1621784893386.957,-0.686,-0.127,-0.358,1.7582747678839192,-5.6585876436999225,-5.157408342547294
1621784893391.946,-0.649,-0.113,-0.34,1.9829814610060132,-5.919507398936734,-5.281832709813247
1621784893394.078,-0.6246435527281624,-0.10488118424272082,-0.33487232689013946,2.079,-6.031,-5.335
1621784893396.935,-0.592,-0.094,-0.328,2.0633997818710617,-6.081346158507029,-5.390664414687349
1621784893401.924,-0.527,-0.086,-0.321,2.036159718856035,-6.169257270964614,-5.487861912263694
1621784893406.913,-0.454,-0.073,-0.311,2.0089196558410083,-6.257168383422201,-5.585059409840039
1621784893410.195,-0.4138716417910448,-0.07760489356496207,-0.2978431612429655,1.991,-6.315,-5.649
1621784893411.902,-0.393,-0.08,-0.291,1.9660039839430434,-6.333747012042718,-5.6510123911232295
1621784893416.892,-0.337,-0.08,-0.265,1.8929356812845566,-6.388548239036583,-5.6568950087101415
1621784893421.881,-0.288,-0.077,-0.223,1.8198816784064227,-6.443338741195183,-5.662776475043551
1621784893426.312,-0.2507057096726846,-0.08321571505455258,-0.19991305836880474,1.755,-6.492,-5.668
1621784893426.871,-0.246,-0.084,-0.197,1.7437954252821328,-6.497793077330909,-5.668
1621784893431.86,-0.204,-0.094,-0.187,1.6438104976141785,-6.549488070892979,-5.668
1621784893436.849,-0.155,-0.099,-0.159,1.5438255699462242,-6.601183064455048,-5.668
1621784893441.838,-0.105,-0.113,-0.133,1.4438455351056578,-6.652875528289025,-5.668
1621784893442.429,-0.10002509907529722,-0.11536900044033466,-0.13110479964773228,1.432,-6.659,-5.668
1621784893446.828,-0.063,-0.133,-0.117,1.279439230536201,-6.77935652832475,-5.536999697061496
1621784893451.817,-0.042,-0.152,-0.103,1.106413405028779,-6.915858118751893,-5.388426537412905
1621784893456.806,-0.026,-0.182,-0.094,0.9333875795213571,-7.052359709179036,-5.239853377764313
1621784893458.547,-0.022510592494740446,-0.1914214002642008,-0.09574470375262978,0.873,-7.1,-5.188
1621784893461.796,-0.016,-0.209,-0.099,0.6159913655987276,-7.173171870029538,-5.195861440581686
1621784893466.785,0.005,-0.244,-0.105,0.22131401954101348,-7.285538832083617,-5.207933924108158
1621784893471.775,0.033,-0.302,-0.113,-0.1734405816859803,-7.397927789138832,-5.220008770733925
1621784893474.664,0.058480597014925376,-0.3355880597014925,-0.11937014925373135,-0.402,-7.463,-5.227
1621784893476.764,0.077,-0.36,-0.124,-0.4684310702548803,-7.4183218488285805,-5.358559570504763
1621784893481.753,0.12,-0.419,-0.133,-0.6262637549030001,-7.312171631506414,-5.671130181278491
1621784893486.742,0.175,-0.478,-0.138,-0.78409643955112,-7.206021414184247,-5.983700792052218
1621784893490.785,0.21145970937912814,-0.49906560986349624,-0.13637956847203875,-0.912,-7.12,-6.237
1621784893491.732,0.22,-0.504,-0.136,-0.8463199551705337,-7.04909140061792,-6.30038888047495
1621784893496.721,0.246,-0.485,-0.113,-0.5003102320227781,-6.675537075180227,-6.634328497001272
1621784893501.71,0.232,-0.459,-0.08,-0.15430050887502267,-6.301982749742534,-6.968268113527595
1621784893506.7,0.192,-0.435,-0.044,0.19177694311504212,-5.928355303810505,-7.302273096262192
1621784893506.905,0.18949302803463966,-0.43389035667107,-0.04260267136356964,0.206,-5.913,-7.316
1621784893511.69,0.131,-0.408,-0.01,0.8261219423534223,-6.026693970283083,-7.211211562637263
1621784893516.679,0.065,-0.365,0.035,1.4726953334444057,-6.145237583872287,-7.1019533495902945
1621784893521.668,0.0,-0.298,0.103,2.1192687245353894,-6.2637811974614905,-6.992695136543325
1621784893523.024,-0.025543128333088704,-0.27300034248250893,0.11876065365233132,2.295,-6.296,-6.963
1621784893526.658,-0.094,-0.206,0.161,2.325884548979221,-6.826447764584722,-6.7528948930756645
1621784893531.647,-0.215,-0.087,0.201,2.3682846671109226,-7.554677530744533,-6.464450293814745
1621784893536.636,-0.304,0.052,0.194,2.410684785242624,-8.282907296904343,-6.176005694553825
1621784893539.144,-0.3276230246098146,0.09874343167473948,0.17389529820441313,2.432,-8.649,-6.031
1621784893541.626,-0.351,0.145,0.154,1.9940638906981323,-8.877053227101289,-6.23934302246323
1621784893546.615,-0.333,0.216,0.096,1.1137545858010571,-9.335470273709083,-6.658139959708569
1621784893551.605,-0.236,0.248,0.038,0.23327296687317256,-9.793977052060772,-7.077018873354641
1621784893555.262,-0.1355780278933203,0.2494660141913384,0.0013496452165402475,-0.412,-10.13,-7.384
