time,gyro_x,gyro_y,gyro_z,acc_x,acc_y,acc_z
1621786864134.911,,,,0.049,-5.266,-8.326
1621786864153.557,,,,0.471,-5.07,-8.267
1621786864171.981,0.506,1.574,1.468,0.97561676716141,-4.698586502782931,-8.28644573283859
1621786864172.506,0.5058227368247559,1.575240842226709,1.468,0.99,-4.688,-8.287
1621786864177.906,0.504,1.588,1.468,1.0012205762987012,-4.660509588068182,-8.127387302150975
1621786864183.859,0.485,1.616,1.463,1.0135901988636364,-4.630204012784091,-7.951429421164773
1621786864189.842,0.445,1.625,1.464,1.0260227272727274,-4.599744318181818,-7.774576704545455
1621786864191.756,0.4284471557919526,1.6281832392707785,1.4617717325104551,1.03,-4.59,-7.718
1621786864195.855,0.393,1.635,1.457,0.9620902860139074,-4.567363428671302,-7.652186264840639
1621786864201.896,0.319,1.639,1.456,0.8620034456498671,-4.534001148549955,-7.555188524487834
1621786864207.966,0.237,1.639,1.459,0.761435262980487,-4.500478420993496,-7.457724298073682
1621786864211.312,0.19586031618971383,1.6362573544126475,1.4628397038222933,0.706,-4.482,-7.404
1621786864214.066,0.162,1.634,1.466,0.6756160312939642,-4.552057303640669,-7.407870569261916
1621786864215.651,0.08,1.637,1.473,0.6581290876025118,-4.592377517757266,-7.410098205400954
1621786864221.206,0.014,1.632,1.48,0.5968385890265244,-4.733697011289161,-7.417905912225921
1621786864225.542,-0.03199420595206742,1.6171883065578088,1.4761021859362655,0.549,-4.844,-7.424
1621786864226.768,-0.045,1.613,1.475,0.5389920829661764,-4.9000988002440184,-7.4199832169728195
1621786864232.337,-0.096,1.593,1.471,0.4935359723446079,-5.154900399918661,-7.401738927675727
1621786864237.914,-0.138,1.571,1.464,0.44801210601233654,-5.410081800311801,-7.383467443909714
1621786864243.497,-0.168,1.538,1.454,0.40244041211956894,-5.665531295329764,-7.36517676404799
1621786864243.551,-0.1681930468204053,1.5378938242487772,1.4538938242487771,0.402,-5.668,-7.365
1621786864249.087,-0.188,1.527,1.443,0.3720017549543712,-5.818297329769426,-7.383060167935634
1621786864254.685,-0.202,1.499,1.424,0.3416661536800043,-5.97028488309304,-7.40132343809061
1621786864260.289,-0.211,1.475,1.393,0.311298801231168,-6.122431516280576,-7.419605823748583
1621786864261.636,-0.211,1.4653977025498217,1.384117874858585,0.304,-6.159,-7.424
1621786864265.9,-0.211,1.435,1.356,0.304,-6.2764180796278115,-7.4331586102109695
1621786864271.52,-0.218,1.401,1.311,0.304,-6.431182705624504,-7.445230251038711
1621786864277.145,-0.208,1.379,1.265,0.304,-6.586081792634226,-7.45731237982547
1621786864279.793,-0.19813017289942367,1.3672502058326472,1.243850370498765,0.304,-6.659,-7.463
1621786864282.779,-0.187,1.354,1.22,0.2846759141483792,-6.718446128509647,-7.44695118293679
1621786864288.418,-0.162,1.337,1.183,0.24818434265668723,-6.830704098437479,-7.416644623562334
1621786864294.065,-0.141,1.314,1.14,0.21164063357746327,-6.943122457723566,-7.386294763479588
1621786864298.027,-0.12908906445624488,1.3069935673272028,1.1042671933687345,0.186,-7.022,-7.365
1621786864299.72,-0.124,1.304,1.089,0.18969867580578484,-7.027363079918389,-7.383123511448346
1621786864305.381,-0.11,1.297,1.04,0.20206742322207258,-7.045297763672005,-7.4437303737881555
1621786864311.05,-0.096,1.279,1.005,0.21445323980850525,-7.063257197722333,-7.504420875061676
1621786864316.335,-0.08948122176812218,1.2715499677349966,0.9696123467412346,0.226,-7.08,-7.561
1621786864316.725,-0.089,1.271,0.967,0.23826667729125994,-7.084180857139063,-7.567027225520273
1621786864322.407,-0.082,1.267,0.935,0.41691647741609894,-7.145070148877114,-7.654806712086803
1621786864328.097,-0.082,1.269,0.911,0.5958195944061517,-7.206045778716284,-7.7427106657635765
1621786864333.794,-0.084,1.271,0.901,0.7749453231868468,-7.2670972814321955,-7.830723999628139
1621786864334.718,-0.08448608732876713,1.2692176797945205,0.8998657962328768,0.804,-7.277,-7.845
1621786864339.497,-0.087,1.26,0.894,0.9259618101486852,-7.386014696544791,-7.931486718874014
1621786864345.209,-0.093,1.246,0.887,1.071730316418858,-7.516308839092016,-8.03485546854331
1621786864350.927,-0.103,1.23,0.881,1.2176545848986717,-7.646742208582465,-8.138334673792265
1621786864353.174,-0.09907572269122537,1.2186195958045536,0.8817848554617549,1.275,-7.698,-8.179
1621786864356.653,-0.093,1.201,0.883,1.289646198445118,-7.780995124522335,-8.221248649360918
1621786864362.385,-0.07,1.178,0.881,1.3137769666622743,-7.917736144419555,-8.290856634602715
1621786864368.123,-0.03,1.15,0.876,1.337933429964422,-8.054622769798392,-8.360538740281987
1621786864371.702,0.00486680258239891,1.135679706082229,0.8716416496772001,1.353,-8.14,-8.404
1621786864373.871,0.026,1.127,0.869,1.3175467671225685,-8.081572139238181,-8.370879216653979
1621786864379.624,0.093,1.094,0.862,1.2235208831018822,-7.926615008006721,-8.283039246055706
1621786864385.385,0.18,1.07,0.853,1.1293633213451288,-7.771440868401019,-8.195076260730318
1621786864390.302,0.25588095842858355,1.0538006942680551,0.8402110744221488,1.049,-7.639,-8.12
1621786864391.152,0.269,1.051,0.838,1.0400535367835981,-7.588881547899953,-8.051486524041739
1621786864396.911,0.342,1.026,0.824,0.9794478003251009,-7.249365738555923,-7.587357899428451
1621786864402.676,0.382,1.019,0.805,0.9187752608672853,-6.909475696083058,-7.122717686539772
1621786864408.447,0.387,1.021,0.794,0.8580410571024067,-6.569240207645116,-6.657605238319962
1621786864408.926,0.38617099759158324,1.0214145012042084,0.7930051971098999,0.853,-6.541,-6.619
1621786864414.225,0.377,1.026,0.782,0.8918409441207973,-6.276768175762167,-6.230023537709972
1621786864420.009,0.344,1.031,0.775,0.9342358212074505,-5.988359230909898,-5.805455863528305
1621786864425.8,0.297,1.04,0.768,0.9766825935891742,-5.699597246532041,-5.380368478800387
1621786864427.617,0.2772574532592218,1.0443872326090617,0.7686267475155802,0.99,-5.609,-5.247
1621786864431.598,0.234,1.054,0.77,1.075513930639599,-5.5466151473745855,-5.157454395211139
1621786864437.402,0.161,1.063,0.777,1.2001924653523326,-5.455658598477455,-5.026897716181924
1621786864443.213,0.087,1.059,0.784,1.3250125967857376,-5.364598750731993,-4.896192764656126
1621786864446.378,0.04239222021736394,1.056280013427888,0.7883519785153792,1.393,-5.315,-4.825
1621786864449.031,0.005,1.054,0.792,1.3873638815414138,-5.353748314402781,-4.881642990508791
1621786864454.854,-0.07,1.047,0.806,1.3749936725273586,-5.43879350137441,-5.005963591100047
1621786864460.685,-0.138,1.031,0.817,1.3626063482184534,-5.523956355998133,-5.130456200404543
1621786864465.207,-0.18758206458089344,1.0263516814455411,0.8224230383135351,1.353,-5.59,-5.227
1621786864466.522,-0.202,1.025,0.824,1.351677821132329,-5.628204010439546,-5.293178531745006
1621786864472.365,-0.239,1.011,0.831,1.3458026434791597,-5.797965722628492,-5.587246634279956
1621786864478.216,-0.262,0.991,0.836,1.339919364841469,-5.96796151063335,-5.88172021240859
1621786864484.073,-0.265,0.963,0.843,1.3340301945786714,-6.138127535595236,-6.176488681878085
1621786864484.103,-0.2649129439193972,0.9628770972979724,0.8430358466214247,1.334,-6.139,-6.178
1621786864489.937,-0.248,0.939,0.85,1.3822884172319256,-6.253723437117887,-6.404371178870683
1621786864495.807,-0.213,0.913,0.859,1.430873888252481,-6.369152613491563,-6.6321349156294644
1621786864501.683,-0.173,0.899,0.862,1.4795118993989163,-6.484706614495514,-6.860144955143964
1621786864503.071,-0.16427199170124482,0.8931026970954357,0.8624717842323651,1.491,-6.512,-6.914
1621786864507.567,-0.136,0.874,0.864,1.5101011729035347,-6.5071022633580675,-6.930652304582568
1621786864513.188,-0.096,0.862,0.867,1.5339830846565068,-6.500978696241921,-6.951472432777467
1621786864518.809,-0.065,0.852,0.876,1.5578649964094788,-6.494855129125774,-6.972292560972367
1621786864521.43,-0.04914672284237502,0.8492023628545368,0.8815952742909264,1.569,-6.492,-6.982
1621786864524.43,-0.031,0.846,0.888,1.5754430223178273,-6.479113955364345,-6.941524603388007
1621786864530.051,-0.005,0.833,0.89,1.5875152998117774,-6.454969400376445,-6.86568593707986
1621786864535.672,0.012,0.838,0.897,1.5995875773057273,-6.430824845388545,-6.789847270771713
1621786864539.589,0.025242799426560665,0.838,0.9053638733220384,1.608,-6.414,-6.737
1621786864541.292,0.031,0.838,0.909,1.6125960974691376,-6.391863693822113,-6.731465923455528
1621786864546.913,0.044,0.82,0.927,1.6277675022188753,-6.318793254619295,-6.713198313654824
1621786864552.533,0.044,0.826,0.944,1.6429356122750869,-6.245738683736317,-6.694934670934079
1621786864557.744,0.04678061490359562,0.8306343581726593,0.9523418447107869,1.657,-6.178,-6.678
1621786864558.155,0.047,0.831,0.953,1.6565697091138933,-6.175123845129709,-6.680672332871609
1621786864563.774,0.045,0.826,0.96,1.6506889818313855,-6.135815825925577,-6.717194744415606
1621786864569.396,0.047,0.82,0.974,1.6448049328258851,-6.096485603625654,-6.75373778560766
1621786864575.015,0.045,0.815,0.984,1.6389242055433773,-6.057177584421523,-6.790260197151657
1621786864575.898,0.04562849695916594,0.8156284969591658,0.9865139878366638,1.638,-6.051,-6.796
1621786864580.635,0.049,0.819,1.0,1.6533952715878373,-6.07918117510994,-6.811395271587838
1621786864586.256,0.056,0.817,1.014,1.6716636183918556,-6.112621538751194,-6.829663618391856
1621786864591.875,0.063,0.815,1.028,1.6899248241638538,-6.146048830672817,-6.847924824163854
1621786864594.052,0.0637745830437804,0.815,1.0314856236970118,1.697,-6.159,-6.855
1621786864597.496,0.065,0.815,1.037,1.6839096814104546,-6.170003456205705,-6.862398875724526
1621786864603.115,0.075,0.82,1.047,1.6625533560160841,-6.1879551500154655,-6.874469842251779
1621786864608.735,0.087,0.827,1.065,1.641192390968141,-6.205910743823881,-6.88654343119192
1621786864612.206,0.09255858204092271,0.8251471393196924,1.0724114427212303,1.628,-6.217,-6.894
1621786864614.355,0.096,0.824,1.077,1.6158493914807301,-6.20732910750507,-6.898835446247465
1621786864619.975,0.11,0.82,1.084,1.5840717263917061,-6.182036680189317,-6.911481659905341
1621786864624.87,0.126,0.822,1.089,1.5563939598828036,-6.160007437457741,-6.922496281271129
1621786864629.538,0.13617562533262376,0.8118243746673763,1.0949357814440306,1.53,-6.139,-6.933
1621786864630.375,0.138,0.81,1.096,1.5226061821678802,-6.135750487704355,-6.926548069789806
1621786864635.878,0.148,0.806,1.1,1.4739898887209781,-6.114384091221321,-6.884124934743784
1621786864641.38,0.159,0.787,1.107,1.4253822228328068,-6.093021486467921,-6.8417093282044235
1621786864646.878,0.168,0.768,1.114,1.3768090671795576,-6.071674048633055,-6.799323835691716
1621786864647.309,0.16784316163410304,0.7671373889875667,1.1140784191829485,1.373,-6.07,-6.796
1621786864652.376,0.166,0.757,1.115,1.3787098837609189,-6.05315584290529,-6.756887296237705
1621786864657.869,0.164,0.75,1.119,1.3848998555609051,-6.03489542609533,-6.7144859894078
1621786864663.361,0.155,0.754,1.127,1.3910890019946351,-6.016637444115826,-6.672090336336749
1621786864665.057,0.15252888335482723,0.7524555520967671,1.1276177791612931,1.393,-6.011,-6.659
1621786864668.851,0.147,0.749,1.129,1.393,-5.990021212705584,-6.667348701066145
1621786864674.338,0.14,0.742,1.127,1.393,-5.959683572550208,-6.679421843576958
1621786864679.824,0.127,0.747,1.134,1.393,-5.9293499820931705,-6.691493374473127
1621786864682.781,0.12430293043555714,0.7459211721742228,1.1323817582613342,1.393,-5.913,-6.698
1621786864685.306,0.122,0.745,1.131,1.393,-5.921417293181222,-6.698
1621786864690.786,0.103,0.749,1.138,1.393,-5.939685961015851,-6.698
1621786864696.265,0.086,0.744,1.134,1.393,-5.957951373273924,-6.698
1621786864700.479,0.0667578257379827,0.7486181218228841,1.1393878087933649,1.393,-5.972,-6.698
1621786864701.74,0.061,0.75,1.141,1.3957825204094318,-5.969217479590569,-6.711983948724325
1621786864707.214,0.056,0.744,1.141,1.4078618374704737,-5.957138162529526,-6.772690260108022
1621786864712.685,0.045,0.752,1.141,1.4199341510919563,-5.945065848908044,-6.83336137471855
1621786864718.153,0.03800124994419892,0.7639978572385161,1.141,1.432,-5.933,-6.894
1621786864718.154,0.038,0.764,1.141,1.4320054223033722,-5.932991313248679,-6.894010291310482
1621786864723.621,0.035,0.766,1.143,1.4623608321575787,-5.88436070766592,-6.951623620217446
1621786864729.085,0.028,0.768,1.14,1.4926986195258252,-5.835758334024954,-7.009203502365342
1621786864734.547,0.019,0.777,1.143,1.52302691786317,-5.787171162198799,-7.0667653747198935
1621786864735.803,0.016699874798783758,0.7776900375603649,1.143,1.53,-5.776,-7.08
1621786864740.007,0.009,0.78,1.143,1.5743666888297871,-5.750238696808511,-7.0940733045212765
1621786864745.464,-0.009,0.789,1.152,1.631955784574468,-5.716799867021277,-7.112340813386525
1621786864750.919,-0.038,0.806,1.161,1.6895216921542553,-5.683374501329787,-7.130600966866135
1621786864753.428,-0.05180327722063038,0.8110612016475645,1.1674415293696276,1.716,-5.668,-7.139
1621786864756.372,-0.068,0.817,1.175,1.7128220893783461,-5.658131751227496,-7.176800410552304
1621786864761.823,-0.094,0.819,1.196,1.7069382507143056,-5.639860883797054,-7.246787123082472
1621786864767.271,-0.106,0.824,1.208,1.701057574412605,-5.621599836333879,-7.316736220144803
1621786864771.03,-0.11014064811079737,0.824,1.2135208641477297,1.697,-5.609,-7.365
1621786864772.718,-0.112,0.824,1.216,1.6564712116792377,-5.6128415913100245,-7.3800782458918475
1621786864778.161,-0.11,0.806,1.227,1.525787265074801,-5.625228695253574,-7.4286976288702755
1621786864783.602,-0.112,0.796,1.234,1.3951443513772555,-5.637611909822061,-7.47730174605159
1621786864788.606,-0.10831995690816051,0.7812798276326421,1.234,1.275,-5.649,-7.522
1621786864789.041,-0.108,0.78,1.234,1.26454475433084,-5.650436976892918,-7.523461752356589
1621786864794.478,-0.105,0.771,1.234,1.1338835191724828,-5.668395156132692,-7.541729555376359
1621786864799.915,-0.091,0.764,1.23,1.0032222840141256,-5.686353335372466,-7.55999735839613
1621786864805.349,-0.075,0.756,1.225,0.8726314545505103,-5.704301838000167,-7.578255317965687
1621786864806.166,-0.07364650096633557,0.7556992224369634,1.2234961121848174,0.853,-5.707,-7.581
1621786864810.781,-0.066,0.754,1.215,0.7290450387737202,-5.691735907110139,-7.601527573196709
1621786864816.211,-0.068,0.759,1.21,0.5832014005875228,-5.673776393278294,-7.62568002283264
1621786864821.638,-0.07,0.756,1.194,0.4374364514736798,-5.655826569395909,-7.6498194411572245
1621786864823.702,-0.06809808773903263,0.7552392350956131,1.1871531158605173,0.382,-5.649,-7.659
1621786864827.064,-0.065,0.754,1.176,0.19943356009702515,-5.663973903588257,-7.6703264142526555
1621786864832.487,-0.063,0.742,1.154,-0.09505110547299739,-5.6881272200072495,-7.6885962305183035
1621786864837.909,-0.037,0.726,1.124,-0.3894694844843448,-5.712275099673795,-7.706861934368639
1621786864841.215,-0.016252523431867342,0.7101342826243691,1.099591204037491,-0.569,-5.727,-7.718
1621786864843.327,-0.003,0.7,1.084,-0.6411929910259452,-5.737623717742949,-7.689509120598457
1621786864848.744,0.024,0.672,1.058,-0.8263742725153871,-5.764874474885207,-7.616427544626035
1621786864854.158,0.045,0.642,1.035,-1.0114554018785502,-5.7921104939219274,-7.543385493573013
1621786864858.708,0.05256644713099964,0.6176192259112234,0.9996899133886683,-1.167,-5.815,-7.482
1621786864859.57,0.054,0.613,0.993,-1.1839282689216577,-5.8169741421482986,-7.473807310084562
1621786864864.981,0.063,0.595,0.962,-1.2901818016632889,-5.829365224683766,-7.422384317562374
1621786864870.388,0.065,0.567,0.946,-1.3963586274372772,-5.841747361800266,-7.370998448528898
1621786864875.794,0.072,0.527,0.909,-1.502516276469355,-5.854127262562025,-7.319621860367601
1621786864876.175,0.07101251637973882,0.5241786182278253,0.9051911346075641,-1.51,-5.855,-7.316
1621786864881.197,0.058,0.487,0.855,-1.5638391232539262,-5.750488760742379,-7.253811493995465
1621786864886.597,0.044,0.469,0.815,-1.6217299218990566,-5.63811250454889,-7.186942977913389
1621786864891.997,0.012,0.461,0.791,-1.6796233379055512,-5.525731167595107,-7.1200714385689885
1621786864893.618,0.0011863179802732767,0.4489847977558592,0.7798859379241698,-1.697,-5.492,-7.1
1621786864897.393,-0.024,0.421,0.754,-1.8486151245351066,-5.508991350163417,-7.046629733461061
1621786864902.788,-0.044,0.372,0.696,-2.0652865997971372,-5.533273498253128,-6.9703588836921
1621786864908.121,-0.059,0.342,0.644,-2.279467598332018,-5.5572765411923815,-6.8949647103572635
1621786864910.948,-0.0722573849324479,0.33934852301351043,0.6227881841080833,-2.393,-5.57,-6.855
1621786864913.452,-0.084,0.337,0.604,-2.3701471068280844,-5.67276523935906,-6.812205410238579
1621786864918.78,-0.105,0.309,0.572,-2.3215178614513405,-5.891441973346201,-6.721141727813339
1621786864924.103,-0.112,0.295,0.545,-2.272935409245093,-6.109908287088945,-6.630165670815652
1621786864928.15,-0.11276040185329603,0.2752295518143034,0.5168651314280471,-2.236,-6.276,-6.561
1621786864929.425,-0.113,0.269,0.508,-2.252042204052613,-6.3284342410238175,-6.561
1621786864934.743,-0.126,0.243,0.473,-2.318944614290793,-6.547106007820831,-6.561
1621786864940.058,-0.134,0.234,0.431,-2.3858132385353716,-6.765667344472094,-6.561
1621786864945.319,-0.1518311956971452,0.23003751206730108,0.3844407667907875,-2.452,-6.982,-6.561
1621786864945.369,-0.152,0.23,0.384,-2.45091596028094,-6.984737708888351,-6.562793170259143
1621786864950.678,-0.159,0.241,0.34,-2.3353594517971876,-7.276572108329891,-6.753941603863633
1621786864955.983,-0.15,0.258,0.309,-2.219893279956691,-7.5681783653640675,-6.944940606613195
1621786864961.285,-0.11,0.257,0.288,-2.1044908751584916,-7.859623580698931,-7.135834128759278
1621786864962.456,-0.09652093601732001,0.2545693491178774,0.2842435395458105,-2.079,-7.924,-7.178
1621786864966.585,-0.049,0.246,0.271,-2.069585400668018,-8.044699991435667,-7.256213594450313
1621786864971.881,0.017,0.232,0.251,-2.0575093065745524,-8.19952171058266,-7.356538068457564
1621786864977.174,0.093,0.201,0.236,-2.045440449341974,-8.354250649461875,-7.456802420851295
1621786864979.56,0.11736144578313253,0.1861124497991968,0.23509772423025435,-2.04,-8.424,-7.502
1621786864982.463,0.147,0.168,0.234,-1.9065153096978105,-8.382339173090399,-7.402014015416959
1621786864987.75,0.194,0.15,0.246,-1.6633913018606181,-8.306459705676243,-7.219903293622985
1621786864993.033,0.227,0.131,0.279,-1.4204581468186435,-8.230639803784163,-7.03793552908199
1621786864996.631,0.23517755583298655,0.12759268506958893,0.29944388958246637,-1.255,-8.179,-6.914
1621786864998.313,0.239,0.126,0.309,-1.1794128825908607,-8.138291643957432,-6.852937465936146
1621786865003.591,0.232,0.124,0.354,-0.9422060468718625,-8.010541034393736,-6.661311551590603
1621786865008.865,0.194,0.122,0.401,-0.7051857376437853,-7.8828908809271105,-6.469836321390666
1621786865013.653,0.14930288372093023,0.1475412093023256,0.44752148837209305,-0.49,-7.767,-6.296
1621786865014.114,0.145,0.15,0.452,-0.4883942338186536,-7.7656663975782045,-6.300272971024939
1621786865019.359,0.096,0.169,0.501,-0.47012268992359807,-7.750491725529768,-6.348893859016866
1621786865024.602,0.061,0.202,0.541,-0.45185709961078274,-7.735321997981837,-6.397498904425545
1621786865029.84,0.044,0.229,0.572,-0.4336093700446879,-7.7201671039354185,-6.4460564220844745
1621786865030.589,0.04314149799459006,0.23114625501352487,0.5765786773621864,-0.431,-7.718,-6.453
1621786865035.075,0.038,0.244,0.604,-0.39728769973128375,-7.697029356525759,-6.588380103441302
1621786865040.307,0.049,0.276,0.627,-0.35796830304256116,-7.672570834176081,-6.746276893293652
1621786865045.535,0.072,0.314,0.649,-0.3186782628795978,-7.648130572972349,-6.9040557947354735
1621786865047.488,0.08470909260816746,0.3244663115596673,0.6531117652555836,-0.304,-7.639,-6.963
1621786865050.76,0.106,0.342,0.66,-0.26965629569573335,-7.576327590450406,-6.942044519407566
1621786865055.981,0.141,0.377,0.675,-0.21485551099593173,-7.476323898597096,-6.908606752472094
1621786865061.199,0.182,0.414,0.684,-0.16008547726252698,-7.376376322914103,-6.875187748838153
1621786865064.351,0.19952815879406394,0.43394583586910723,0.6894397734188474,-0.127,-7.316,-6.855
1621786865066.414,0.211,0.447,0.693,-0.11142791845026483,-7.259474570122615,-6.76598164405427
1621786865071.624,0.229,0.476,0.7,-0.0721015018501052,-7.116722774432271,-6.5411707901037515
1621786865076.833,0.23,0.51,0.717,-0.032782456649495764,-6.973997736341871,-6.316402075019952
1621786865081.176,0.21998320116371828,0.5392156632724884,0.7228431326544976,0.0,-6.855,-6.129
1621786865082.036,0.218,0.545,0.724,-0.02412398929672503,-6.834410098307254,-6.101393141760223
1621786865087.237,0.202,0.564,0.74,-0.17004604153336048,-6.709865162003374,-5.93440378686522
1621786865092.434,0.182,0.583,0.745,-0.31585165202722354,-6.585419609097784,-5.767547684835088
1621786865097.628,0.161,0.595,0.75,-0.46156821883543714,-6.461050055261475,-5.600793482054563
1621786865097.964,0.15970424390702928,0.5960366048743766,0.75,-0.471,-6.453,-5.59
1621786865102.817,0.141,0.611,0.75,-0.6384181918862205,-6.407524816390767,-5.561614216600606
1621786865108.004,0.126,0.614,0.744,-0.8173670727442294,-6.358917594427606,-5.531273402891117
1621786865113.187,0.112,0.613,0.742,-0.9961811902541384,-6.3103469777337375,-5.500955438330613
1621786865114.718,0.10726917817907493,0.6118172945447687,0.7384518836343061,-1.049,-6.296,-5.492
1621786865118.365,0.096,0.609,0.73,-1.194565188172043,-6.330263470079477,-5.526263470079477
1621786865123.541,0.075,0.585,0.719,-1.4011609543010752,-6.378892458508649,-5.574892458508649
1621786865128.711,0.058,0.567,0.712,-1.6075131048387097,-6.427464104137448,-5.623464104137447
1621786865131.429,0.04748129251700681,0.5580590986394558,0.705688775510204,-1.716,-6.453,-5.649
1621786865133.879,0.038,0.55,0.7,-1.8341262353406245,-6.500456186585848,-5.708063117670313
1621786865139.043,0.035,0.524,0.682,-2.083115386304739,-6.60048541016969,-5.83255769315237
1621786865144.203,0.026,0.501,0.661,-2.3319044230684765,-6.700434239615818,-5.956952211534238
1621786865148.104,0.029025752698352583,0.47830685476235557,0.6413326074607082,-2.52,-6.776,-6.051
1621786865149.36,0.03,0.471,0.635,-2.5437086335686296,-6.798953581544151,-6.092452356143879
1621786865154.513,0.044,0.449,0.604,-2.640967024258523,-6.893114571256659,-6.262499669802321
1621786865159.664,0.063,0.422,0.571,-2.738193158304105,-6.987244331606521,-6.432490585697304
1621786865164.74,0.10048970295150422,0.391416294960615,0.5384431527000095,-2.834,-7.08,-6.6
1621786865164.809,0.101,0.391,0.538,-2.8338376864025414,-7.080574340421777,-6.5997128297891114
1621786865169.953,0.138,0.367,0.494,-2.8217536398129357,-7.123333274508074,-6.578333362745963
1621786865175.092,0.188,0.335,0.443,-2.809680490602665,-7.166053648636725,-6.556973175681637
1621786865180.227,0.251,0.302,0.403,-2.797617091679167,-7.20873952175064,-6.535630239124679
1621786865181.341,0.26250244946492274,0.29548917954815695,0.39323376932223547,-2.795,-7.218,-6.531
1621786865185.36,0.304,0.272,0.358,-2.6879904483947996,-7.10128436661655,-6.316980896789599
1621786865190.488,0.335,0.244,0.319,-2.5514560891483153,-6.952365938504172,-6.0439121782966305
1621786865195.614,0.347,0.22,0.286,-2.414973733085699,-6.803504230417736,-5.770947466171398
1621786865197.904,0.33760926773455374,0.21284515636918383,0.2730318459191457,-2.354,-6.737,-5.649
1621786865200.735,0.326,0.204,0.257,-2.281711289035956,-6.619488019617691,-5.48763515230301
1621786865205.854,0.286,0.197,0.23,-2.1510043726179573,-6.407011847431087,-5.195867580583212
1621786865210.968,0.225,0.18,0.211,-2.020422134901173,-6.1947383519957455,-4.904378320087452
1621786865214.431,0.1789282541198949,0.1854202053976594,0.20151464055409601,-1.932,-6.051,-4.707
1621786865216.079,0.157,0.188,0.197,-1.92411821298732,-6.012788298406881,-4.710891008778412
1621786865221.197,0.07,0.194,0.176,-1.8996439275263794,-5.894134484083587,-4.72297325096799
1621786865226.31,-0.016,0.208,0.162,-1.8751929920491828,-5.775593872846038,-4.735043965950403
1621786865230.951,-0.0931837680328652,0.21254022164899206,0.15110346804241903,-1.853,-5.668,-4.746
1621786865231.421,-0.101,0.213,0.15,-1.8546818202010928,-5.678917578593535,-4.774248878292933
1621786865236.527,-0.185,0.208,0.129,-1.8729546874768623,-5.797536361078616,-5.081171106602894
1621786865241.631,-0.257,0.188,0.112,-1.8912196916971464,-5.916104100339104,-5.387961262235121
1621786865246.731,-0.312,0.168,0.098,-1.909469843479291,-6.0345754246198045,-5.694501947253854
1621786865247.438,-0.31685603411105256,0.16716753700953385,0.0963350740190677,-1.912,-6.051,-5.737
1621786865251.827,-0.347,0.162,0.086,-1.8258324751064745,-6.197458115066704,-6.090206820306587
1621786865256.921,-0.374,0.14,0.07,-1.7258221615445115,-6.367444685176666,-6.50015621707451
1621786865262.01,-0.374,0.133,0.054,-1.6259077121700032,-6.53726831584727,-6.909712659711814
1621786865263.89,-0.36734805144941446,0.12265252447686696,0.046978498752159724,-1.589,-6.6,-7.061
1621786865267.097,-0.356,0.105,0.035,-1.5180759162303665,-6.682451689671585,-7.2219957163255595
1621786865272.179,-0.309,0.079,0.014,-1.4056858638743455,-6.813108995716325,-7.477118039029033
1621786865277.258,-0.258,0.04,-0.01,-1.2933606020942408,-6.943690980485483,-7.732093288910042
1621786865280.304,-0.22019575777980857,0.02319811456880381,-0.022001346736568707,-1.226,-7.022,-7.885
1621786865282.334,-0.195,0.012,-0.03,-1.1640300794467051,-7.017042406355737,-7.840009837678307
1621786865287.407,-0.136,0.002,-0.047,-1.0091686267495417,-7.0046534901399635,-7.727580423020167
1621786865292.476,-0.086,-0.009,-0.061,-0.8544264186379287,-6.9922741134910344,-7.6152375799311365
1621786865296.683,-0.051114046081172274,-0.01896741540537935,-0.06432247180179312,-0.726,-6.982,-7.522
1621786865297.541,-0.044,-0.021,-0.065,-0.7007500149387511,-6.96294439796833,-7.48388879593666
1621786865302.604,-0.019,-0.026,-0.068,-0.5517363011652225,-6.8504870630415295,-7.25897412608306
1621786865307.662,-0.01,-0.028,-0.066,-0.4028662981774724,-6.738138183447863,-7.034276366895728
1621786865312.718,-0.01,-0.037,-0.065,-0.2540609650433224,-6.625838108754108,-6.809676217508216
1621786865313.026,-0.011219005268500169,-0.037060950263425006,-0.06457334815602495,-0.245,-6.619,-6.796
1621786865317.769,-0.03,-0.038,-0.058,-0.22783591386900662,-6.5593620736126494,-6.673233146656285
1621786865322.818,-0.042,-0.038,-0.044,-0.20956483783055313,-6.495877826360396,-6.542548501093108
1621786865327.862,-0.068,-0.051,-0.035,-0.19131231469557664,-6.432458042586325,-6.411996555958192
1621786865329.33,-0.07324186361875243,-0.052456073227431226,-0.031505424254165054,-0.186,-6.414,-6.374
1621786865332.903,-0.086,-0.056,-0.023,-0.34985822989989346,-6.392254738927494,-6.419247714958952
1621786865337.941,-0.105,-0.056,-0.012,-0.5808944153446698,-6.361594440859085,-6.483045910939681
1621786865342.976,-0.122,-0.086,-0.003,-0.8118074412042804,-6.330950487025169,-6.546810097705204
1621786865345.597,-0.12773033435240452,-0.09016751589265783,0.00012563691949337612,-0.932,-6.315,-6.58
1621786865348.007,-0.133,-0.094,0.003,-1.0149954129130259,-6.348554496097217,-6.636864477899264
1621786865353.034,-0.145,-0.101,0.017,-1.1880986900482773,-6.418539005278911,-6.755466544344348
1621786865358.059,-0.148,-0.106,0.021,-1.3611431171135944,-6.488499721766856,-6.874028289542946
1621786865361.83,-0.1457464254449956,-0.11125834062834355,0.028511915183347922,-1.491,-6.541,-6.963
1621786865363.079,-0.145,-0.113,0.031,-1.4924653722073147,-6.547015738535292,-6.979581843398559
1621786865368.096,-0.14,-0.113,0.037,-1.4983512075255525,-6.57117864142069,-7.046184716736515
1621786865373.111,-0.129,-0.115,0.045,-1.5042350378388156,-6.5953333132330325,-7.112764901860283
1621786865378.025,-0.1329232006237513,-0.125788801715316,0.05186560109156474,-1.51,-6.619,-7.178
1621786865378.121,-0.133,-0.126,0.052,-1.508482326283988,-6.618767885196374,-7.176309728096677
1621786865383.128,-0.113,-0.126,0.059,-1.429486253776435,-6.6066861329305135,-7.088329788519637
1621786865388.131,-0.105,-0.124,0.063,-1.3505479607250754,-6.594613217522658,-7.00041419939577
1621786865393.132,-0.103,-0.115,0.061,-1.2716443353474318,-6.582545604229607,-6.912537220543807
1621786865394.187,-0.10342232321751453,-0.11309954552118458,0.06247813126130088,-1.255,-6.58,-6.894
1621786865398.128,-0.105,-0.106,0.068,-1.1616399588178294,-6.57046847747093,-6.776688953488372
1621786865403.121,-0.112,-0.103,0.07,-1.043352289244186,-6.558391987645349,-6.62805523255814
1621786865408.111,-0.131,-0.084,0.077,-0.9251398074127907,-6.546323174055233,-6.479515988372093
1621786865410.312,-0.1424795768439612,-0.0747280340875698,0.079207610931531,-0.873,-6.541,-6.414
1621786865413.096,-0.157,-0.063,0.082,-0.8034357472380721,-6.585126578244507,-6.3342260683501275
1621786865418.08,-0.187,-0.049,0.091,-0.6788935898992352,-6.664127200437052,-6.191405335680466
1621786865423.059,-0.211,-0.031,0.094,-0.5544795435231273,-6.743046558212942,-6.04873151632876
1621786865426.4,-0.2230853736323046,-0.016228987782738825,0.09668563858495657,-0.471,-6.796,-5.953
1621786865428.035,-0.229,-0.009,0.098,-0.471,-6.805909048359579,-5.945012093669319
1621786865433.007,-0.243,0.007,0.103,-0.471,-6.836043090302417,-5.920720365980705
1621786865437.977,-0.253,0.04,0.098,-0.471,-6.866163815620612,-5.89643937312216
1621786865442.57,-0.25931036465570945,0.054423690641621544,0.09439407733959461,-0.471,-6.894,-5.874
1621786865443.072,-0.26,0.056,0.094,-0.4623019727759882,-6.899096738759333,-5.874
1621786865448.167,-0.262,0.072,0.075,-0.3740144581174759,-6.95083012454169,-5.874
1621786865453.258,-0.251,0.087,0.049,-0.28579463238677694,-7.002523846987398,-5.874
1621786865458.347,-0.216,0.122,0.021,-0.19761288167797292,-7.05419525880624,-5.874
1621786865459.017,-0.20967784655246868,0.12963926874910034,0.019419461638117173,-0.186,-7.061,-5.874
1621786865463.435,-0.168,0.18,0.009,-0.033229856868952606,-7.15863303161368,-5.6999818968207965
1621786865468.519,-0.105,0.232,-0.003,0.14257062172084245,-7.270984393811031,-5.499730295328548
1621786865473.603,-0.049,0.288,-0.016,0.3183711003106375,-7.383335756008383,-5.299478693836298
1621786865475.443,-0.031247127818103158,0.3144481565158871,-0.030492140556650484,0.382,-7.424,-5.227
1621786865478.682,0.0,0.361,-0.056,0.30457582705535535,-7.216613822469702,-5.151353422862758
1621786865483.761,0.035,0.431,-0.096,0.18315772861269092,-6.891386773069708,-5.032722984843522
1621786865488.837,0.061,0.496,-0.141,0.06181550189083762,-6.566362951493315,-4.914166676592324
1621786865491.841,0.062184140884376654,0.5250114516672281,-0.1629066063609681,-0.01,-6.374,-4.844
1621786865493.911,0.063,0.545,-0.178,0.06557005723825424,-6.2501560934891485,-4.908449379918912
1621786865498.982,0.037,0.604,-0.211,0.2507158061054138,-5.946739983305509,-5.066349600524684
1621786865504.051,-0.017,0.682,-0.22,0.43579024564750773,-5.643440734557596,-5.224189005485333
1621786865508.22,-0.07787407264669043,0.7585039021100299,-0.2068380383466615,0.588,-5.394,-5.354
1621786865509.119,-0.091,0.775,-0.204,0.6672667283747872,-5.443582932728196,-5.4235370398017375
1621786865514.183,-0.169,0.873,-0.171,1.1138255949359528,-5.722914484488371,-5.81528250873369
1621786865519.246,-0.244,0.956,-0.14,1.5602768206383804,-6.002178704726643,-6.2069335493117554
1621786865524.306,-0.321,1.016,-0.087,2.0064481801080882,-6.281267863007972,-6.598339076169717
1621786865524.573,-0.3252235305472445,1.016475147186565,-0.08362117556220441,2.03,-6.296,-6.619
1621786865529.365,-0.401,1.025,-0.023,2.2603411469233987,-6.756388865634157,-7.542712013394725
1621786865534.42,-0.469,0.986,0.045,2.503321249177779,-7.242039541350237,-8.517108652753691
1621786865539.474,-0.494,0.88,0.124,2.746266145428452,-7.727619849907313,-9.49136410931053
1621786865540.904,-0.48521336624080524,0.8428693863724351,0.14667518389469608,2.815,-7.865,-9.767
1621786865544.519,-0.463,0.749,0.204,2.562241982419824,-8.078445039450395,-10.148358098580985
1621786865549.558,-0.358,0.606,0.264,2.2099136591365913,-8.375973614736148,-10.679946614466145
1621786865554.596,-0.178,0.473,0.304,1.857670686706867,-8.673430114301144,-11.211406354063541
1621786865557.18,-0.05432156710628394,0.4247602792862684,0.31169782777346783,1.677,-8.826,-11.484
1621786865559.631,0.063,0.379,0.319,1.5040057685374355,-8.601122581420503,-11.259122581420502
1621786865564.664,0.321,0.323,0.307,1.1487989875015023,-8.139384734406923,-10.797384734406922
1621786865569.694,0.578,0.295,0.302,0.7937989724792694,-7.677915665184473,-10.335915665184473
1621786865573.432,0.7229388290125255,0.29351344790756384,0.31091931255461697,0.53,-7.335,-9.993
1621786865574.723,0.773,0.293,0.314,0.5650815055510425,-7.194594427896622,-9.688005686433794
1621786865579.748,0.895,0.302,0.333,0.7016326834551855,-6.6480800764208565,-8.500846466287571
1621786865584.772,0.925,0.316,0.353,0.838150690495532,-6.101698483617655,-7.313975629569455
1621786865589.661,0.8879924131893785,0.33158214181499857,0.37150379340531076,0.971,-5.57,-6.159
1621786865589.792,0.887,0.332,0.372,0.9742528780664216,-5.563494243867157,-6.13812331987222
1621786865594.812,0.792,0.365,0.384,1.0988072147549877,-5.314385570490025,-5.338744741124707
1621786865599.827,0.66,0.415,0.405,1.223234343921403,-5.065531312157193,-4.540182568862637
1621786865604.841,0.497,0.466,0.422,1.3476433005846544,-4.816713398830691,-3.7417370260984875
1621786865605.863,0.46050070631789175,0.47313673340152956,0.4238351600175362,1.373,-4.766,-3.579
1621786865609.853,0.318,0.501,0.431,1.4067904800712334,-4.911027753882374,-3.525971144413758
1621786865614.861,0.129,0.524,0.445,1.449202773879054,-5.0930600805903925,-3.459411705226302
1621786865619.869,-0.042,0.56,0.456,1.491613000105643,-5.275083533300132,-3.3928555107831153
1621786865622.04,-0.10796086468550237,0.5790939345142244,0.4612074366856976,1.51,-5.354,-3.364
1621786865624.872,-0.194,0.604,0.468,1.453365881677197,-5.5724709332204725,-3.6941611294174552
1621786865629.875,-0.321,0.63,0.483,1.3533187823090178,-5.95841113697512,-4.277407841833187
1621786865634.874,-0.417,0.651,0.487,1.2533497989661115,-6.344050001511532,-4.860199159587654
1621786865638.192,-0.4601576118819621,0.6543198162986125,0.48368018370138754,1.187,-6.6,-5.247
1621786865639.871,-0.482,0.656,0.482,1.08900145203739,-6.721405844450494,-5.471397948997186
1621786865644.871,-0.503,0.668,0.463,0.7972000181504675,-7.082905073055631,-6.139567474362464
1621786865649.867,-0.473,0.67,0.431,0.505640802250658,-7.444104229058898,-6.807182366820946
1621786865654.333,-0.41042621188428463,0.67,0.39524354964816266,0.245,-7.767,-7.404
1621786865654.863,-0.403,0.67,0.391,0.22276874952662273,-7.778608922214649,-7.434321320911914
1621786865659.854,-0.29,0.653,0.354,0.013430447625539688,-7.887923153828675,-7.7198389456941605
1621786865664.845,-0.161,0.623,0.304,-0.19590785427554336,-7.997237385442702,-8.005356570476406
1621786865669.832,-0.028,0.588,0.258,-0.40508231462546385,-8.10646606074377,-8.290650730894495
1621786865670.45,-0.012880673750183617,0.5830428438525191,0.25242319933408414,-0.431,-8.12,-8.326
1621786865674.818,0.094,0.548,0.213,-0.48446242169606696,-7.946857740903092,-8.128976049993176
1621786865679.8,0.188,0.497,0.171,-0.5454368335633788,-7.749387310591697,-7.904268318949173
1621786865684.78,0.257,0.445,0.14,-0.6063873409273612,-7.551994296895145,-7.679648682673785
1621786865686.546,0.2697678729037952,0.4251388643718741,0.13042409532215357,-0.628,-7.482,-7.6
1621786865689.759,0.293,0.389,0.113,-0.6122043206781824,-7.2800552390501805,-7.407852559135864
1621786865694.734,0.307,0.337,0.093,-0.5877480819774243,-6.967386870850615,-7.110353250383604
1621786865699.708,0.302,0.274,0.073,-0.5632954438418183,-6.654764535192866,-6.8128977409112315
1621786865702.616,0.2914680945129439,0.24006386009726385,0.05661703590902392,-0.549,-6.472,-6.639
1621786865704.678,0.284,0.216,0.045,-0.5313934570906877,-6.4027304625684724,-6.555850852099818
1621786865709.647,0.262,0.168,0.023,-0.4889655660377359,-6.235806132075472,-6.355479716981132
1621786865714.613,0.236,0.127,0.0,-0.4465626902008521,-6.068980219111381,-6.155226719415703
1621786865718.661,0.20745878418256936,0.09601239425536101,-0.013047412945111154,-0.412,-5.933,-5.992
1621786865719.577,0.201,0.089,-0.016,-0.38564389656696174,-5.922937799990858,-5.977421244304935
1621786865724.538,0.154,0.047,-0.037,-0.2428980602495924,-5.868440474195072,-5.898462050680361
1621786865729.498,0.106,0.023,-0.045,-0.10018734667133955,-5.813956557514437,-5.819522285035123
1621786865734.454,0.059,0.002,-0.056,0.04241097414174044,-5.759515550002285,-5.740644688923767
1621786865734.683,0.05756723330869672,0.0011218526730721852,-0.056323527962552355,0.049,-5.757,-5.737
1621786865739.409,0.028,-0.017,-0.063,0.22569530307887226,-5.803094426890141,-5.78338990398559
1621786865744.36,-0.002,-0.028,-0.066,0.4108159698371266,-5.85138677474012,-5.831991818167942
1621786865749.309,-0.028,-0.035,-0.063,0.5958544824533285,-5.899657691074782,-5.880572163453466
1621786865750.677,-0.03463502245028865,-0.03942334830019243,-0.06438229634381014,0.647,-5.913,-5.894
1621786865754.257,-0.052,-0.051,-0.068,0.7503386428604186,-5.926225552990813,-5.9621452221899505
1621786865759.201,-0.079,-0.056,-0.068,0.893042374306373,-5.944489154195393,-6.056249201277955
1621786865764.144,-0.106,-0.065,-0.066,1.03572496445878,-5.962750049681276,-6.150339239035725
1621786865766.648,-0.11766030647553138,-0.06753484923381117,-0.06346515076618883,1.108,-5.972,-6.198
1621786865769.083,-0.129,-0.07,-0.061,1.1784018312382294,-6.000557792714857,-6.26840183123823
1621786865774.022,-0.148,-0.063,-0.056,1.3211960006736998,-6.058480807214711,-6.4111960006737
1621786865778.957,-0.159,-0.059,-0.054,1.4638772335441197,-6.116358010136118,-6.55387723354412
1621786865782.593,-0.1612117221919707,-0.0582627592693431,-0.051788277808029304,1.569,-6.159,-6.659
1621786865783.889,-0.162,-0.058,-0.051,1.6033533525550578,-6.176502300472364,-6.6852941537329
1621786865788.82,-0.162,-0.052,-0.042,1.7340747193423716,-6.243102048954052,-6.7853486595914365
1621786865793.748,-0.154,-0.052,-0.035,1.8647119501871052,-6.3096589319673635,-6.885338767560272
1621786865798.512,-0.13852654011993856,-0.04716454378748079,-0.02823036130247311,1.991,-6.374,-6.982
1621786865798.674,-0.138,-0.047,-0.028,1.9940689330130448,-6.374595615288715,-6.984574269468179
1621786865803.684,-0.119,-0.037,-0.016,2.0889146775321557,-6.393003177547359,-7.064132377535197
1621786865808.64,-0.089,-0.037,-0.005,2.1827343631222065,-6.411211603369112,-7.1428298111715876
1621786865813.592,-0.061,-0.042,0.005,2.2764847204062395,-6.429406574026211,-7.221469091130234
1621786865814.57,-0.05625987279988167,-0.04022245229995563,0.006777547700044372,2.295,-6.433,-7.237
1621786865818.544,-0.037,-0.033,0.014,2.314395734669559,-6.413604265330441,-7.227302132665221
1621786865823.492,-0.01,-0.03,0.033,2.338545968407223,-6.389454031592777,-7.215227015796389
1621786865828.438,0.003,-0.033,0.042,2.3626866693146753,-6.365313330685325,-7.203156665342663
1621786865830.551,0.005991704113377117,-0.033,0.04285477260382203,2.373,-6.355,-7.198
1621786865833.382,0.01,-0.033,0.044,2.3052390014073305,-6.361918007709723,-7.154540720797896
1621786865838.325,0.009,-0.037,0.047,2.186931897448449,-6.373996481674111,-7.0786631279446866
1621786865843.264,0.002,-0.035,0.049,2.068718289175794,-6.386065410267393,-7.002845499602277
1621786865846.511,0.0006848610699100167,-0.03828784732522496,0.056890833580539896,1.991,-6.394,-6.953
1621786865848.202,0.0,-0.04,0.061,1.9420848729969054,-6.406520574807733,-6.950877868676655
1621786865853.137,0.007,-0.037,0.063,1.799322762508809,-6.443062720225511,-6.944684284707541
1621786865858.07,0.009,-0.042,0.059,1.6566171523117934,-6.479590403529736,-6.938493151944113
1621786865862.447,0.02231221226671947,-0.0437749616355626,0.06077496163556259,1.53,-6.512,-6.933
1621786865863.002,0.024,-0.044,0.061,1.5040178749520523,-6.512,-6.9316398619102415
1621786865867.93,0.035,-0.058,0.059,1.273287917146145,-6.512,-6.9195613808975835
1621786865872.857,0.049,-0.059,0.056,1.0426036823935558,-6.512,-6.907485293440737
1621786865877.781,0.059,-0.091,0.044,0.8120566168009207,-6.512,-6.895416386651323
1621786865878.359,0.059469526407141086,-0.09487359285891396,0.04165236796429457,0.785,-6.512,-6.894
1621786865882.704,0.063,-0.124,0.024,0.5782817944384698,-6.501062528806268,-6.856539161161469
1621786865887.624,0.068,-0.152,0.003,0.3442226148409894,-6.488678445229682,-6.81412367491166
1621786865892.542,0.065,-0.171,-0.012,0.11025635274235679,-6.476299277922877,-6.77172502688585
1621786865894.25,0.061178188319427895,-0.17760131108462457,-0.016169249106078667,0.029,-6.472,-6.757
1621786865897.458,0.054,-0.19,-0.024,-0.17701061620124625,-6.4859496884375725,-6.784697207477498
1621786865902.371,0.042,-0.215,-0.047,-0.4925172859450727,-6.507313731825525,-6.8271156704361875
1621786865907.283,0.024,-0.253,-0.079,-0.8079455650434648,-6.528672467112855,-6.869523594122625
1621786865910.118,0.015914855522952208,-0.2691702889540956,-0.09690281991346297,-0.99,-6.541,-6.894
1621786865912.192,0.01,-0.281,-0.11,-1.02979106639343,-6.539691083342322,-6.918345849832822
1621786865917.1,0.005,-0.309,-0.15,-1.123959353476834,-6.536593442319841,-6.975961972850958
1621786865922.005,0.005,-0.333,-0.183,-1.218062063758648,-6.533497958428992,-7.033537973220752
1621786865925.963,0.019530498431509235,-0.34995224817009407,-0.20398849773440222,-1.294,-6.531,-7.08
1621786865926.908,0.023,-0.354,-0.209,-1.2653307926123651,-6.519293406983382,-7.08
1621786865931.808,0.044,-0.372,-0.232,-1.1166819521377545,-6.458595130456249,-7.08
1621786865936.706,0.072,-0.386,-0.248,-0.9680997670148586,-6.397924071531067,-7.08
1621786865941.603,0.08,-0.405,-0.255,-0.8195472064927249,-6.337265109317863,-7.08
1621786865941.786,0.08026149625935163,-0.40544827930174565,-0.25552299251870325,-0.814,-6.335,-7.08
1621786865946.498,0.087,-0.417,-0.269,-0.7293007092417757,-6.191846269141029,-6.966073489191403
1621786865951.389,0.082,-0.433,-0.283,-0.6413891558632199,-6.043263362022344,-6.847826258942782
1621786865956.278,0.061,-0.452,-0.291,-0.5535083208430551,-5.894732373255868,-6.729620347049462
1621786865957.586,0.05297453183520599,-0.4557452184769039,-0.29153503121098623,-0.53,-5.855,-6.698
1621786865961.167,0.031,-0.466,-0.293,-0.49641141248007925,-5.794858272346088,-6.646709319057418
1621786865966.051,-0.005,-0.482,-0.295,-0.45060150701675666,-5.712833779455679,-6.576756355309372
1621786865970.935,-0.045,-0.499,-0.295,-0.4047916015534341,-5.63080928656527,-6.506803391561325
1621786865973.365,-0.06889675870348139,-0.5034806422569028,-0.29948064225690274,-0.382,-5.59,-6.472
1621786865975.816,-0.093,-0.508,-0.304,-0.39584517998543384,-5.615979157950195,-6.482733903584213
1621786865980.695,-0.14,-0.513,-0.304,-0.42340727999628097,-5.667696806285156,-6.504102273255544
1621786865985.571,-0.176,-0.504,-0.304,-0.4509514511955124,-5.7193808129174215,-6.52545674306169
1621786865989.12,-0.19784044471153844,-0.4981758814102564,-0.3061840444711538,-0.471,-5.757,-6.541
1621786865990.446,-0.206,-0.496,-0.307,-0.46931445330684957,-5.802425483380404,-6.586425483380404
1621786865995.318,-0.223,-0.483,-0.304,-0.46312097700257593,-5.969339669780577,-6.753339669780578
1621786866000.188,-0.232,-0.466,-0.293,-0.45693029390769996,-6.1361785791874865,-6.920178579187486
1621786866004.853,-0.23583252268966554,-0.4592930852930853,-0.27862803991375423,-0.451,-6.296,-7.08
1621786866005.057,-0.236,-0.459,-0.278,-0.4507404575407187,-6.300957260972274,-7.0889152834763145
1621786866009.922,-0.23,-0.454,-0.264,-0.44454625139873183,-6.4192665982842225,-7.301686264453562
1621786866014.786,-0.209,-0.443,-0.246,-0.4383539102325003,-6.537540314559244,-7.514393183513614
1621786866019.647,-0.194,-0.435,-0.232,-0.43216498818848686,-6.6557487255999,-7.726982655725476
1621786866020.562,-0.18872828653237556,-0.43594137740493294,-0.22974069422816096,-0.431,-6.678,-7.767
1621786866024.507,-0.166,-0.44,-0.22,-0.3200945466430105,-6.764511283344228,-7.845966694680487
1621786866029.364,-0.134,-0.436,-0.206,-0.18355434681109345,-6.871018831512435,-7.943185793880536
1621786866034.219,-0.093,-0.422,-0.185,-0.04706905406667289,-6.977483549662278,-8.040365798238241
1621786866036.249,-0.07459102344772064,-0.4169793700311965,-0.17412196840092584,0.01,-7.022,-8.081
1621786866039.071,-0.049,-0.41,-0.159,0.02405240024937656,-7.060734180174564,-8.019025311720698
1621786866043.922,-0.003,-0.408,-0.124,0.048208572319201996,-7.127318500623441,-7.912490399002493
1621786866048.77,0.042,-0.403,-0.105,0.07234894014962594,-7.193859258104738,-7.806025187032419
1621786866051.913,0.06924107007909719,-0.3965140309335483,-0.0959196433069676,0.088,-7.237,-7.737
1621786866053.616,0.084,-0.393,-0.091,0.0730833580493592,-7.2220833580493595,-7.676135745617459
1621786866058.461,0.136,-0.398,-0.073,0.030643105789794088,-7.179643105789794,-7.502967125083904
1621786866063.302,0.173,-0.389,-0.063,-0.011762929083217577,-7.1372370709167825,-7.329938121477967
1621786866067.553,0.2002268348045397,-0.3679211601513241,-0.047190870113493065,-0.049,-7.1,-7.178
1621786866068.142,0.204,-0.365,-0.045,-0.049,-7.084085302575644,-7.1562021442860715
1621786866072.979,0.232,-0.346,-0.033,-0.049,-6.953417260565141,-6.977230276319079
1621786866077.815,0.25,-0.328,-0.014,-0.049,-6.822775600150037,-6.798294542385596
1621786866082.648,0.264,-0.302,-0.002,-0.049,-6.69221308452113,-6.619467210552638
1621786866083.174,0.2633465736810188,-0.29862396401859714,-0.00047533858904386496,-0.049,-6.678,-6.6
1621786866087.479,0.258,-0.271,0.012,-0.11386678355066451,-6.572556973121898,-6.489036395798437
1621786866092.308,0.255,-0.239,0.023,-0.1866317684444514,-6.454275167890296,-6.364561825895024
1621786866097.135,0.239,-0.201,0.035,-0.2593636449022401,-6.336047181478061,-6.240143892550211
1621786866098.77,0.23018771192874132,-0.19557705349461005,0.035677868313173745,-0.284,-6.296,-6.198
1621786866101.959,0.213,-0.185,0.037,-0.3865731124312293,-6.23376002758664,-6.155824229219894
1621786866106.782,0.19,-0.169,0.042,-0.5417049326791956,-6.139628144641765,-6.09203749275067
1621786866111.602,0.159,-0.154,0.042,-0.696742519475227,-6.045553441276509,-6.028289502970266
1621786866114.346,0.13792758690584778,-0.15172190128711868,0.03915237660889835,-0.785,-5.992,-5.992
1621786866116.42,0.122,-0.15,0.037,-0.8386063103367083,-5.957995997174476,-5.992
1621786866121.235,0.089,-0.148,0.024,-0.9630650812338122,-5.879048269366612,-5.992
1621786866126.049,0.052,-0.157,0.012,-1.0874923004473747,-5.800120555686367,-5.992
1621786866129.899,0.02559296660915457,-0.1602008525322237,0.003997868669440779,-1.187,-5.737,-5.992
1621786866130.86,0.019,-0.161,0.002,-1.1912094372553028,-5.745480777999654,-6.00109981289014
1621786866135.669,-0.017,-0.152,-0.007,-1.2122694539222314,-5.787910517460967,-6.0466266136260005
1621786866140.477,-0.047,-0.148,-0.021,-1.2333262629915565,-5.830333794556518,-6.0921464802905705
1621786866145.281,-0.084,-0.14,-0.031,-1.2543648956744602,-5.872720451579427,-6.137627053884495
1621786866145.426,-0.08526813399074874,-0.140150968332232,-0.031422711330249584,-1.255,-5.874,-6.139
1621786866150.084,-0.126,-0.145,-0.045,-1.3138737503345561,-5.938881275878899,-6.30090281342003
1621786866154.885,-0.15,-0.145,-0.056,-1.3745557724703623,-6.005755341089786,-6.467778374293497
1621786866159.682,-0.169,-0.145,-0.075,-1.435185336209204,-6.072571595006061,-6.634509674575311
1621786866160.933,-0.17004331009211665,-0.14369586238485418,-0.07812993027634994,-1.451,-6.09,-6.678
1621786866164.479,-0.173,-0.14,-0.087,-1.446648617111861,-6.1236659623450755,-6.8241148569806676
1621786866169.273,-0.175,-0.145,-0.103,-1.4407656816676653,-6.169181304992273,-7.021657636633132
1621786866174.065,-0.162,-0.15,-0.119,-1.434885143019332,-6.214678104008326,-7.219119934403482
1621786866176.416,-0.1580725938009788,-0.1490181484502447,-0.1258729608482871,-1.432,-6.237,-7.316
1621786866178.854,-0.154,-0.148,-0.133,-1.3622935565382186,-6.249301137081491,-7.323727637397346
1621786866183.642,-0.133,-0.15,-0.15,-1.2253936197094124,-6.273459949463045,-7.338904327226785
1621786866188.427,-0.113,-0.148,-0.157,-1.088584428300695,-6.297602747946937,-7.3540709570435885
1621786866191.875,-0.10290956876754274,-0.1443962745598367,-0.16348670579229396,-0.99,-6.315,-7.365
1621786866193.211,-0.099,-0.143,-0.166,-0.9119398386841688,-6.321836754705045,-7.331854720860352
1621786866197.991,-0.087,-0.141,-0.169,-0.6326379566661395,-6.346298892930571,-7.213259797564447
1621786866202.771,-0.079,-0.134,-0.169,-0.35333607464811,-6.370761031156097,-7.094664874268544
1621786866207.312,-0.079,-0.11973838368348412,-0.1623445790522926,-0.088,-6.394,-6.982
1621786866207.547,-0.079,-0.119,-0.162,-0.07619509027557808,-6.396547054165347,-6.977973519163763
1621786866212.321,-0.091,-0.105,-0.148,0.16350709534368071,-6.448265742793792,-6.896214634146341
1621786866217.094,-0.091,-0.099,-0.136,0.4031602470700032,-6.499973851757998,-6.814472473867596
1621786866221.863,-0.098,-0.087,-0.113,0.6426172632245803,-6.551639642065251,-6.732797212543554
1621786866222.727,-0.09854351387324665,-0.08319540288727346,-0.1093765741783557,0.686,-6.561,-6.718
1621786866226.632,-0.101,-0.066,-0.093,0.8230195282135889,-6.6553912305471385,-6.762658216602947
1621786866231.397,-0.101,-0.044,-0.068,0.9902099084664562,-6.770566825832447,-6.817149896092771
1621786866236.161,-0.087,-0.023,-0.04,1.1573660231292733,-6.885718815933499,-6.87163040753843
1621786866238.117,-0.0800158958055584,-0.016426725464054968,-0.03055091785457902,1.226,-6.933,-6.894
1621786866240.922,-0.07,-0.007,-0.017,1.1936893379724511,-6.949246604070349,-6.942374719984748
1621786866245.681,-0.035,0.003,0.0,1.138876507316143,-6.976807857903182,-7.0244391274645315
1621786866250.438,0.01,0.016,0.01,1.0840833611362661,-7.004359213891934,-7.106474063835534
1621786866253.484,0.0458708219951738,0.022405503927709604,0.01,1.049,-7.022,-7.159
1621786866255.193,0.066,0.026,0.01,0.9867268040416898,-6.968416087198664,-7.150199315776911
1621786866259.946,0.127,0.052,0.016,0.8135608878987985,-6.819412857029199,-7.125726851778184
1621786866264.697,0.18,0.077,0.017,0.6404661309571167,-6.670470856870078,-7.101264444267643
1621786866268.827,0.214799423986834,0.09352972639374614,0.01613001440032915,0.49,-6.541,-7.08
1621786866269.444,0.22,0.096,0.016,0.465910381642897,-6.5165075452155214,-7.05909278941917
1621786866274.191,0.246,0.124,0.005,0.28063567843199744,-6.328134602820493,-6.898294175762888
1621786866278.935,0.25,0.143,0.012,0.09546579555413909,-6.139868233606884,-6.7375865349374555
1621786866283.676,0.239,0.154,0.01,-0.08958020874830697,-5.951727814516771,-6.576986407457573
1621786866284.148,0.2359135719804275,0.1553938707185166,0.011294308524336853,-0.108,-5.933,-6.561
1621786866288.416,0.208,0.168,0.023,-0.26924784169791754,-5.889200845767174,-6.413142982526131
1621786866293.153,0.161,0.187,0.03,-0.44821431421048435,-5.840588845448017,-6.249038777627065
1621786866297.889,0.101,0.188,0.037,-0.6271346684752255,-5.791989372057767,-6.084976861086731
1621786866299.447,0.0815738017850694,0.18602445441882062,0.039304803178042615,-0.686,-5.776,-6.031
1621786866302.621,0.042,0.182,0.044,-0.7859293852570352,-5.8167196663417435,-6.031
1621786866307.353,-0.026,0.176,0.049,-0.9349049521404945,-5.877424886942904,-6.031
1621786866312.081,-0.08,0.175,0.061,-1.0837575384713722,-5.938079994886464,-6.031
1621786866314.725,-0.10852649519677719,0.16772854044003718,0.06715277347381468,-1.167,-5.972,-6.031
1621786866316.808,-0.131,0.162,0.072,-1.169730939120415,-6.037679085845977,-6.093948146725562
1621786866321.532,-0.175,0.148,0.079,-1.1759242045963767,-6.186627120542859,-6.236702915946482
1621786866326.255,-0.208,0.131,0.082,-1.1821161897445747,-6.33554436335702,-6.379428173612444
1621786866329.98,-0.2301016037247801,0.12152788411795137,0.08752540093119503,-1.187,-6.453,-6.492
1621786866330.974,-0.236,0.119,0.089,-1.1543012982849816,-6.484328097451515,-6.5355330020836675
1621786866335.692,-0.244,0.106,0.089,-0.9991270075332586,-6.632998076614842,-6.742122327296041
1621786866340.408,-0.239,0.091,0.086,-0.8440089277127745,-6.781614200993749,-6.948636816797563
1621786866345.121,-0.216,0.077,0.087,-0.6889872094887002,-6.930138002885077,-7.155023016509055
1621786866345.212,-0.21549886010362693,0.07686507772020726,0.0869421761658031,-0.686,-6.933,-7.159
1621786866349.833,-0.19,0.07,0.084,-0.558101950084263,-6.977657988925447,-7.304822004654522
1621786866354.542,-0.136,0.065,0.075,-0.42777135061391547,-7.023165347885403,-7.453417462482947
1621786866359.249,-0.077,0.056,0.063,-0.29749480780033705,-7.068653831955702,-7.601951288018618
1621786866360.423,-0.06202413453054445,0.05674879327347278,0.060004826906108893,-0.265,-7.08,-7.639
1621786866363.953,-0.017,0.059,0.051,-0.20341627286462854,-7.004937570321792,-7.568353007361687
1621786866368.656,0.031,0.065,0.037,-0.12136142990323723,-6.904923554183946,-7.474222168643713
1621786866373.356,0.075,0.063,0.031,-0.039361960330472234,-6.804977030893368,-7.380154852605523
1621786866375.612,0.08844354964410037,0.06444038031901075,0.02619873226996415,0.0,-6.757,-7.335
1621786866378.055,0.103,0.066,0.021,0.05219597172803529,-6.660662990452576,-7.219653346428169
1621786866382.751,0.122,0.084,0.019,0.15253472009788926,-6.475469868461303,-6.99791710003059
1621786866387.445,0.119,0.101,0.014,0.2528317367294038,-6.290353769863631,-6.776273075622675
1621786866390.776,0.10976928281461434,0.10455027584053295,0.017550275840532946,0.324,-6.159,-6.619
1621786866392.136,0.106,0.106,0.019,0.3372048276306879,-6.124595585152697,-6.571480586281402
1621786866396.826,0.084,0.119,0.023,0.38273789867457836,-6.005961801412493,-6.407623480279918
1621786866401.513,0.044,0.138,0.031,0.42824252636331384,-5.887402125189461,-6.243868731658551
1621786866405.917,-0.00018097967691506345,0.15116029181865553,0.050740437727983326,0.471,-5.776,-6.09
1621786866406.198,-0.003,0.152,0.052,0.4689926687874433,-5.777468325609185,-6.089275130395466
1621786866410.882,-0.056,0.161,0.066,0.4355324979411242,-5.801943820950474,-6.0771922909231835
1621786866415.562,-0.115,0.187,0.086,0.40210197490593763,-5.826397629466953,-6.065120157604922
1621786866420.241,-0.168,0.206,0.105,0.3686784278263116,-5.850846335201124,-6.053050543381723
1621786866421.036,-0.17615997493865193,0.20752999530099722,0.10822999007988304,0.363,-5.855,-6.051
1621786866424.917,-0.216,0.215,0.124,0.2696757609082382,-5.910274687065369,-6.222480075686516
1621786866429.592,-0.251,0.209,0.133,0.157260471585212,-5.976856745479833,-6.429039298767668
1621786866434.264,-0.279,0.209,0.14,0.0449214994986577,-6.043393602225313,-6.635458291554808
1621786866436.132,-0.28660039730252496,0.20619985362538554,0.14,0.0,-6.07,-6.718
1621786866438.934,-0.298,0.202,0.14,-0.03104454234762468,-6.137480053126873,-6.8819597985066165
1621786866443.602,-0.295,0.194,0.14,-0.08276290513289818,-6.2498978117559405,-7.15510707980369
1621786866448.268,-0.281,0.19,0.143,-0.13445962843583473,-6.362268533665916,-7.428140073535366
1621786866451.205,-0.25895434315932775,0.18370124090266507,0.14111037227079953,-0.167,-6.433,-7.6
1621786866452.931,-0.246,0.18,0.14,-0.17594331176098488,-6.472327640179715,-7.641620797041506
1621786866457.592,-0.199,0.183,0.133,-0.20009746484355995,-6.5785439800171925,-7.754030509464259
1621786866462.251,-0.143,0.185,0.131,-0.22424023161889933,-6.684710249298493,-7.866387231764878
1621786866466.257,-0.08623633314114995,0.18069972220766287,0.12325949997379318,-0.245,-6.776,-7.963
1621786866466.909,-0.077,0.18,0.122,-0.24755921629788477,-6.773484160249537,-7.954064431231115
1621786866471.563,-0.026,0.183,0.113,-0.26583125385840073,-6.755521818240894,-7.890267147545245
1621786866476.215,0.019,0.182,0.112,-0.28409562335510286,-6.7375670143288815,-7.826496637099132
1621786866480.866,0.061,0.176,0.106,-0.30235520031192126,-6.719616921727264,-7.762742859927868
1621786866481.285,0.06352379451623069,0.17572959344468955,0.10618027103687362,-0.304,-6.718,-7.757
1621786866485.514,0.089,0.173,0.108,-0.304,-6.648668033387026,-7.5718329184360815
1621786866490.16,0.103,0.176,0.105,-0.304,-6.572499731537072,-7.368407819592912
1621786866494.804,0.113,0.166,0.101,-0.304,-6.496363449992678,-7.1650682383950794
1621786866496.29,0.113,0.166,0.10164026506784475,-0.304,-6.472,-7.1
1621786866499.446,0.113,0.166,0.103,-0.28757112132173235,-6.410075764981914,-7.002901114478443
1621786866504.085,0.105,0.162,0.098,-0.2634228174797145,-6.319055235115847,-6.860178446899338
1621786866508.723,0.087,0.157,0.101,-0.23927959722358,-6.228053866458109,-6.717485824616287
1621786866511.274,0.07654054054054055,0.15314651493598863,0.10210099573257468,-0.226,-6.178,-6.639
1621786866513.357,0.068,0.15,0.103,-0.21221647819063005,-6.172570127772066,-6.6048892642091355
1621786866517.991,0.042,0.141,0.101,-0.1815525040387722,-6.16049038037891,-6.529003671611103
1621786866522.621,0.01,0.136,0.106,-0.15091437802907914,-6.1484208155872135,-6.45318204663762
1621786866526.235,-0.007176476793248945,0.1289732594936709,0.106,-0.127,-6.139,-6.394
1621786866527.25,-0.012,0.127,0.106,-0.12570913280815874,-6.1523163141895205,-6.403307831856961
1621786866531.876,-0.04,0.124,0.112,-0.11982523779949662,-6.21301333638414,-6.445733811656261
1621786866536.5,-0.061,0.129,0.117,-0.11394382701925276,-6.273684731801392,-6.488141878861177
1621786866541.123,-0.08,0.124,0.119,-0.10806365835321806,-6.334343313829961,-6.530540989768901
1621786866541.173,-0.0801733706855542,0.12392415032507004,0.11905417833923568,-0.108,-6.335,-6.531
1621786866545.742,-0.096,0.117,0.124,-0.108,-6.395048524139286,-6.648339718088502
1621786866550.361,-0.093,0.11,0.117,-0.108,-6.455758050521421,-6.7669710885189005
1621786866554.976,-0.084,0.115,0.119,-0.108,-6.516413028174778,-6.885495866280307
1621786866556.086,-0.08183512355151067,0.11427837451717023,0.11683512355151066,-0.108,-6.531,-6.914
1621786866559.59,-0.075,0.112,0.11,-0.10329425264745418,-6.574998737746303,-6.985527359758696
1621786866564.2,-0.052,0.106,0.106,-0.09710363594636241,-6.632881003901511,-7.079624733615291
1621786866568.81,-0.028,0.096,0.103,-0.09091269138716764,-6.6907663355299825,-7.173727090915052
1621786866570.979,-0.018111099332131876,0.0917618997137708,0.10064549984098378,-0.088,-6.718,-7.218
1621786866573.416,-0.007,0.087,0.098,-0.08488636065143157,-6.721113639348569,-7.208331330443919
1621786866578.021,0.014,0.094,0.094,-0.07900282374573155,-6.726997176254269,-7.190061400052535
1621786866582.624,0.044,0.086,0.091,-0.07312178224323615,-6.732878217756764,-7.171799218544786
1621786866585.85,0.05732480628383399,0.08670130559388599,0.08749347203057,-0.069,-6.737,-7.159
1621786866587.224,0.063,0.087,0.086,-0.06714895821342236,-6.724320363761943,-7.138083227811673
1621786866591.822,0.079,0.091,0.086,-0.06095480932098867,-6.681890443848772,-7.068089345327172
1621786866596.418,0.101,0.087,0.082,-0.054763291618017074,-6.639478547583416,-6.998125195283593
1621786866600.696,0.11589971833979912,0.087,0.07734383801881277,-0.049,-6.6,-6.933
1621786866601.012,0.117,0.087,0.077,-0.04857377427164479,-6.596036100726296,-6.927160707521534
1621786866605.603,0.122,0.089,0.075,-0.042379666990563086,-6.5384309030122365,-6.842301437770714
1621786866610.193,0.124,0.098,0.073,-0.036186877254236735,-6.480837958464401,-6.757460218383043
1621786866614.78,0.124,0.105,0.073,-0.02999836953836526,-6.423284836706797,-6.6726776626756035
1621786866615.52,0.1231930244941427,0.105,0.07251581469648562,-0.029,-6.414,-6.659
1621786866619.365,0.119,0.105,0.07,-0.03419554639175258,-6.38334627628866,-6.605485872164948
1621786866623.948,0.106,0.101,0.068,-0.04038837113402062,-6.346808610309278,-6.541699777319588
1621786866628.529,0.087,0.11,0.072,-0.046578556701030935,-6.310286515463917,-6.477940865979382
1621786866630.321,0.08151975894618953,0.10921710842088422,0.07121710842088422,-0.049,-6.296,-6.453
1621786866633.107,0.073,0.108,0.07,-0.06747446762815748,-6.296,-6.456581784540154
1621786866637.684,0.052,0.119,0.072,-0.09782757595281756,-6.296,-6.462466570847996
1621786866642.258,0.031,0.119,0.072,-0.1281596372106854,-6.296,-6.468347276602072
1621786866645.099,0.01795333938390903,0.11465111312796968,0.07075746089370562,-0.147,-6.296,-6.472
1621786866646.831,0.01,0.112,0.07,-0.1493477627746889,-6.305156274821287,-6.4939515819433415
1621786866651.4,0.0,0.108,0.063,-0.15554117024093195,-6.329310563939635,-6.551859941752714
1621786866655.967,-0.01,0.106,0.061,-0.16173226105374636,-6.353455818109611,-6.609746640852529
1621786866659.853,-0.01595759811784836,0.10004240188215165,0.05844674366377928,-0.167,-6.374,-6.659
1621786866660.533,-0.017,0.099,0.058,-0.16879975144987575,-6.377645650372825,-6.665322203811102
1621786866665.096,-0.016,0.093,0.052,-0.1808777961888981,-6.402111433305716,-6.707750207125104
1621786866669.658,-0.019,0.089,0.047,-0.192953256006628,-6.42657198011599,-6.750169130074565
1621786866674.216,-0.014,0.079,0.038,-0.20501837613918805,-6.451011582435791,-6.792551731565866
1621786866674.587,-0.013593175853018374,0.0786745406824147,0.03759317585301837,-0.206,-6.453,-6.796
1621786866678.774,-0.009,0.075,0.033,-0.18920525162661,-6.453,-6.818203226663126
1621786866683.328,-0.002,0.068,0.024,-0.1709386369672022,-6.453,-6.842352310450139
1621786866687.881,0.0,0.051,0.019,-0.15267496016465276,-6.453,-6.866497510290798
1621786866689.296,0.0,0.047579469843314015,0.016201384417256923,-0.147,-6.453,-6.874
1621786866692.431,0.0,0.04,0.01,-0.13440618039163535,-6.444675271784302,-6.857350543568603
1621786866696.979,0.002,0.044,0.009,-0.11613577579041856,-6.432598224675022,-6.833196449350045
1621786866701.525,0.0,0.037,0.003,-0.09787419794541041,-6.4205270122012035,-6.809054024402407
1621786866703.983,0.0,0.03104996507817117,0.003,-0.088,-6.414,-6.796
1621786866706.069,0.0,0.026,0.003,-0.07960636987213639,-6.411154701651571,-6.793154701651572
1621786866710.61,-0.003,0.024,0.0,-0.061335858417687794,-6.4049613079381995,-6.786961307938199
1621786866715.15,-0.007,0.016,-0.003,-0.04307025839104955,-6.39876957911561,-6.78076957911561
1621786866718.647,-0.007,0.011375376668101594,-0.002229229444683599,-0.029,-6.394,-6.776
1621786866719.687,-0.007,0.01,-0.002,-0.026940244756410686,-6.394,-6.7801905365300605
1621786866724.221,-0.014,0.016,-0.003,-0.017960969021974724,-6.394,-6.798458718196672
1621786866728.755,-0.017,0.0,-0.005,-0.008981693287538763,-6.394,-6.8167268998632835
1621786866733.285,-0.017,0.002,-0.012,-1.0153723031775669e-05,-6.394,-6.834979342425556
1621786866733.29,-0.017006792086679965,0.001997735971106679,-0.012005660072233302,0.0,-6.394,-6.835
1621786866737.814,-0.023,0.0,-0.017,0.031269375,-6.399790625,-6.85787296875
1621786866742.691,-0.014,-0.003,-0.016,0.06497887499999999,-6.4060331249999996,-6.88253084375
1621786866747.748,-0.01,-0.002,-0.017,0.09993375,-6.41250625,-6.9080996875
1621786866748.915,-0.00836979293544458,-0.00363020706455542,-0.017465773447015834,0.108,-6.414,-6.914
1621786866752.759,-0.003,-0.009,-0.019,0.14539452386355042,-6.414,-6.923289085545723
1621786866757.757,0.002,-0.014,-0.021,0.19401571741925727,-6.414,-6.935366961651917
1621786866762.754,0.012,-0.016,-0.024,0.2426250359276908,-6.414,-6.947441887905605
1621786866765.054,0.017523353527457493,-0.013238323236271252,-0.024,0.265,-6.414,-6.953
1621786866767.751,0.024,-0.01,-0.024,0.2813780578206079,-6.407315078440568,-6.943139740699839
1621786866772.747,0.026,-0.012,-0.019,0.3117175685693106,-6.3949316046655875,-6.924874116881742
1621786866777.744,0.031,-0.01,-0.021,0.3420615270570793,-6.382546315486906,-6.9066058153431875
1621786866781.192,0.031,-0.009309726295210166,-0.016168084066471165,0.363,-6.374,-6.894
1621786866782.739,0.031,-0.009,-0.014,0.3610821669062571,-6.370260225467201,-6.890260225467202
1621786866787.735,0.03,-0.007,-0.012,0.35488893092229706,-6.358183415298479,-6.878183415298479
1621786866792.73,0.024,0.002,-0.012,0.3486972081410305,-6.346109555875009,-6.86610955587501
1621786866797.326,0.030440615835777125,0.0029200879765395897,-0.007399560117302053,0.343,-6.335,-6.855
1621786866797.725,0.031,0.003,-0.007,0.34203504789576433,-6.335,-6.856929904208472
1621786866802.72,0.028,0.007,-0.009,0.32996045762019344,-6.335,-6.881079084759613
1621786866807.715,0.028,0.003,-0.002,0.31788527715984927,-6.335,-6.905229445680302
1621786866812.709,0.021,0.0,-0.003,0.3058130476233713,-6.335,-6.929373904753257
1621786866813.459,0.02130042540707056,0.001051488924746956,-0.0025493618893941616,0.304,-6.335,-6.933
1621786866817.702,0.023,0.007,0.0,0.28348635765197255,-6.329740091705634,-6.940889862441549
1621786866822.696,0.023,0.003,0.0,0.2593407182094702,-6.323548902104992,-6.950176646842511
1621786866827.689,0.021,0.0,0.0,0.23520098061470013,-6.317359225798642,-6.9594611613020385
1621786866829.592,0.023667432538130622,-0.0011431853734845524,0.0,0.226,-6.315,-6.963
1621786866832.683,0.028,-0.003,0.0,0.2146921132303966,-6.318833181955798,-6.974307886769603
1621786866837.676,0.028,-0.003,0.0,0.19642676354828945,-6.325024825915834,-6.992573236451711
1621786866842.668,0.033,0.0,-0.002,0.1781649863760218,-6.331215258855586,-7.0108350136239785
1621786866845.72,0.033,-0.004279698733310511,-0.002,0.167,-6.335,-7.022
1621786866847.66,0.033,-0.007,-0.002,0.1645937253951911,-6.337406274604809,-7.019593725395191
1621786866852.652,0.037,-0.009,-0.003,0.1584014899158137,-6.3435985100841865,-7.013401489915814
1621786866857.643,0.042,-0.012,-0.007,0.1522107685785234,-6.349789231421477,-7.007210768578523
1621786866861.844,0.04620770773218565,-0.01957387391793417,-0.007,0.147,-6.355,-7.002
1621786866862.635,0.047,-0.021,-0.007,0.147,-6.350190475469184,-7.002981535618534
1621786866867.625,0.044,-0.012,-0.009,0.147,-6.319850391553946,-7.009173389478787
1621786866872.617,0.047,-0.012,-0.012,0.147,-6.2894984322694985,-7.015367666883776
1621786866877.607,0.045,-0.017,-0.016,0.147,-6.259158348354261,-7.021559520744028
1621786866877.962,0.04492886149028817,-0.01749796956798278,-0.016071138509711827,0.147,-6.257,-7.022
1621786866882.597,0.044,-0.024,-0.017,0.15275242019785779,-6.251247579802142,-6.98518451073371
1621786866887.587,0.038,-0.026,-0.023,0.15894539973033164,-6.245054600269668,-6.945549441725878
1621786866892.577,0.037,-0.031,-0.021,0.16513837926280547,-6.238861620737195,-6.905914372718045
1621786866894.077,0.03489496353580344,-0.03160143898977045,-0.02190215848465567,0.167,-6.237,-6.894
1621786866897.565,0.03,-0.033,-0.024,0.17544244609766815,-6.2538848921953365,-6.872785648267398
1621786866902.554,0.023,-0.033,-0.024,0.18751785633115653,-6.278035712662313,-6.8424423097319655
1621786866907.543,0.014,-0.031,-0.021,0.1995932665646449,-6.30218653312929,-6.812098971196534
1621786866910.19,0.012938879373623684,-0.036836163445069736,-0.021,0.206,-6.315,-6.796
1621786866912.532,0.012,-0.042,-0.021,0.20033097961966814,-6.317907189938632,-6.804576210318964
1621786866917.52,0.005,-0.04,-0.026,0.18825720130312903,-6.3240988711266,-6.822841669823472
1621786866922.507,0.003,-0.031,-0.024,0.17618578680203045,-6.3302893401015226,-6.841103553299493
1621786866926.302,0.0007175860212422303,-0.031,-0.024,0.167,-6.335,-6.855
1621786866927.495,0.0,-0.031,-0.024,0.16840741807378665,-6.335,-6.860777821566072
1621786866932.482,0.0,-0.031,-0.028,0.17428994755509747,-6.335,-6.884927153120927
1621786866937.469,0.002,-0.04,-0.03,0.18017276502864765,-6.335,-6.909077666959711
1621786866942.409,0.002,-0.038018896558476525,-0.03495275860380869,0.186,-6.335,-6.933
1621786866942.456,0.002,-0.038,-0.035,0.18605851499257192,-6.335,-6.9328858957644846
1621786866947.443,-0.003,-0.038,-0.035,0.1922517054240063,-6.335,-6.920809174423187
1621786866952.428,0.0,-0.045,-0.037,0.1984421671770306,-6.335,-6.90873777400479
1621786866957.415,0.002,-0.044,-0.037,0.20463535760846496,-6.335,-6.896661052663493
1621786866958.514,0.0015591145068077187,-0.04422044274659614,-0.03766132823978842,0.206,-6.335,-6.894
1621786866962.4,0.0,-0.045,-0.04,0.2108266973951542,-6.3301733026048455,-6.889173302604846
1621786866967.385,0.0,-0.051,-0.038,0.21701858871334567,-6.323981411286654,-6.8829814112866545
1621786866972.37,-0.005,-0.054,-0.042,0.22321048003153715,-6.317789519968463,-6.8767895199684625
1621786866974.616,-0.004098932314624351,-0.05174733078656088,-0.0401978646292487,0.226,-6.315,-6.874
1621786866977.355,-0.003,-0.049,-0.038,0.22923235677675674,-6.311767643223243,-6.867365162405604
1621786866982.339,-0.007,-0.058,-0.037,0.2351142146604798,-6.3058857853395205,-6.855291875170594
1621786866987.323,-0.017,-0.058,-0.037,0.2409957844296849,-6.300004215570316,-6.843219179328542
1621786866990.716,-0.017,-0.05323434897619281,-0.03563838542176938,0.245,-6.296,-6.835
1621786866992.307,-0.017,-0.051,-0.035,0.245,-6.301831182029153,-6.835
1621786866997.29,-0.023,-0.051,-0.035,0.245,-6.320097028621699,-6.835
1621786867002.274,-0.026,-0.044,-0.037,0.245,-6.338365559920521,-6.835
1621786867006.812,-0.029643455676973587,-0.04673259175773019,-0.03335654432302641,0.245,-6.355,-6.835
1621786867007.256,-0.03,-0.047,-0.033,0.24447572093869935,-6.356076151757407,-6.836076151757407
1621786867012.239,-0.031,-0.047,-0.035,0.23859307352740403,-6.368151059601645,-6.848151059601644
1621786867017.221,-0.03,-0.044,-0.033,0.23271157901124073,-6.380223600976927,-6.860223600976926
1621786867022.204,-0.033,-0.044,-0.035,0.22682864337616238,-6.392299100438404,-6.872299100438403
1621786867022.906,-0.031731741986079795,-0.044,-0.035,0.226,-6.394,-6.874
1621786867027.185,-0.024,-0.044,-0.035,0.21536290946608203,-6.399318545266959,-6.879318545266959
1621786867032.167,-0.019,-0.044,-0.03,0.2029785613497398,-6.40551071932513,-6.88551071932513
1621786867037.148,-0.023,-0.044,-0.031,0.19059664082295286,-6.411701679588523,-6.8917016795885235
1621786867038.997,-0.020772571316537595,-0.041772571316537596,-0.0298862856582688,0.186,-6.414,-6.894
1621786867042.129,-0.017,-0.038,-0.028,0.186,-6.4101065922059,-6.890106592205901
1621786867047.109,-0.016,-0.037,-0.028,0.186,-6.403915624620614,-6.883915624620614
1621786867052.09,-0.012,-0.035,-0.028,0.186,-6.397723139492534,-6.8777231394925336
1621786867055.085,-0.012,-0.036202764976958526,-0.02559447004608295,0.186,-6.394,-6.874
1621786867057.07,-0.012,-0.037,-0.024,0.1884679404489096,-6.396467940448909,-6.871655456573536
1621786867062.05,-0.014,-0.031,-0.024,0.1946591898987753,-6.402659189898775,-6.865773769596164
1621786867067.029,-0.016,-0.035,-0.024,0.2008492252591322,-6.408849225259132,-6.859893236003825
1621786867071.172,-0.014336111383468967,-0.03167222276693794,-0.021504167075203452,0.206,-6.414,-6.855
1621786867072.009,-0.014,-0.031,-0.021,0.20704068002428658,-6.414988646023072,-6.855988646023072
1621786867076.987,-0.01,-0.026,-0.021,0.2132307225258045,-6.420869186399514,-6.861869186399514
1621786867081.965,-0.01,-0.028,-0.021,0.2194207650273224,-6.426749726775956,-6.867749726775957
1621786867086.944,-0.01,-0.031,-0.016,0.2256120218579235,-6.432631420765027,-6.873631420765027
1621786867087.256,-0.009811920529801324,-0.03056114790286976,-0.016,0.226,-6.433,-6.874
1621786867091.921,-0.007,-0.024,-0.016,0.22019830871301257,-6.427488393277362,-6.879801691286987
1621786867096.9,0.0,-0.028,-0.014,0.21400582993001047,-6.42160553843351,-6.885994170069989
1621786867101.877,0.0,-0.026,-0.01,0.20781578028451272,-6.415724991270287,-6.892184219715487
1621786867103.337,0.0014666928284116552,-0.02335995290885902,-0.010586677131364661,0.206,-6.414,-6.894
1621786867106.854,0.005,-0.017,-0.012,0.206,-6.42253125,-6.889625
1621786867111.831,0.005,-0.016,-0.014,0.206,-6.434603862973761,-6.883433916423712
1621786867116.808,0.002,-0.023,-0.005,0.206,-6.446676475947522,-6.877242832847425
1621786867119.415,0.005667435356459447,-0.023,-0.007095677346548255,0.206,-6.453,-6.874
1621786867121.784,0.009,-0.023,-0.009,0.206,-6.453,-6.874
1621786867126.76,0.009,-0.01,-0.003,0.206,-6.453,-6.874
1621786867131.735,0.014,-0.009,-0.003,0.206,-6.453,-6.874
1621786867135.49,0.010981502379667338,-0.011263873215249498,-0.003,0.206,-6.453,-6.874
1621786867136.711,0.01,-0.012,-0.003,0.20303709723973445,-6.455962902760266,-6.87255653455269
1621786867141.686,0.014,-0.009,0.0,0.19096390538836647,-6.468036094611634,-6.866674723137922
1621786867146.661,0.017,-0.01,-0.002,0.17889130599905814,-6.480108694000942,-6.860793200358516
1621786867151.561,0.020940512417787376,-0.01,-0.002,0.167,-6.492,-6.855
1621786867151.635,0.021,-0.01,-0.002,0.1667283378415342,-6.492,-6.8548204267088115
1621786867156.609,0.017,0.0,-0.002,0.14846241984013617,-6.492,-6.842746345318056
1621786867161.584,0.023,-0.007,0.0,0.13019201896483604,-6.492,-6.830669300671671
1621786867166.557,0.031,-0.007,-0.003,0.11192968726255964,-6.492,-6.818597589885421
1621786867167.627,0.030784872877196428,-0.008075635614017865,-0.0023546186315892806,0.108,-6.492,-6.816
1621786867171.531,0.03,-0.012,0.0,0.10313936593817441,-6.477661129517615,-6.811139365938175
1621786867176.504,0.028,-0.012,0.0,0.0969479923401927,-6.459396577403568,-6.8049479923401925
1621786867181.477,0.026,-0.016,-0.002,0.0907563147816043,-6.441131128605733,-6.798756314781604
1621786867183.691,0.026890547507979375,-0.013328357476061871,-0.002,0.088,-6.433,-6.796
1621786867186.449,0.028,-0.01,-0.002,0.088,-6.436434678179441,-6.78260475510018
1621786867191.422,0.024,-0.01,-0.003,0.088,-6.442627861725092,-6.758451339272141
1621786867196.393,0.023,-0.016,-0.003,0.088,-6.448818308959898,-6.734308595056398
1621786867199.751,0.020298502332433094,-0.013298502332433097,-0.004350748833783452,0.088,-6.453,-6.718
1621786867201.365,0.019,-0.012,-0.005,0.09001033906036186,-6.454909822107344,-6.718
1621786867206.336,0.017,-0.017,-0.003,0.09620191576706705,-6.460791819978714,-6.718
1621786867211.308,0.019,-0.014,-0.002,0.10239501292382545,-6.466675262277635,-6.718
1621786867215.808,0.016283686201306675,-0.010378248268408902,-0.002905437932897775,0.108,-6.472,-6.718
1621786867216.278,0.016,-0.01,-0.003,0.10855618071501345,-6.471443819284987,-6.7191416340992385
1621786867221.249,0.012,-0.023,-0.003,0.11443898359209866,-6.465561016407902,-6.731216861057465
1621786867226.219,0.017,-0.014,-0.005,0.12032063076899682,-6.4596793692310035,-6.743289715788993
1621786867231.189,0.014,-0.021,-0.003,0.12620227794589498,-6.453797722054105,-6.755362570520521
1621786867231.863,0.013321721613521348,-0.02045737729081708,-0.003,0.127,-6.453,-6.757
1621786867236.158,0.009,-0.017,-0.003,0.11656440793976729,-6.458084006388319,-6.751648414328086
1621786867241.128,0.005,-0.016,-0.007,0.10448861510381018,-6.463967084949426,-6.745455700053236
1621786867246.097,0.012,-0.016,-0.005,0.09241519507186857,-6.46984900752909,-6.739264202600959
1621786867247.914,0.01273139094973714,-0.01782847737434285,-0.00573139094973714,0.088,-6.472,-6.737
1621786867251.066,0.014,-0.021,-0.007,0.088,-6.472,-6.725413775269619
1621786867256.034,0.009,-0.017,-0.005,0.088,-6.472,-6.707151336304589
1621786867261.003,0.01,-0.017,-0.01,0.088,-6.472,-6.688885307494562
1621786867263.964,0.009403833865814696,-0.017,-0.0070191693290734825,0.088,-6.472,-6.678
1621786867265.97,0.009,-0.017,-0.005,0.088,-6.472,-6.673124406573342
1621786867270.938,0.007,-0.023,-0.002,0.088,-6.472,-6.661048767498478
1621786867275.905,0.003,-0.023,-0.005,0.088,-6.472,-6.6489755021302495
1621786867280.009,-0.0011312361759646108,-0.01969501105922831,-0.006652494470385844,0.088,-6.472,-6.639
1621786867280.872,-0.002,-0.019,-0.007,0.09009801862673483,-6.470977888361335,-6.641098018626735
1621786867285.839,-0.002,-0.01,-0.003,0.10217275383491599,-6.465095325054785,-6.653172753834916
1621786867290.805,-0.01,-0.012,0.0,0.1142445215485756,-6.459214207450694,-6.665244521548575
1621786867295.772,-0.012,-0.009,0.0,0.12631925675675676,-6.453331644144145,-6.677319256756757
1621786867296.052,-0.012394797659438463,-0.009056399665634065,0.0,0.127,-6.453,-6.678
1621786867300.737,-0.019,-0.01,0.0,0.13284134908072567,-6.45854928162669,-6.689682698161452
1621786867305.703,-0.021,-0.01,0.0,0.13903275295263606,-6.464431115305005,-6.7020655059052725
1621786867310.668,-0.026,-0.007,0.002,0.14522324363813466,-6.470312081456228,-6.71444648727627
1621786867312.093,-0.026573914753453616,-0.007573914753453616,0.004008701637087655,0.147,-6.472,-6.718
1621786867315.634,-0.028,-0.009,0.009,0.147,-6.485028272155657,-6.726611908713061
1621786867320.598,-0.024,0.0,0.007,0.147,-6.503291567072149,-6.7386842562002345
1621786867325.563,-0.023,-0.002,0.007,0.147,-6.521559353257311,-6.750759572492121
1621786867328.129,-0.021966212560861655,-0.0009662125608616535,0.009584468597845865,0.147,-6.531,-6.757
1621786867330.527,-0.021,0.0,0.012,0.15582448687496192,-6.531,-6.759841783908886
1621786867335.491,-0.014,0.005,0.009,0.17408972836348133,-6.531,-6.765723810828917
1621786867340.454,-0.012,0.007,0.012,0.1923522748035812,-6.531,-6.771604969852
1621786867344.163,-0.010505606925044266,0.008494393074955734,0.013494393074955735,0.206,-6.531,-6.776
1621786867345.418,-0.01,0.009,0.014,0.206,-6.5263821321435636,-6.776
1621786867350.38,-0.005,0.012,0.023,0.206,-6.508122687335353,-6.776
1621786867355.344,-0.002,0.021,0.017,0.206,-6.489855156766305,-6.776
1621786867360.196,-4.4282621531194655e-05,0.01708856524306239,0.020911434756937613,0.206,-6.472,-6.776
1621786867360.306,0.0,0.017,0.021,0.206,-6.471602443222495,-6.775602443222494
1621786867365.268,0.002,0.021,0.023,0.206,-6.453646128771839,-6.757646128771839
1621786867370.23,0.0,0.021,0.024,0.206,-6.4356906977806885,-6.739690697780689
1621786867375.191,-0.003,0.021,0.028,0.206,-6.417738800627561,-6.721738800627561
1621786867376.224,-0.0034164329643296435,0.021624649446494466,0.028624649446494465,0.206,-6.414,-6.718
1621786867380.153,-0.005,0.024,0.031,0.20109673684531243,-6.409096736845313,-6.703535373693672
1621786867385.113,-0.012,0.028,0.031,0.19490679747722495,-6.4029067974772245,-6.685275052557813
1621786867390.074,-0.016,0.035,0.04,0.188715639377228,-6.396715639377228,-6.667011136162823
1621786867392.25,-0.021264619019492025,0.03412256349675133,0.038683845245126997,0.186,-6.394,-6.659
1621786867395.034,-0.028,0.033,0.037,0.17922387627609324,-6.394,-6.662301188480877
1621786867399.995,-0.035,0.038,0.042,0.16714831631875665,-6.394,-6.668184153588298
1621786867404.954,-0.044,0.038,0.042,0.1550781045253695,-6.394,-6.674064513179948
1621786867408.273,-0.050691277810592635,0.04268389446741484,0.042,0.147,-6.394,-6.678
1621786867409.914,-0.054,0.045,0.042,0.13901005760263327,-6.3960487031788125,-6.688038645576179
1621786867414.873,-0.059,0.045,0.04,0.11486669104873365,-6.402239309987504,-6.71837261893877
1621786867419.833,-0.054,0.045,0.044,0.09071856999177105,-6.408431135899546,-6.748712565907774
1621786867424.294,-0.05579948788654718,0.04410025605672641,0.042200512113452826,0.069,-6.414,-6.776
1621786867424.791,-0.056,0.044,0.042,0.06685811645245392,-6.415210629831221,-6.778452301452988
1621786867429.75,-0.058,0.035,0.042,0.04548977724923387,-6.427288386772172,-6.802917501410297
1621786867434.707,-0.056,0.038,0.038,0.02412985409138728,-6.439361386817912,-6.827373065605514
1621786867439.666,-0.054,0.04,0.04,0.002761514888167227,-6.451439143758862,-6.851838265562823
1621786867440.307,-0.05361214539007092,0.03961214539007092,0.03961214539007092,0.0,-6.453,-6.855
1621786867444.623,-0.051,0.037,0.037,-0.007816603140722671,-6.442488016465925,-6.86012122274737
1621786867449.579,-0.047,0.044,0.037,-0.0167920567159628,-6.430417578899222,-6.866001692331148
1621786867454.537,-0.049,0.038,0.031,-0.025771047415764598,-6.418342384509834,-6.871884479341363
1621786867456.32,-0.04720149731566763,0.03764029946313353,0.031719401073732945,-0.029,-6.414,-6.874
1621786867459.494,-0.044,0.037,0.033,-0.029,-6.410034953410702,-6.862501364891037
1621786867464.45,-0.045,0.037,0.028,-0.029,-6.403843380659723,-6.844545803913196
1621786867469.405,-0.047,0.031,0.03,-0.029,-6.397653027923078,-6.826593780976927
1621786867472.329,-0.049949418833727346,0.03217976753349094,0.024691046099290778,-0.029,-6.394,-6.816
1621786867474.362,-0.052,0.033,0.021,-0.024047383029341795,-6.394,-6.825905233941317
1621786867479.317,-0.047,0.035,0.024,-0.011976605868358449,-6.394,-6.850046788263283
1621786867484.272,-0.049,0.031,0.023,9.47660586835819e-05,-6.394,-6.874189532117367
1621786867488.338,-0.049,0.026897221127315726,0.023,0.01,-6.394,-6.894
1621786867489.227,-0.049,0.026,0.023,0.01,-6.3918329697154626,-6.896167030284538
1621786867494.182,-0.044,0.028,0.019,0.01,-6.379757220230377,-6.9082427797696235
1621786867499.136,-0.044,0.023,0.017,0.01,-6.3676832557784735,-6.920316744221527
1621786867504.09,-0.044,0.026,0.016,0.01,-6.35560929132657,-6.93239070867343
1621786867504.34,-0.044,0.02564673993396087,0.015798137105120496,0.01,-6.355,-6.933
1621786867509.044,-0.044,0.019,0.012,0.01,-6.366464952700642,-6.933
1621786867513.998,-0.037,0.019,0.01,0.01,-6.378539838266708,-6.933
1621786867518.95,-0.04,0.012,0.007,0.01,-6.390609368324688,-6.933
1621786867520.341,-0.03747279716144293,0.014527202838557067,0.007842400946185688,0.01,-6.394,-6.933
1621786867523.904,-0.031,0.021,0.01,0.01,-6.394,-6.939683152447681
1621786867528.856,-0.03,0.017,0.003,0.01,-6.394,-6.9489715162339145
1621786867533.809,-0.024,0.016,0.007,0.01,-6.394,-6.958262169711957
1621786867536.335,-0.020428719364860203,0.016510182947877115,0.004449085260614429,0.01,-6.394,-6.963
1621786867538.76,-0.017,0.017,0.002,0.012880800464037123,-6.394,-6.963
1621786867543.713,-0.014,0.019,0.0,0.01876450116009281,-6.394,-6.963
1621786867548.664,-0.005,0.009,-0.002,0.0246461716937355,-6.394,-6.963
1621786867552.329,0.00018191232309285477,0.00603890724394694,-0.0005194536219734701,0.029,-6.394,-6.963
1621786867553.615,0.002,0.005,0.0,0.029,-6.395608268828532,-6.959059741370098
1621786867558.566,0.003,0.017,-0.002,0.029,-6.401800424433961,-6.943888960136796
1621786867563.517,0.005,0.009,-0.005,0.029,-6.407992885387563,-6.92871743080047
1621786867568.32,0.011792157829839705,0.009970308261405672,-0.005,0.029,-6.414,-6.914
1621786867568.467,0.012,0.01,-0.005,0.029,-6.413816157945366,-6.913816157945366
1621786867573.417,0.014,0.002,-0.003,0.029,-6.407624467484082,-6.907624467484082
1621786867578.366,0.016,0.005,-0.009,0.029,-6.401433998564689,-6.901433998564689
1621786867583.315,0.017,0.0,-0.009,0.029,-6.3952435296452945,-6.8952435296452945
1621786867584.309,0.016799161528976574,0.0010041923551171394,-0.009,0.029,-6.394,-6.894
1621786867588.265,0.016,0.005,-0.009,0.03889889116290436,-6.384348581116169,-6.874697162232336
1621786867593.214,0.014,-0.002,-0.009,0.05128365458044415,-6.372273436784067,-6.850546873568134
1621786867598.162,0.009,-0.002,-0.01,0.06366536335033755,-6.3602012707334215,-6.826402541466842
1621786867600.294,0.007276607292643213,-0.00027660729264321294,-0.01,0.069,-6.355,-6.816
1621786867603.11,0.005,0.002,-0.01,0.07921872279329781,-6.358347512639184,-6.816
1621786867608.059,-0.002,0.002,-0.009,0.0971765667241985,-6.3642302546165475,-6.816
1621786867613.006,0.0,-0.002,-0.003,0.11512732354783034,-6.370110674955323,-6.816
1621786867616.278,-0.0019838160556569793,-0.002,-0.005645088074209307,0.127,-6.374,-6.816
1621786867617.954,-0.003,-0.002,-0.007,0.1311958255661156,-6.376097912783058,-6.8200909299269625
1621786867622.9,-0.003,0.002,-0.002,0.14357733092931577,-6.382288665464658,-6.832162897656083
1621786867627.848,-0.003,0.0,-0.003,0.15596433701066528,-6.388482168505333,-6.844240228585399
1621786867632.256,-0.012803840268522632,0.0017825164124586606,-0.0021087417937706698,0.167,-6.394,-6.855
1621786867632.794,-0.014,0.002,-0.002,0.16763965340709386,-6.392687027217018,-6.855639653407094
1621786867637.74,-0.007,0.005,-0.005,0.173521967694118,-6.380612803154179,-6.861521967694118
1621786867642.686,-0.012,0.0,0.002,0.17940428198114217,-6.36853857909134,-6.867404281981142
1621786867647.632,-0.016,0.007,0.0,0.18528659626816632,-6.356464355028501,-6.873286596268166
1621786867648.232,-0.016,0.006757381258023107,0.00024261874197689347,0.186,-6.355,-6.874
1621786867652.577,-0.016,0.005,0.002,0.19688002445361455,-6.3601680116154675,-6.863391976157725
1621786867657.523,-0.016,0.0,0.003,0.2092651688827755,-6.366050955219318,-6.8513164603392935
1621786867662.467,-0.023,0.003,0.007,0.22164542258902645,-6.371931575729787,-6.839245712975699
1621786867664.206,-0.023,0.004406665020982473,0.007703332510491236,0.226,-6.374,-6.835
1621786867667.412,-0.023,0.007,0.009,0.22198538695525902,-6.3820292260894815,-6.835
1621786867672.356,-0.019,0.01,0.01,0.21579471423549013,-6.394410571529019,-6.835
1621786867677.3,-0.021,0.01,0.014,0.20960373580348818,-6.406792528393023,-6.835
1621786867680.178,-0.018089382716049384,0.00825362962962963,0.011089382716049381,0.206,-6.414,-6.835
1621786867682.244,-0.016,0.007,0.009,0.2009539303680372,-6.419046069631962,-6.842633797648354
1621786867687.188,-0.017,0.017,0.012,0.1888778306142108,-6.431122169385789,-6.860902769070809
1621786867692.13,-0.009,0.014,0.017,0.17680709775079892,-6.443192902249201,-6.879163621351355
1621786867696.145,-0.009,0.010750926063120463,0.016187731515780117,0.167,-6.453,-6.894
1621786867697.073,-0.009,0.01,0.016,0.164675122712051,-6.451837561356026,-6.8951624386439745
1621786867702.015,0.002,0.014,0.01,0.1522941266418949,-6.445647063320948,-6.901352936679053
1621786867706.958,0.007,0.012,0.016,0.1399100723274768,-6.439455036163738,-6.907544963836261
1621786867711.899,0.014,0.016,0.009,0.12753152285273026,-6.433265761426365,-6.9137342385736344
1621786867712.111,0.014128759816269078,0.015742480367461845,0.009,0.127,-6.433,-6.914
1621786867716.842,0.017,0.01,0.009,0.127,-6.433,-6.88495374732334
1621786867721.782,0.019,0.009,0.009,0.127,-6.433,-6.854624411134903
1621786867726.723,0.019,0.007,0.01,0.127,-6.433,-6.824289079229122
1621786867728.073,0.01845353031276249,0.00836617421809378,0.009180295469143732,0.127,-6.433,-6.816
1621786867731.664,0.017,0.012,0.007,0.1314921892894773,-6.424240230885519,-6.8027480415960415
1621786867736.604,0.023,0.009,0.009,0.13767173637515842,-6.412190114068441,-6.784518377693282
1621786867741.545,0.014,0.017,0.005,0.1438525050773436,-6.40013761509918,-6.766285110021836
1621786867744.061,0.011972556927162741,0.012945113854325481,0.00601372153641863,0.147,-6.394,-6.757
1621786867746.509,0.01,0.009,0.007,0.147,-6.397074587964737,-6.7539254120352625
1621786867751.44,0.012,0.009,0.003,0.147,-6.40326761211192,-6.74773238788808
1621786867756.37,0.009,0.002,0.009,0.147,-6.409459716366424,-6.741540283633576
1621786867759.985,0.006066904372802456,0.0005334521864012282,0.004600356559203684,0.147,-6.414,-6.737
1621786867761.3,0.005,0.0,0.003,0.14377870813397128,-6.415569347319347,-6.738651944546682
1621786867766.229,0.0,0.003,0.007,0.13170394736842106,-6.421451923076923,-6.7448441295546555
1621786867771.158,0.0,0.005,0.003,0.11962918660287081,-6.427334498834498,-6.75103631456263
1621786867775.905,-0.0028898687143918754,0.00018355214268020795,0.003,0.108,-6.433,-6.757
1621786867776.086,-0.003,0.0,0.003,0.1073293809056326,-6.432556709412197,-6.757670619094367
1621786867781.014,-0.005,0.0,0.0,0.08906157197202111,-6.4204813780832,-6.775938428027978
1621786867785.941,-0.009,0.002,0.003,0.07079738311449257,-6.408408439685851,-6.794202616885507
1621786867790.868,-0.012,0.0,0.0,0.052533194256964046,-6.396335501288502,-6.8124668057430355
1621786867791.821,-0.013354144987859869,-0.00038689856795996237,-0.0005803478519399434,0.049,-6.394,-6.816
1621786867795.795,-0.019,-0.002,-0.003,0.06848234535884727,-6.394,-6.791522181472217
1621786867800.721,-0.024,-0.005,-0.005,0.09263269753095893,-6.394,-6.761179431307257
1621786867805.646,-0.028,-0.007,-0.007,0.11677826200377492,-6.394,-6.730842696456795
1621786867807.731,-0.028,-0.010809287802943946,-0.00784650840065421,0.127,-6.394,-6.718
1621786867810.572,-0.028,-0.016,-0.009,0.1341446332366349,-6.394,-6.718
1621786867815.497,-0.024,-0.014,-0.012,0.14653001488848982,-6.394,-6.718
1621786867820.421,-0.031,-0.009,-0.012,0.15891232674863012,-6.394,-6.718
1621786867823.637,-0.031,-0.016837572512271307,-0.01657191729882493,0.167,-6.394,-6.718
1621786867825.345,-0.031,-0.021,-0.019,0.17333705381131498,-6.394,-6.728525953788286
1621786867830.269,-0.037,-0.026,-0.021,0.1916063560297843,-6.394,-6.758871574422353
1621786867835.192,-0.035,-0.03,-0.017,0.2098711291932141,-6.394,-6.789209672219237
1621786867839.539,-0.039415951589702895,-0.03,-0.023182332225584048,0.226,-6.394,-6.816
1621786867840.114,-0.04,-0.03,-0.024,0.226,-6.394,-6.817410699474703
1621786867845.037,-0.04,-0.03,-0.021,0.226,-6.394,-6.829490000921574
1621786867849.958,-0.037,-0.031,-0.028,0.226,-6.394,-6.841563911160262
1621786867854.88,-0.037,-0.028,-0.024,0.226,-6.394,-6.853640217491476
1621786867855.434,-0.0363243042119363,-0.027774768070645432,-0.024225231929354565,0.226,-6.394,-6.855
1621786867859.801,-0.031,-0.026,-0.026,0.2205048463157248,-6.399495153684275,-6.881926253052949
1621786867864.722,-0.033,-0.037,-0.028,0.21431262192593048,-6.405687378074069,-6.912268152562941
1621786867869.642,-0.028,-0.037,-0.03,0.20812131918096496,-6.411878680819035,-6.942605536013272
1621786867871.328,-0.028,-0.03562941643509329,-0.03239852123858674,0.206,-6.414,-6.953
1621786867874.562,-0.028,-0.033,-0.037,0.2100713649076436,-6.425806958232166,-6.948928635092357
1621786867879.481,-0.021,-0.037,-0.04,0.21626369978793372,-6.443764729385008,-6.942736300212066
1621786867884.4,-0.009,-0.042,-0.04,0.22245603466822386,-6.461722500537849,-6.936543965331776
1621786867887.215,-0.007855199801439562,-0.04486200049640109,-0.042289600397120874,0.226,-6.472,-6.933
1621786867889.318,-0.007,-0.047,-0.044,0.22335181997048698,-6.472,-6.9251878689129365
1621786867894.237,-0.002,-0.044,-0.049,0.21715777176586326,-6.472,-6.906915426709296
1621786867899.154,0.005,-0.051,-0.052,0.2109661829808165,-6.472,-6.888650239793408
1621786867903.098,0.009010427010923536,-0.04618748758689176,-0.052,0.206,-6.472,-6.874
1621786867904.071,0.01,-0.045,-0.052,0.20839038641920254,-6.469609613580798,-6.869219227161595
1621786867908.988,0.017,-0.056,-0.056,0.22046825457844477,-6.457531745421555,-6.845063490843111
1621786867913.904,0.017,-0.063,-0.056,0.23254372395553025,-6.44545627604447,-6.82091255208894
1621786867918.82,0.019,-0.068,-0.061,0.24461919333261573,-6.433380806667384,-6.796761613334769
1621786867918.975,0.018936928883591577,-0.06812614223281685,-0.06106307111640842,0.245,-6.433,-6.796
1621786867923.736,0.017,-0.072,-0.063,0.25099809301181103,-6.421303718626969,-6.766609344242126
1621786867928.65,0.017,-0.07,-0.063,0.25718873031496065,-6.4092319758858265,-6.736275221456693
1621786867933.565,0.012,-0.072,-0.065,0.26338090551181104,-6.397157234251969,-6.705933562992127
1621786867934.85,0.00886168521462639,-0.07409220985691574,-0.06578457869634341,0.265,-6.394,-6.698
1621786867938.479,0.0,-0.08,-0.068,0.2739179884005354,-6.39857332738489,-6.69342667261511
1621786867943.393,0.0,-0.075,-0.063,0.28599423103549065,-6.404766272325893,-6.687233727674108
1621786867948.306,0.0,-0.079,-0.065,0.29806747380890114,-6.410957678876359,-6.68104232112364
1621786867950.72,-0.002456768038163387,-0.079,-0.06401729278473464,0.304,-6.414,-6.678
1621786867953.219,-0.005,-0.079,-0.063,0.30084983150476247,-6.420142828565713,-6.681150168495238
1621786867958.131,-0.005,-0.084,-0.068,0.2946578238724668,-6.432217243448689,-6.687342176127533
1621786867963.044,-0.012,-0.082,-0.063,0.2884648929785957,-6.444293458691739,-6.693535107021405
1621786867966.586,-0.01488486776695168,-0.08560608470868959,-0.06516365082521376,0.284,-6.453,-6.698
1621786867967.955,-0.016,-0.087,-0.066,0.285726414949128,-6.451273585050872,-6.7064594332507275
1621786867972.865,-0.019,-0.087,-0.063,0.29191755814490433,-6.445082441855096,-6.736796034910031
1621786867977.777,-0.014,-0.082,-0.065,0.2981114719780812,-6.438888528021919,-6.767146212692598
1621786867982.447,-0.016852796420581656,-0.09055838926174496,-0.07165652498135719,0.304,-6.433,-6.796
1621786867982.688,-0.017,-0.091,-0.072,0.30489663720629445,-6.433303944815693,-6.796
1621786867987.597,-0.017,-0.087,-0.068,0.32316278138761434,-6.439495858097496,-6.796
1621786867992.506,-0.009,-0.089,-0.072,0.3414298340159517,-6.445688079327441,-6.796
1621786867997.415,-0.005,-0.091,-0.073,0.35969597819727156,-6.4518799926092445,-6.796
1621786867998.303,-0.00572367308361936,-0.09063816345819031,-0.07245724518728548,0.363,-6.453,-6.796
1621786868002.323,-0.009,-0.089,-0.07,0.363,-6.453,-6.796
1621786868007.232,-0.007,-0.093,-0.07,0.363,-6.453,-6.796
1621786868012.139,-0.009,-0.091,-0.07,0.363,-6.453,-6.796
1621786868014.156,-0.007356148030242737,-0.09223288897731795,-0.06917807401512137,0.363,-6.453,-6.796
1621786868017.047,-0.005,-0.094,-0.068,0.363,-6.4493514242139485,-6.792351424213948
1621786868021.953,0.0,-0.094,-0.066,0.363,-6.443160368493214,-6.786160368493214
1621786868026.86,-0.002,-0.099,-0.066,0.363,-6.436967464144316,-6.779967464144316
1621786868030.004,-0.006485643194824583,-0.09579596914655387,-0.06535919382931078,0.363,-6.433,-6.776
1621786868031.766,-0.009,-0.094,-0.065,0.36511306277156325,-6.428662660626791,-6.776
1621786868036.672,-0.007,-0.106,-0.068,0.3709958552895134,-6.416587454932051,-6.776
1621786868041.576,-0.007,-0.098,-0.066,0.3768760130658531,-6.4045176573911435,-6.776
1621786868045.849,-0.013097088828066684,-0.09364493655138094,-0.066,0.382,-6.394,-6.776
1621786868046.482,-0.014,-0.093,-0.066,0.382,-6.394,-6.775240983909747
1621786868051.385,-0.01,-0.098,-0.066,0.382,-6.394,-6.769360073361692
1621786868056.29,-0.009,-0.094,-0.063,0.382,-6.394,-6.763476820171382
1621786868061.193,-0.016,-0.103,-0.059,0.382,-6.394,-6.757595909623327
1621786868061.69,-0.016101334528433424,-0.10249332735783288,-0.059,0.382,-6.394,-6.757
1621786868066.096,-0.017,-0.098,-0.059,0.3875645658608782,-6.399564565860878,-6.762286337567834
1621786868070.998,-0.019,-0.091,-0.054,0.3937556734089788,-6.4057556734089784,-6.76816788973853
1621786868075.901,-0.014,-0.086,-0.054,0.3999477059694129,-6.411947705969412,-6.774050320670942
1621786868077.526,-0.016320896637608967,-0.08765778331257783,-0.054,0.402,-6.414,-6.776
1621786868080.802,-0.021,-0.091,-0.054,0.402,-6.417931670984456,-6.784277202072539
1621786868085.704,-0.021,-0.091,-0.042,0.402,-6.423814674315322,-6.796662472242783
1621786868090.604,-0.021,-0.086,-0.047,0.402,-6.429695040710585,-6.809042190969652
1621786868093.358,-0.021,-0.08487615821460595,-0.04587615821460596,0.402,-6.433,-6.816
1621786868095.505,-0.021,-0.084,-0.045,0.3967099271964462,-6.433,-6.826580145607108
1621786868100.405,-0.017,-0.082,-0.042,0.38463612105133266,-6.433,-6.850727757897334
1621786868105.305,-0.012,-0.091,-0.044,0.3725629164610069,-6.433,-6.874874167077986
1621786868109.186,-0.008038032100488486,-0.0894152128401954,-0.0447923935799023,0.363,-6.433,-6.894
1621786868110.203,-0.007,-0.089,-0.045,0.3604934030831906,-6.433,-6.895285434316313
1621786868115.103,0.0,-0.087,-0.042,0.34841419378732463,-6.433,-6.901479900621885
1621786868120.0,0.003,-0.091,-0.047,0.3363428082033239,-6.433,-6.907670354767526
1621786868124.897,0.005,-0.093,-0.044,0.3242714226193232,-6.433,-6.913860808913167
1621786868125.007,0.0050449606220715785,-0.09313488186621473,-0.04402248031103578,0.324,-6.433,-6.914
1621786868129.795,0.007,-0.099,-0.045,0.31794591424073104,-6.421194532769426,-6.901891828481462
1621786868134.693,0.012,-0.098,-0.049,0.3117522921618868,-6.409116969715679,-6.889504584323773
1621786868139.589,0.016,-0.099,-0.051,0.30556144846108724,-6.397044824499121,-6.877122896922174
1621786868140.824,0.015495662578522286,-0.10000867484295543,-0.049486987735566854,0.304,-6.394,-6.874
1621786868144.486,0.014,-0.103,-0.045,0.304,-6.384969156195004,-6.860569514341289
1621786868149.381,0.009,-0.11,-0.045,0.304,-6.372897928308994,-6.842617431844144
1621786868154.276,0.009,-0.115,-0.045,0.304,-6.360827302479237,-6.824666244712711
1621786868156.639,0.005620798004987531,-0.11162079800498753,-0.045,0.304,-6.355,-6.816
1621786868159.171,0.002,-0.108,-0.045,0.304,-6.355,-6.828493250965251
1621786868164.065,-0.002,-0.117,-0.044,0.304,-6.355,-6.852641328185328
1621786868168.959,-0.003,-0.129,-0.04,0.304,-6.355,-6.876789405405406
1621786868172.447,-0.0044257060173635366,-0.12258432292186408,-0.04,0.304,-6.355,-6.894
1621786868173.852,-0.005,-0.12,-0.04,0.3005331860799184,-6.351444293415302,-6.8992446672124315
1621786868178.746,-0.005,-0.122,-0.03,0.288457468991829,-6.339058942555722,-6.91751305973031
1621786868183.638,-0.007,-0.127,-0.033,0.27638717350674225,-6.3266791523146075,-6.935773250335954
1621786868188.253,-0.011715846721884044,-0.13077267737750725,-0.028284153278115957,0.265,-6.315,-6.953
1621786868188.531,-0.012,-0.131,-0.028,0.26431361157037564,-6.315351994066474,-6.95490076795896
1621786868193.422,-0.019,-0.131,-0.028,0.2522406477432514,-6.321543257567564,-6.988333590864842
1621786868198.314,-0.021,-0.124,-0.023,0.2401658760449341,-6.327735448182085,-7.021771420183259
1621786868203.205,-0.019,-0.138,-0.019,0.22809291221780986,-6.333926711683175,-7.0552042430891415
1621786868204.053,-0.018133007139647512,-0.1385201957162115,-0.018479804283788506,0.226,-6.335,-7.061
1621786868208.095,-0.014,-0.141,-0.016,0.19069008577389693,-6.350096267676378,-7.065861509929681
1621786868212.985,-0.007,-0.141,-0.019,0.1479709759678541,-6.368360234912294,-7.0717431264971795
1621786868217.875,-0.009,-0.148,-0.017,0.10525399891816706,-6.386623290317595,-7.07762444942431
1621786868219.85,-0.005364044943820224,-0.148,-0.017807990012484395,0.088,-6.394,-7.08
1621786868222.764,0.0,-0.148,-0.019,0.04831940557007437,-6.397691218086504,-7.094580311441693
1621786868227.653,0.01,-0.162,-0.017,-0.018261539888969655,-6.403884794408276,-7.119044937912691
1621786868232.541,0.021,-0.169,-0.023,-0.08482586172236226,-6.410076824346266,-7.1435034561677515
1621786868235.638,0.03113533083645443,-0.1747011235955056,-0.028067665418227215,-0.127,-6.414,-7.159
1621786868237.43,0.037,-0.178,-0.031,-0.15594500804156874,-6.402762526289743,-7.150032722998886
1621786868242.317,0.049,-0.201,-0.04,-0.2348812786094272,-6.372116680069281,-7.125577956822962
1621786868247.204,0.058,-0.209,-0.045,-0.3138214926388717,-6.34146930285785,-7.101121968947173
1621786868251.425,0.06490972673227757,-0.21504601089074288,-0.05450087425688165,-0.382,-6.315,-7.08
1621786868252.091,0.066,-0.216,-0.056,-0.38989158918985817,-6.310062481629875,-7.072994632056062
1621786868256.977,0.072,-0.23,-0.065,-0.44778542146868183,-6.273840137369863,-7.021602246182881
1621786868261.863,0.084,-0.253,-0.073,-0.5056792537475054,-6.23761779310985,-6.9702098603097005
1621786868266.748,0.089,-0.269,-0.082,-0.5635615147811828,-6.201402688612843,-6.9188277462370245
1621786868267.207,0.08871812684292069,-0.2694697885951322,-0.08331540806637014,-0.569,-6.198,-6.914
1621786868271.633,0.086,-0.274,-0.096,-0.5964945371258782,-6.1733110278869665,-6.831235832121081
1621786868276.518,0.075,-0.288,-0.108,-0.6268402921786499,-6.146061778451825,-6.739888916401003
1621786868281.401,0.068,-0.293,-0.119,-0.6571723977838992,-6.1188247856634375,-6.648583088303568
1621786868282.983,0.06346604028187317,-0.29364770853116096,-0.12126697985906341,-0.667,-6.11,-6.619
1621786868286.286,0.054,-0.295,-0.126,-0.6628124274549254,-6.105812427454926,-6.6068560396192835
1621786868291.168,0.038,-0.295,-0.133,-0.6566228429931131,-6.099622842993113,-6.588906244680028
1621786868296.051,0.019,-0.293,-0.143,-0.6504320204286931,-6.093432020428693,-6.57095285924321
1621786868298.758,0.01234753262336883,-0.2957718614069296,-0.1468806059697015,-0.647,-6.09,-6.561
1621786868300.934,0.007,-0.298,-0.15,-0.6523821630409538,-6.123811024231633,-6.582666656344353
1621786868305.816,0.0,-0.297,-0.152,-0.6644568553069599,-6.19966486026167,-6.631275032902376
1621786868310.697,-0.012,-0.297,-0.162,-0.6765297360068128,-6.275507315940234,-6.679876116745374
1621786868314.526,-0.012,-0.29935280292043803,-0.16356853528029205,-0.686,-6.335,-6.718
1621786868315.579,-0.012,-0.3,-0.164,-0.663080914469812,-6.36446739568167,-6.735640345714197
1621786868320.459,-0.017,-0.298,-0.169,-0.5568902140578049,-6.500998296211393,-6.81737312970478
1621786868325.338,-0.023,-0.295,-0.162,-0.45072076453641463,-6.637501874167467,-6.899089557324742
1621786868330.219,-0.024,-0.297,-0.154,-0.3445035005111366,-6.7740669279142525,-6.9808427867786005
1621786868330.288,-0.023830064051240992,-0.29704248398718974,-0.1537450960768615,-0.343,-6.776,-6.982
1621786868335.098,-0.012,-0.3,-0.136,-0.21145449193635843,-6.880992238454508,-7.059828548854359
1621786868339.977,-0.014,-0.291,-0.127,-0.07801268803544592,-6.987497993772173,-7.138779036081117
1621786868344.855,-0.005,-0.281,-0.11,0.055395730375373764,-7.093977102666192,-7.217709770871741
1621786868346.047,0.0001312550040032034,-0.2797782726180945,-0.10731219975980785,0.088,-7.12,-7.237
1621786868349.734,0.016,-0.276,-0.099,0.14767202318229714,-7.177331943841815,-7.232553849253084
1621786868354.611,0.049,-0.271,-0.091,0.22661169652265542,-7.253175943717846,-7.226672069670861
1621786868359.489,0.089,-0.257,-0.072,0.3055632244467861,-7.3290313332920105,-7.220789406805926
1621786868361.802,0.10560274384137792,-0.257,-0.0625127178049269,0.343,-7.365,-7.218
1621786868364.365,0.124,-0.257,-0.052,0.3493464471726191,-7.363372705853175,-7.142981739831349
1621786868369.242,0.157,-0.257,-0.033,0.36142271205357146,-7.360276227678572,-7.000234095982143
1621786868374.117,0.187,-0.243,-0.016,0.373494140625,-7.357180989583334,-6.857543619791667
1621786868377.552,0.2074301021430002,-0.236659623472862,-0.0012057881033446828,0.382,-7.355,-6.757
1621786868378.993,0.216,-0.234,0.005,0.38474528652939716,-7.3316650645001245,-6.68873387496899
1621786868383.869,0.241,-0.213,0.021,0.3940351649714711,-7.252701097742496,-6.457725564376085
1621786868388.743,0.236,-0.206,0.044,0.4033213222525428,-7.173768760853386,-6.226809786653436
1621786868393.298,0.20982645290581162,-0.19291322645290582,0.07017354709418837,0.412,-7.1,-6.011
1621786868393.616,0.208,-0.192,0.072,0.41139418379216747,-7.0966276231097325,-6.0009030632027915
1621786868398.491,0.164,-0.168,0.106,0.4021031407522295,-7.044907483520745,-5.8460523458704925
1621786868403.364,0.127,-0.141,0.131,0.39281582008530436,-6.993208065141528,-5.691263668088406
1621786868408.237,0.089,-0.12,0.161,0.38352849941837924,-6.941508646762311,-5.536474990306321
1621786868409.039,0.08356752693560511,-0.1163783512904034,0.16346930593836131,0.382,-6.933,-5.511
1621786868413.109,0.056,-0.098,0.176,0.36699829325058186,-6.928085647788984,-5.526260356865787
1621786868417.982,0.031,-0.073,0.194,0.34903584173778124,-6.922201396431342,-5.544532505818464
1621786868422.853,0.012,-0.052,0.215,0.33108058960434444,-6.916319503491078,-5.562797331264546
1621786868424.774,0.007267842822774659,-0.044507417802726545,0.22170388933440258,0.324,-6.914,-5.57
1621786868427.724,0.0,-0.033,0.232,0.27974931338929665,-6.899187270159977,-5.608625599329682
1621786868432.595,-0.021,-0.014,0.25,0.20669027262711998,-6.874731065837044,-5.672397473893277
1621786868437.466,-0.023,0.003,0.264,0.133627569941192,-6.8502736357006535,-5.736172544881841
1621786868440.508,-0.0304973674973675,0.012996489996489995,0.26899824499824504,0.088,-6.835,-5.776
1621786868442.335,-0.035,0.019,0.272,0.03107562138077717,-6.8281458401254405,-5.789708319749119
1621786868447.205,-0.058,0.028,0.286,-0.12067200720351481,-6.80987418688774,-5.826251626224519
1621786868452.073,-0.077,0.037,0.291,-0.27235117134739883,-6.791610777327558,-5.862778445344884
1621786868456.234,-0.0957961700421095,0.04554371365550431,0.29698059955885303,-0.402,-6.776,-5.894
1621786868456.943,-0.099,0.047,0.298,-0.4223408632199969,-6.776,-5.903741965533302
1621786868461.81,-0.112,0.044,0.307,-0.5619260984319205,-6.776,-5.970594317652538
1621786868466.679,-0.122,0.038,0.311,-0.7015673497904052,-6.776,-6.0374734979040525
1621786868471.545,-0.129,0.056,0.307,-0.8411245769290483,-6.776,-6.10431243595715
1621786868471.959,-0.12874478330658107,0.055404494382022475,0.30734028892455856,-0.853,-6.776,-6.11
1621786868476.412,-0.126,0.049,0.311,-0.9309015049154358,-6.759569864417835,-6.168072030936962
1621786868481.279,-0.119,0.044,0.307,-1.0160422121790988,-6.741612915249499,-6.231540558169874
1621786868486.145,-0.113,0.054,0.298,-1.1011658357794032,-6.723659569181072,-6.294996350308283
1621786868487.679,-0.10921638982285342,0.05179289406333116,0.2948469915190445,-1.128,-6.718,-6.315
1621786868491.01,-0.101,0.047,0.288,-1.1508951072854678,-6.705492487686643,-6.323479669364988
1621786868495.875,-0.091,0.038,0.279,-1.184333307437734,-6.687225322788645,-6.335864187939902
1621786868500.74,-0.089,0.037,0.274,-1.2177715075900002,-6.668958157890648,-6.348248706514815
1621786868503.392,-0.09009049841891281,0.033728504743261556,0.2674570094865231,-1.236,-6.659,-6.355
1621786868505.604,-0.091,0.031,0.262,-1.223469074407907,-6.661675141418536,-6.3521840616646985
1621786868510.469,-0.094,0.03,0.257,-1.1959079536271524,-6.667558976191956,-6.345990551376889
1621786868515.332,-0.098,0.012,0.248,-1.1683578976813576,-6.673440448809598,-6.339799527568845
1621786868519.102,-0.10420191776695617,0.012,0.24489904111652191,-1.147,-6.678,-6.335
1621786868520.195,-0.106,0.012,0.244,-1.1388570895580394,-6.679391950502899,-6.3391062539835525
1621786868525.057,-0.105,0.007,0.237,-1.1026368709872993,-6.685583440856872,-6.357371150527772
1621786868529.92,-0.103,0.007,0.23,-1.0664075582570305,-6.691776485768029,-6.375640633015686
1621786868534.782,-0.094,0.012,0.216,-1.0301855208543846,-6.697968287033439,-6.393906446748644
1621786868534.807,-0.09398463161066747,0.011974386017779117,0.21595901762844658,-1.03,-6.698,-6.394
1621786868539.643,-0.091,0.007,0.208,-0.9545318622877403,-6.704160664303042,-6.375826040306027
1621786868544.504,-0.08,0.012,0.197,-0.878678935746719,-6.710352739939044,-6.357559417179822
1621786868549.365,-0.07,0.007,0.192,-0.8028221994153139,-6.716545126578342,-6.339291876593892
1621786868550.507,-0.07,0.010290559212179069,0.19082480028136461,-0.785,-6.718,-6.335
1621786868554.224,-0.07,0.021,0.187,-0.7383505715841046,-6.699292868807839,-6.286219379422972
1621786868559.084,-0.066,0.026,0.185,-0.6773585504316043,-6.674834139513181,-6.222440920755891
1621786868563.943,-0.068,0.037,0.182,-0.6163757212847033,-6.650379096352749,-6.15867207403375
1621786868566.204,-0.0698613204703045,0.03513867952969551,0.18106933976484774,-0.588,-6.639,-6.129
1621786868568.802,-0.072,0.033,0.18,-0.5815424796937727,-6.622773410512558,-6.103004341331341
1621786868573.66,-0.082,0.045,0.176,-0.5694673233124825,-6.5924307098621355,-6.054394096411788
1621786868578.518,-0.096,0.058,0.18,-0.557391560078424,-6.56208648429963,-6.005781408520836
1621786868581.894,-0.10573117522871217,0.06981642706343621,0.17860983211018397,-0.549,-6.541,-5.972
1621786868583.375,-0.11,0.075,0.178,-0.549,-6.544681627190389,-5.966430358865822
1621786868588.233,-0.133,0.079,0.182,-0.549,-6.556758286905911,-5.948160540321828
1621786868593.089,-0.145,0.094,0.185,-0.549,-6.568830698123191,-5.929897148993121
1621786868597.582,-0.15980084447572132,0.10232547501759323,0.18685010555946516,-0.549,-6.58,-5.913
1621786868597.946,-0.161,0.103,0.187,-0.5517390593620102,-6.583644341693522,-5.917108589043016
1621786868602.801,-0.175,0.113,0.188,-0.5882708732271574,-6.632250229632743,-5.971906309840736
1621786868607.657,-0.185,0.119,0.195,-0.62481003534009,-6.6808658944779165,-6.026715053010135
1621786868612.511,-0.195,0.131,0.197,-0.6613345009574518,-6.729462005511186,-6.0815017514361775
1621786868613.264,-0.1959305038720708,0.13022458010660767,0.19777541989339234,-0.667,-6.737,-6.09
1621786868617.366,-0.201,0.126,0.202,-0.7156658050049053,-6.7935151283927935,-6.133694566859242
1621786868622.219,-0.197,0.134,0.206,-0.7732410265194575,-6.86037667595808,-6.185388448541663
1621786868627.074,-0.194,0.129,0.204,-0.830839419468365,-6.927265132285844,-6.237103134683962
1621786868628.942,-0.19130517258729998,0.12823004931065715,0.20553990137868572,-0.853,-6.953,-6.257
1621786868631.926,-0.187,0.127,0.208,-0.8790829426332923,-6.958521206834785,-6.2943157427454395
1621786868636.78,-0.175,0.129,0.202,-0.9215096026541643,-6.967502032678619,-6.355013738103768
1621786868641.631,-0.154,0.126,0.201,-0.9639106555972649,-6.976477438046136,-6.415675098518715
1621786868644.616,-0.14292851033858228,0.12169442068722644,0.19669442068722645,-0.99,-6.982,-6.453
1621786868646.484,-0.136,0.119,0.194,-0.9830866970976335,-6.978543348548817,-6.441318901992553
1621786868651.335,-0.117,0.126,0.194,-0.9651325304958793,-6.9695662652479395,-6.41098255152752
1621786868656.186,-0.106,0.122,0.192,-0.9471783638941252,-6.960589181947062,-6.380646201062488
1621786868660.287,-0.09585270576390637,0.122,0.1903087842939844,-0.932,-6.953,-6.355
1621786868661.036,-0.094,0.122,0.19,-0.9273155868647041,-6.950179792092016,-6.345631173729409
1621786868665.886,-0.096,0.129,0.194,-0.8969730530056264,-6.931912348238082,-6.284946106011253
1621786868670.736,-0.094,0.134,0.19,-0.8666305191465487,-6.913644904384147,-6.224261038293097
1621786868675.585,-0.094,0.129,0.202,-0.8362956220874959,-6.895382058195533,-6.163591244174992
1621786868675.952,-0.0943783606887524,0.1293783606887524,0.20230268855100192,-0.834,-6.894,-6.159
1621786868680.434,-0.099,0.134,0.206,-0.834,-6.910884602194788,-6.116645404663923
1621786868685.282,-0.11,0.133,0.216,-0.834,-6.929146901109864,-6.070834892131188
1621786868690.131,-0.117,0.133,0.223,-0.834,-6.947413798478614,-6.025012844494326
1621786868691.614,-0.12128328212360853,0.13758923084672342,0.22575353850803406,-0.834,-6.953,-6.011
1621786868694.978,-0.131,0.148,0.232,-0.8675177059456425,-6.963527997380362,-6.03227085185012
1621786868699.826,-0.143,0.143,0.239,-0.9158202741263975,-6.978699957898677,-6.06292440473406
1621786868704.672,-0.143,0.14,0.248,-0.9641058146606165,-6.993866569989552,-6.093567151611546
1621786868707.271,-0.14675333702714954,0.14268095501939254,0.24960857301163553,-0.99,-7.002,-6.11
1621786868709.519,-0.15,0.145,0.251,-1.0245916955545713,-7.029560863124781,-6.16919960905884
1621786868714.364,-0.143,0.15,0.264,-1.0991434112670464,-7.088959791090818,-6.296786081883848
1621786868719.21,-0.136,0.15,0.267,-1.1737101537803705,-7.148370691629889,-6.424398271307057
1621786868723.258,-0.12279918512621177,0.15,0.27088259260993774,-1.236,-7.198,-6.531
1621786868724.423,-0.119,0.15,0.272,-1.2487255261443355,-7.21434073243534,-6.557246397672691
1621786868729.411,-0.101,0.159,0.279,-1.303206351611388,-7.284299065137351,-6.669613100198488
1621786868734.398,-0.08,0.15,0.286,-1.3576791769572265,-7.354247124956439,-6.78196330247428
1621786868739.371,-0.05407762713523567,0.15897312906857228,0.2899880573638099,-1.412,-7.424,-6.894
1621786868739.386,-0.054,0.159,0.29,-1.4119639561838098,-7.424235671105859,-6.894226429101708
1621786868744.373,-0.026,0.168,0.295,-1.3998940048179627,-7.5031545838825515,-6.970050482553823
1621786868749.362,-0.003,0.171,0.297,-1.3878193263942549,-7.582104404345257,-7.045904231625835
1621786868754.349,0.023,0.164,0.302,-1.3757493750284078,-7.661023317121949,-7.1217282850779515
1621786868755.485,0.03097136563876652,0.16195022026431719,0.3031387665198238,-1.373,-7.679,-7.139
1621786868759.337,0.058,0.155,0.307,-1.3823236203291207,-7.728247840712792,-7.190638512592054
1621786868764.324,0.094,0.148,0.311,-1.3943952177470678,-7.792010637330667,-7.257496590599145
1621786868769.312,0.143,0.134,0.311,-1.4064691790162742,-7.8557859199321145,-7.324367760705519
1621786868771.597,0.16545023743085133,0.1335418318891663,0.3123745043325011,-1.412,-7.885,-7.355
1621786868774.299,0.192,0.133,0.314,-1.4284365443772635,-7.894727750753891,-7.356677198405843
1621786868779.287,0.251,0.117,0.307,-1.4587776211907684,-7.912684714582292,-7.35977322665212
1621786868784.274,0.325,0.101,0.304,-1.4891112727493143,-7.930637283872043,-7.362868497219318
1621786868787.708,0.37870016151926,0.09273843668934462,0.29436150947090206,-1.51,-7.943,-7.365
1621786868789.262,0.403,0.089,0.29,-1.5223451776649746,-7.941167512690355,-7.317644670050762
1621786868794.249,0.473,0.094,0.278,-1.5619641791044776,-7.935286567164179,-7.165668656716418
1621786868799.237,0.557,0.089,0.265,-1.6015909387074778,-7.9294044700356086,-7.013662883551784
1621786868803.82,0.6277614431879376,0.09083795956332305,0.24937734371175405,-1.638,-7.924,-6.874
1621786868804.224,0.634,0.091,0.248,-1.6419369535902057,-7.914897362081244,-6.851882846709798
1621786868809.212,0.702,0.094,0.223,-1.6905363263079742,-7.8025306595554484,-6.578859619085137
1621786868814.199,0.759,0.096,0.208,-1.739128562553978,-7.690180457279656,-6.305876482977014
1621786868819.187,0.806,0.094,0.188,-1.787730314095668,-7.577808254670526,-6.0328398915135075
1621786868819.933,0.8100393596710237,0.09474802956870808,0.1844094580702012,-1.795,-7.561,-5.992
1621786868824.174,0.833,0.099,0.164,-1.8310563459236702,-7.449935927154827,-5.739079208520825
1621786868829.162,0.84,0.103,0.152,-1.873464221323273,-7.3193072890626185,-5.4416049876520765
1621786868834.149,0.831,0.108,0.134,-1.915861718406739,-7.1887106192142785,-5.144203566504553
1621786868836.047,0.8214862708629044,0.10876109833096764,0.13019450834516177,-1.932,-7.139,-5.031
1621786868839.137,0.806,0.11,0.124,-1.9433147255811134,-7.09585062278389,-4.92571551959269
1621786868844.124,0.764,0.113,0.113,-1.961576885777495,-7.026206791526502,-4.755784571324666
1621786868849.112,0.71,0.12,0.099,-1.9798426220565506,-6.956549322665697,-4.585820347304301
1621786868852.159,0.6684549860478778,0.12549860478778088,0.099,-1.991,-6.914,-4.482
1621786868854.099,0.642,0.129,0.099,-1.9720931945265265,-6.9388076555893985,-4.523305950811475
1621786868859.087,0.564,0.136,0.113,-1.9234879301722962,-7.002582715824885,-4.62949452198027
1621786868864.074,0.473,0.136,0.124,-1.8748898031549757,-7.066348411146975,-4.735667500113652
1621786868868.27,0.40065493612647446,0.12758778327052028,0.15512520189907494,-1.834,-7.12,-4.825
1621786868869.062,0.387,0.126,0.161,-1.8209720849877247,-7.132978753068833,-4.901151850392508
1621786868874.048,0.29,0.129,0.178,-1.7389532476585943,-7.214688085351439,-5.380575167459764
1621786868879.036,0.208,0.124,0.204,-1.6569062983057012,-7.296425423574698,-5.860162807262146
1621786868884.023,0.147,0.105,0.22,-1.5748713969629922,-7.378150759251963,-6.339680023035189
1621786868884.38,0.14485326219959865,0.10299637805295873,0.2201431158533601,-1.569,-7.384,-6.374
1621786868889.011,0.117,0.077,0.222,-1.645164563099441,-7.468786966469189,-6.819490840770315
1621786868893.998,0.112,0.044,0.222,-1.7271833058076638,-7.5600908498613615,-7.299223109441052
1621786868898.986,0.138,0.0,0.218,-1.8092181093652935,-7.651412612312308,-7.779049318929075
1621786868900.493,0.1531081954371879,-0.007251933809850192,0.21316537746009986,-1.834,-7.679,-7.924
1621786868903.973,0.188,-0.024,0.202,-1.9165116758345837,-7.691527950781167,-8.031999575699716
1621786868908.961,0.251,-0.054,0.178,-2.0347799548423273,-7.709484914609568,-8.186800988013516
1621786868913.948,0.326,-0.084,0.138,-2.1530250791774637,-7.7274383628070495,-8.341572093164219
1621786868916.604,0.36062444302991725,-0.09039220486706165,0.12308485531018949,-2.216,-7.737,-8.424
1621786868918.934,0.391,-0.096,0.11,-2.1778164790034404,-7.644867792140876,-8.304821131434979
1621786868923.922,0.429,-0.099,0.087,-2.096076378680649,-7.44763883795293,-8.049692939518389
1621786868928.91,0.45,-0.105,0.052,-2.0143402791458924,-7.250419537181566,-7.794577234909906
1621786868932.714,0.45533969745924513,-0.09813467469525627,0.02530151270377442,-1.952,-7.1,-7.6
1621786868933.897,0.457,-0.096,0.017,-1.902291501227533,-7.04383013063377,-7.511449852999121
1621786868938.885,0.44,-0.08,-0.019,-1.6926745067135451,-6.806966023095808,-7.138040554056921
1621786868943.871,0.417,-0.051,-0.054,-1.4831395902161064,-6.570194662504168,-6.764777467947747
1621786868948.824,0.37727998042094957,-0.01922398433675966,-0.08875501713166911,-1.275,-6.335,-6.394
1621786868948.859,0.377,-0.019,-0.089,-1.2728111028598275,-6.3340009093251295,-6.39291638755437
1621786868953.846,0.321,0.026,-0.112,-0.9601355652213448,-6.191284649076277,-6.238126517436309
1621786868958.833,0.255,0.056,-0.131,-0.6474600275828623,-6.048568388827425,-6.083336647318249
1621786868963.821,0.183,0.093,-0.143,-0.3347232620523468,-5.905824181986269,-5.928516466362548
1621786868964.933,0.16582562922338653,0.09902218196063069,-0.14411521888159826,-0.265,-5.874,-5.894
1621786868968.807,0.106,0.12,-0.148,-0.08345262631467282,-5.796331388476343,-5.981287015427515
1621786868973.795,0.044,0.164,-0.15,0.15031521837965633,-5.696322098626982,-6.093681356651411
1621786868978.782,-0.007,0.202,-0.145,0.3840372957900161,-5.59633238868851,-6.20605369320765
1621786868981.043,-0.021051735108413683,0.21741158044148598,-0.14182702755616466,0.49,-5.551,-6.257
1621786868983.77,-0.038,0.236,-0.138,0.5846437990723619,-5.438070815775912,-6.399727589656531
1621786868988.756,-0.059,0.264,-0.133,0.7576885894443266,-5.231593400430473,-6.6606878012550395
1621786868993.744,-0.061,0.295,-0.12,0.9307926910601145,-5.025045214781581,-6.921737457180101
1621786868997.15,-0.0637318744798551,0.3154890585989132,-0.1097554707005434,1.049,-4.884,-7.1
1621786868998.731,-0.065,0.325,-0.105,1.07697514209928,-4.85121509662751,-7.094208654793482
1621786869003.719,-0.063,0.333,-0.094,1.1652333459643804,-4.747782675255779,-7.075937658203865
1621786869008.705,-0.059,0.335,-0.077,1.2534569912845774,-4.6443907540735125,-7.057673815839333
1621786869013.257,-0.07360134109930987,0.335,-0.060573491263276394,1.334,-4.55,-7.041
1621786869013.693,-0.075,0.335,-0.059,1.3387639659301023,-4.559040708071898,-7.025084022915341
1621786869018.679,-0.122,0.332,-0.04,1.3932374890121548,-4.6624165984662485,-6.843092934436665
1621786869023.667,-0.173,0.328,-0.01,1.4477350186414477,-4.76583804674002,-6.661021642266073
1621786869028.654,-0.22,0.323,0.017,1.5022218786941894,-4.869239247067382,-6.478985996180777
1621786869029.366,-0.22742166315892517,0.3249981400812491,0.02156717732856933,1.51,-4.884,-6.453
1621786869033.642,-0.272,0.337,0.049,1.4372674779867542,-5.120778867283998,-6.507682115090251
1621786869038.628,-0.307,0.344,0.068,1.3524633920858402,-5.39685640240668,-6.571439931497507
1621786869043.616,-0.328,0.342,0.082,1.2676219329221163,-5.67305560523165,-6.635225846051256
1621786869045.475,-0.32986395456993195,0.3453551182258775,0.08349116365594555,1.236,-5.776,-6.659
1621786869048.603,-0.333,0.351,0.086,1.0511349843887356,-5.922610385279942,-6.799784807056898
1621786869053.59,-0.321,0.353,0.075,0.7563927369729304,-6.156360802085543,-7.024247127830489
1621786869058.577,-0.29,0.346,0.045,0.4616649186092334,-6.390099775682803,-7.248698460092759
1621786869061.583,-0.2707110197287903,0.33514994859744457,0.02631380036226563,0.284,-6.531,-7.384
1621786869063.564,-0.258,0.328,0.014,0.20442204032135816,-6.582904016977413,-7.415363801728058
1621786869068.551,-0.225,0.309,-0.04,0.0040844777929361364,-6.713572411702289,-7.494322191905412
1621786869073.539,-0.192,0.291,-0.096,-0.19629231468849484,-6.844266393815371,-7.573296043656208
1621786869077.689,-0.18034727254921162,0.28101194789932427,-0.14677259817843502,-0.363,-6.953,-7.639
1621786869078.525,-0.178,0.279,-0.157,-0.3976120667444645,-6.9825266356485765,-7.619177197156843
1621786869083.513,-0.18,0.283,-0.213,-0.6041421881393693,-7.158712001576164,-7.5008945789066885
1621786869088.499,-0.192,0.29,-0.269,-0.8105914402194505,-7.334828380037282,-7.382658275616446
1621786869093.487,-0.209,0.298,-0.333,-1.0171215616143554,-7.51101374596487,-7.2643756573662905
1621786869093.798,-0.20981098815003427,0.2985614533346391,-0.33680540593477626,-1.03,-7.522,-7.257
1621786869098.473,-0.222,0.307,-0.394,-1.135349116372124,-7.573078359453151,-7.285441359240959
1621786869103.461,-0.22,0.311,-0.452,-1.2477570856952318,-7.6275791930643555,-7.3157884143199245
1621786869108.448,-0.206,0.309,-0.504,-1.360143047682561,-7.682069356452151,-7.346129528024493
1621786869109.906,-0.19722925539726832,0.30753820923287806,-0.5183255495177951,-1.393,-7.698,-7.355
1621786869113.435,-0.176,0.304,-0.553,-1.3005503925312965,-7.566993210269468,-7.370116168045831
1621786869118.422,-0.129,0.283,-0.588,-1.1699057621775635,-7.381861719862993,-7.391477493861963
1621786869123.409,-0.082,0.278,-0.627,-1.039267527507502,-7.196739292534327,-7.412837773938347
1621786869126.015,-0.0673687766191805,0.27225201938610666,-0.639541048612131,-0.971,-7.1,-7.424
1621786869128.396,-0.054,0.267,-0.651,-0.8636698397780843,-6.992669839778084,-7.322435509542072
1621786869133.383,-0.038,0.244,-0.665,-0.638874065877431,-6.767874065877431,-7.109715541677404
1621786869138.37,-0.04,0.227,-0.663,-0.4140782919767776,-6.543078291976777,-6.896995573812736
1621786869142.121,-0.04676960736316459,0.22173474982864977,-0.6577347498286498,-0.245,-6.374,-6.737
