time,gyro_x,gyro_y,gyro_z,acc_x,acc_y,acc_z
1621787282443.429,,,,1.775,-5.835,-7.826
1621787282462.28,,,,1.412,-5.492,-7.718
1621787282481.437,,,,0.549,-4.825,-7.639
1621787282481.645,0.449,1.428,1.337,0.5376820371299549,-4.82070366281987,-7.643093276467637
1621787282487.638,0.426,1.412,1.333,0.21159983692925238,-4.696921751128952,-7.761024799297542
1621787282493.659,0.394,1.4,1.325,-0.1160100225790267,-4.572559934771701,-7.879508818364275
1621787282499.711,0.365,1.37,1.3,-0.4453069493226294,-4.447557701956849,-7.998602985449072
1621787282500.9,0.3618711853517507,1.3635468197879859,1.2994133472534533,-0.51,-4.423,-8.022
1621787282505.791,0.349,1.337,1.297,-0.6536893724579479,-4.397809376563723,-8.19833436405394
1621787282511.901,0.33,1.288,1.299,-0.8331827454804398,-4.366341844262821,-8.418607090160254
1621787282517.525,0.314,1.244,1.304,-0.9984032897522421,-4.337376525231271,-8.621364323381107
1621787282519.928,0.3208280078040321,1.2166879687838716,1.30186624756124,-1.069,-4.325,-8.708
1621787282523.156,0.33,1.18,1.299,-1.1054989212730317,-4.2780475041876045,-8.75849608040201
1621787282528.792,0.372,1.117,1.279,-1.1692243484087101,-4.196070619765494,-8.846659899497487
1621787282534.435,0.429,1.059,1.26,-1.2330298291457287,-4.113990753768844,-8.934934472361808
1621787282538.147,0.4782910867121985,1.0182527016512493,1.227796490014697,-1.275,-4.06,-8.993
1621787282540.083,0.504,0.997,1.211,-1.304014648737431,-4.002923738432571,-8.904685339244462
1621787282545.739,0.606,0.93,1.129,-1.3887791338950686,-3.8361790030312335,-8.646679570552967
1621787282551.399,0.712,0.867,1.047,-1.47360216058862,-3.6693191074552325,-8.388495613390843
1621787282556.43,0.7643876680455015,0.8430259824198552,0.9946123319544984,-1.549,-3.521,-8.159
1621787282557.065,0.771,0.84,0.988,-1.4339721401772172,-3.5097878981400177,-8.103700806258482
1621787282562.739,0.763,0.86,0.972,-0.4061511135946356,-3.409603177137383,-7.6095798674862305
1621787282568.417,0.682,0.915,1.002,0.6223775045900855,-3.3093494851121577,-7.115118756818605
1621787282574.103,0.55,0.984,1.066,1.6523655304542184,-3.2089535403528378,-6.619956041616774
1621787282574.78,0.5316767356045654,0.9912579164163734,1.0740907920707115,1.775,-3.197,-6.561
1621787282579.793,0.396,1.045,1.134,1.6148731548163768,-3.186379341901086,-6.23230424806695
1621787282585.491,0.225,1.065,1.183,1.4328636851947638,-3.17430728524251,-5.858689571479728
1621787282591.194,0.049,1.04,1.178,1.2506904468229023,-3.1622243663709066,-5.484738723325243
1621787282593.188,-0.012458525739695567,1.0120643064819566,1.1584450145373695,1.187,-3.158,-5.354
1621787282596.904,-0.127,0.96,1.122,0.8299592308708867,-3.207281683626272,-5.389603502048368
1621787282602.618,-0.286,0.855,1.054,0.28096887802299464,-3.2830578168362625,-5.444347892163341
1621787282608.34,-0.442,0.784,1.009,-0.2688190167834015,-3.358944033302498,-5.499171811814457
1621787282611.662,-0.5168306688834889,0.756736112887411,1.0182813232723706,-0.588,-3.403,-5.531
1621787282614.067,-0.571,0.737,1.025,-0.5206666491050143,-3.6497592165746875,-5.655676975356611
1621787282619.8,-0.663,0.702,1.063,-0.360139839047456,-4.238048219907011,-5.952914479143343
1621787282625.54,-0.71,0.702,1.105,-0.1994216245406531,-4.827038670758531,-6.2505063946366715
1621787282630.198,-0.7132432110832518,0.7084864221665037,1.1187836471038206,-0.069,-5.305,-6.492
1621787282631.285,-0.714,0.71,1.122,-0.07127912105221706,-5.36174427030007,-6.574515869890526
1621787282637.038,-0.674,0.744,1.141,-0.08334279751122313,-5.662098881625581,-7.011282822714027
1621787282642.795,-0.604,0.777,1.14,-0.09541415294951563,-5.962644679845632,-7.448327793967079
1621787282648.559,-0.518,0.799,1.133,-0.10750086634638104,-6.263572851854769,-7.885928802079231
1621787282648.797,-0.5133382838283829,0.7998250825082509,1.1327112211221122,-0.108,-6.276,-7.904
1621787282654.329,-0.405,0.819,1.126,0.18840142844061902,-6.531794432744254,-8.075616427067118
1621787282660.105,-0.288,0.846,1.122,0.4978707339725562,-6.798866443418316,-8.25479915497011
1621787282665.886,-0.166,0.874,1.115,0.80761473962353,-7.066175520295107,-8.434140934242023
1621787282667.461,-0.13416940789473686,0.8816175775978408,1.1136397182861,0.892,-7.139,-8.483
1621787282671.675,-0.049,0.902,1.11,1.18566157797304,-7.229461267697443,-8.429893385132845
1621787282677.469,0.063,0.937,1.119,1.589414348290877,-7.353835684301098,-8.356877558470002
1621787282683.269,0.161,0.974,1.134,1.99359244387662,-7.478341120642454,-8.283784814747216
1621787282686.188,0.2057451326689374,0.9905908918884824,1.1420440687944156,2.197,-7.541,-8.247
1621787282689.075,0.25,1.007,1.15,2.2647963182048647,-7.512405634498629,-8.215330971541492
1621787282694.888,0.337,1.033,1.168,2.401306283233011,-7.454830002990159,-8.151564411913832
1621787282700.699,0.414,1.052,1.178,2.537770381830237,-7.397273716506975,-8.087819277421703
1621787282704.967,0.4646256767532631,1.0497988836194232,1.1868044655223067,2.638,-7.355,-8.041
1621787282706.516,0.483,1.049,1.19,2.6146325617584125,-7.313860143940868,-8.011214744213188
1621787282712.339,0.548,1.052,1.199,2.526793827400635,-7.159214484860274,-7.8992512870388385
1621787282718.167,0.611,1.052,1.19,2.438881436815146,-7.004439149322441,-7.787193944109447
1621787282723.794,0.6582532217573223,1.0510356485355647,1.1851782426778243,2.354,-6.855,-7.679
1621787282724.002,0.66,1.051,1.185,2.3516210039169048,-6.851222242331011,-7.668624933748724
1621787282729.843,0.703,1.066,1.171,2.2848164484144937,-6.745139082435979,-7.377282844474321
1621787282735.688,0.724,1.075,1.162,2.217967216929302,-6.638984978734956,-7.085745918275011
1621787282741.54,0.724,1.091,1.162,2.151037010225319,-6.5327022893855755,-6.793855850149308
1621787282742.68,0.7220540968575477,1.0946972159706594,1.161027048428774,2.138,-6.512,-6.737
1621787282747.398,0.714,1.11,1.157,2.08670108114377,-6.406911923508112,-6.522092393335309
1621787282753.261,0.686,1.124,1.159,2.0229523858613714,-6.276319936084945,-6.255028684458075
1621787282759.132,0.642,1.134,1.147,1.9591160908727754,-6.145548496836462,-5.987597992345656
1621787282761.626,0.6161016209476309,1.1369719451371572,1.1440280548628428,1.932,-6.09,-5.874
1621787282765.006,0.581,1.141,1.14,1.8464700812987247,-5.962683114781469,-5.82687852711884
1621787282770.888,0.513,1.14,1.134,1.6976375207099832,-5.741136101514237,-5.744881378353733
1621787282776.774,0.447,1.134,1.129,1.5486999396360182,-5.519432758377108,-5.662826370069739
1621787282780.635,0.39524848811200397,1.132034752713114,1.127034752713114,1.451,-5.374,-5.609
1621787282782.668,0.368,1.131,1.126,1.3589954293469215,-5.296601021675394,-5.6174222028755425
1621787282788.566,0.311,1.124,1.119,1.0920749996799262,-5.072053823600958,-5.641856402115047
1621787282794.471,0.237,1.1,1.107,0.8248341505882956,-4.847237072221439,-5.666319932912542
1621787282799.704,0.16350755948446793,1.0716655651024456,1.0928327825512227,0.588,-4.648,-5.688
1621787282800.381,0.154,1.068,1.091,0.5777886233678668,-4.640593156386551,-5.6911640885339
1621787282806.297,0.049,1.035,1.068,0.4885559949690753,-4.57586808085785,-5.718813635361695
1621787282812.219,-0.042,0.997,1.058,0.39923498826549797,-4.511078899939059,-5.746490567016324
1621787282817.878,-0.136,0.958,1.049,0.3138799579891861,-4.449166448400607,-5.772938604566731
1621787282818.533,-0.14711596392041776,0.9531367657848172,1.0471473393465969,0.304,-4.442,-5.776
1621787282823.535,-0.232,0.916,1.033,0.23419374148205552,-4.525220010154726,-5.851281259186019
1621787282829.193,-0.321,0.869,1.023,0.1552289890703081,-4.619358381657358,-5.936439325512413
1621787282834.849,-0.407,0.813,1.019,0.07629490125865154,-4.713460196146549,-6.0215643221720425
1621787282836.805,-0.4339777221310767,0.7912103013556687,1.0155413176755028,0.049,-4.746,-6.051
1621787282840.504,-0.485,0.75,1.009,0.00525429755380296,-4.873186579334314,-6.1779840529341
1621787282846.159,-0.55,0.695,1.0,-0.061624568907900024,-5.06763069108408,-6.372118540302099
1621787282851.812,-0.604,0.644,0.998,-0.12848033685336185,-5.262007646036626,-6.566185977810453
1621787282855.069,-0.6201297119910186,0.6065560257351353,0.9962718165723908,-0.167,-5.374,-6.678
1621787282857.466,-0.632,0.579,0.995,-0.204288862736707,-5.4821902214614315,-6.778443591526693
1621787282863.117,-0.628,0.536,0.99,-0.29219760350914736,-5.737249384829357,-7.015240023536964
1621787282868.77,-0.611,0.483,0.972,-0.38014052637209805,-5.992407724403552,-7.252128530544559
1621787282873.325,-0.5787465640936986,0.4394578615264932,0.9510352666609041,-0.451,-6.198,-7.443
1621787282874.419,-0.571,0.429,0.946,-0.47630080278298104,-6.229176344661494,-7.467101712603692
1621787282880.07,-0.515,0.363,0.911,-0.6069943270002676,-6.390220497725449,-7.591601230933904
1621787282885.718,-0.429,0.304,0.871,-0.737614450093658,-6.551174203906878,-7.71603082686647
1621787282891.366,-0.339,0.239,0.836,-0.8682345731870484,-6.712127910088306,-7.840460422799036
1621787282891.572,-0.33575244271508864,0.2368471249459576,0.8350512753999135,-0.873,-6.718,-7.845
1621787282897.013,-0.25,0.18,0.81,-0.8524142625737962,-6.63893883452255,-7.880204594439015
1621787282902.66,-0.168,0.14,0.789,-0.8310489163174876,-6.556883519190351,-7.916742432964297
1621787282908.304,-0.093,0.096,0.764,-0.809694654546915,-6.474870774709166,-7.953261315412522
1621787282909.809,-0.07247310386577878,0.08160451439937733,0.7594680878664707,-0.804,-6.453,-7.963
1621787282913.95,-0.016,0.042,0.747,-0.6320233276480306,-6.347991727212904,-7.922682290057883
1621787282919.593,0.037,-0.024,0.726,-0.3976580894696553,-6.204889244033789,-7.867738386537919
1621787282925.236,0.091,-0.072,0.73,-0.16329285129128002,-6.061786760854676,-7.812794483017956
1621787282927.988,0.11682587240042297,-0.0923627070849489,0.744402890377159,-0.049,-5.992,-7.786
1621787282930.777,0.143,-0.113,0.759,0.10087050359712231,-5.863495010443258,-7.741709445346948
1621787282936.316,0.185,-0.154,0.791,0.39849936521371143,-5.6082960697855375,-7.653752528906666
1621787282941.85,0.199,-0.173,0.808,0.6958789674143039,-5.353310854162969,-7.565869274978499
1621787282945.872,0.1924577946432511,-0.2006226448396064,0.818176763888276,0.912,-5.168,-7.502
1621787282947.383,0.19,-0.211,0.822,0.9659123294040424,-5.103254423871126,-7.4862579383529795
1621787282952.912,0.171,-0.239,0.827,1.1631901649208216,-4.866335202253644,-7.428654049175396
1621787282958.438,0.138,-0.246,0.831,1.3603547575417771,-4.629551978776359,-7.371083226212291
1621787282963.725,0.10449456281495889,-0.23738431615241798,0.8424875784634427,1.549,-4.403,-7.316
1621787282963.961,0.103,-0.237,0.843,1.5522555552511164,-4.400670822259364,-7.314954516809601
1621787282969.482,0.059,-0.225,0.852,1.6284679014713537,-4.346144916020495,-7.2904798202592
1621787282974.999,0.0,-0.204,0.85,1.704626325451407,-4.291657588294928,-7.266022440200564
1621787282980.514,-0.084,-0.161,0.846,1.7807544181713566,-4.237191960983095,-7.241574800668548
1621787282981.546,-0.09991984580619434,-0.15200996942709027,0.8476856307324205,1.795,-4.227,-7.237
1621787282986.024,-0.169,-0.113,0.855,1.602448265451751,-4.372483532769788,-7.535769815567021
1621787282991.533,-0.264,-0.065,0.857,1.365564071248216,-4.55146270172357,-7.903327382259304
1621787282997.038,-0.37,-0.023,0.846,1.1288478427928421,-4.730314963223186,-8.270624327588099
1621787282999.337,-0.41219985800496983,-0.01130102946396876,0.8271980830670926,1.03,-4.805,-8.424
1621787283002.54,-0.471,0.005,0.801,0.2303937473362938,-5.128774695134526,-8.97937731828368
1621787283008.04,-0.557,0.005,0.712,-1.142588696261875,-5.6847195375118575,-9.93300081114151
1621787283013.537,-0.578,0.012,0.585,-2.514839792677729,-6.240368244497298,-10.886116336939935
1621787283017.095,-0.5371937863905062,0.026897506555846926,0.5001489843993067,-3.403,-6.6,-11.503
1621787283019.03,-0.515,0.035,0.454,-3.528177236802247,-6.722012337179522,-11.70631751714262
1621787283024.52,-0.37,0.108,0.342,-3.8833198716713024,-7.068175777269848,-12.283153374824442
1621787283030.008,-0.161,0.213,0.251,-4.23833616060364,-7.414216065871726,-12.859784016743316
1621787283034.826,0.062151811949069546,0.27274142997061707,0.18510871694417236,-4.55,-7.718,-13.366
1621787283035.492,0.093,0.281,0.176,-4.507178743961353,-7.702463768115942,-13.218599033816425
1621787283040.622,0.361,0.309,0.103,-4.177338915097681,-7.58279263887118,-12.08321175287234
1621787283046.048,0.599,0.295,0.04,-3.8284743933018826,-7.456219048833354,-10.882336945896553
1621787283051.469,0.775,0.258,0.0,-3.479939507274711,-7.329765055888478,-9.682596823777748
1621787283052.059,0.7875295257843491,0.2538598088712586,-0.0007626667868734223,-3.442,-7.316,-9.552
1621787283056.885,0.89,0.22,-0.007,-2.854765757842275,-6.891027851070067,-8.442381161787495
1621787283062.299,0.942,0.178,0.007,-2.195965406039285,-6.414264438581061,-7.1975333165808095
1621787283067.709,0.937,0.129,0.037,-1.5376700869735171,-5.937866510309782,-5.953639764906256
1621787283069.547,0.922716699037897,0.11471669903789693,0.042781336103708385,-1.314,-5.776,-5.531
1621787283073.114,0.895,0.087,0.054,-1.2880341179434074,-5.503256010523664,-5.1660464608581265
1621787283078.515,0.822,0.042,0.065,-1.2487174004310224,-5.090275686417196,-4.613445352514764
1621787283083.913,0.707,0.002,0.077,-1.20942023286406,-4.677500713705953,-4.061119020963363
1621787283086.993,0.6184957226270764,-0.021981804191372835,0.0787129860136695,-1.187,-4.442,-3.746
1621787283089.307,0.552,-0.04,0.08,-1.3082622364378604,-4.349457766929001,-3.700393698357252
1621787283094.697,0.377,-0.105,0.073,-1.5907298093514584,-4.133890408652834,-3.5941586352987387
1621787283100.082,0.199,-0.194,0.054,-1.8729287067042635,-3.91852809225201,-3.4880246201759184
1621787283104.396,0.05635135380289355,-0.2597145448773187,0.04037625289128759,-2.099,-3.746,-3.403
1621787283105.465,0.021,-0.276,0.037,-2.023507431624833,-3.8347930535048866,-3.4621748435632425
1621787283110.842,-0.155,-0.309,0.044,-1.6438206707445688,-4.281374056106307,-3.7597922801096813
1621787283116.217,-0.297,-0.318,0.056,-1.2642718273219433,-4.727792842578921,-4.057301610068199
1621787283121.587,-0.403,-0.316,0.082,-0.8850850172256206,-5.1737858117134214,-4.354527160233425
1621787283121.758,-0.4052320778748181,-0.31615943413391556,0.08311603893740903,-0.873,-5.188,-4.364
1621787283126.954,-0.473,-0.321,0.117,-0.4758653089986611,-5.599832273976464,-5.013993108308083
1621787283132.316,-0.517,-0.312,0.169,-0.06606067225706436,-6.02480339651892,-5.684723204848143
1621787283137.675,-0.543,-0.284,0.216,0.34353870763159744,-6.449561665844549,-6.355117356070749
1621787283139.081,-0.550353032375741,-0.2758591427268582,0.22440346557227542,0.451,-6.561,-6.531
1621787283143.029,-0.571,-0.253,0.248,0.6295336267931678,-6.847805632719347,-6.874475661353049
1621787283148.263,-0.592,-0.19,0.274,0.8662168183825519,-7.228025727595196,-7.329823582204368
1621787283153.592,-0.585,-0.11,0.291,1.1072057495334557,-7.61516278473439,-7.793455190392752
1621787283156.219,-0.5583602310760626,-0.06362706891018294,0.29987992297464583,1.226,-7.806,-8.022
1621787283158.917,-0.531,-0.016,0.309,1.2676189156540894,-8.004671427556314,-8.220671427556313
1621787283164.238,-0.422,0.051,0.328,1.3497005613586301,-8.396495132523272,-8.612495132523271
1621787283169.554,-0.248,0.108,0.346,1.4317031194485896,-8.78794130604704,-9.003941306047041
1621787283173.398,-0.10110069859362072,0.13984024266936299,0.35178913503079323,1.491,-9.071,-9.287
1621787283174.866,-0.045,0.152,0.354,1.3926355216096442,-9.033213645496387,-9.244158328227197
1621787283180.175,0.164,0.19,0.354,1.0369006227111448,-8.896559385553672,-9.089221525571057
1621787283185.478,0.34,0.22,0.342,0.6815746897131539,-8.760062228365419,-8.934462843951723
1621787283190.531,0.4868210419641623,0.2552751854069741,0.33246616610622326,0.343,-8.63,-8.787
1621787283190.778,0.494,0.257,0.332,0.3278355403185487,-8.60675457467324,-8.768134776087424
1621787283196.073,0.62,0.267,0.323,0.002848582244125486,-8.108585815298907,-8.363837368759375
1621787283201.365,0.726,0.272,0.323,-0.3219585601028497,-7.610692693379045,-7.959763659738591
1621787283206.651,0.801,0.283,0.312,-0.6463910863509748,-7.113373816155989,-7.556155988857939
1621787283207.622,0.8065147874306839,0.2842867837338262,0.3114485212569316,-0.706,-7.022,-7.482
1621787283211.934,0.831,0.29,0.309,-0.7530460560233717,-6.731629718737469,-7.033038981497394
1621787283217.212,0.824,0.298,0.309,-0.8106296614538581,-6.376221229306295,-6.48351801569571
1621787283222.487,0.777,0.312,0.318,-0.8681839663172366,-6.0209935842355495,-5.934276665520994
1621787283224.67,0.7422068933568053,0.3235977022143982,0.32379885110719914,-0.892,-5.874,-5.707
1621787283227.757,0.693,0.34,0.332,-0.8689414171871634,-5.7939304329097565,-5.584262976523799
1621787283233.023,0.599,0.365,0.347,-0.8296096202168138,-5.657353090674133,-5.374906324933591
1621787283238.284,0.503,0.405,0.36,-0.7903142939191614,-5.520902390695671,-5.165743800703567
1621787283241.673,0.44176630914240606,0.4275597808422715,0.3651565213353763,-0.765,-5.433,-5.031
1621787283243.542,0.408,0.44,0.368,-0.765,-5.448087758419772,-5.115249161979024
1621787283248.795,0.342,0.482,0.377,-0.765,-5.4904951013537815,-5.352049288581335
1621787283254.053,0.284,0.51,0.377,-0.765,-5.532943834611346,-5.589080536333425
1621787283258.643,0.26037625651526436,0.5388734642591214,0.3708753257632167,-0.765,-5.57,-5.796
1621787283259.299,0.257,0.543,0.37,-0.7634878354978355,-5.590937662337662,-5.813099090909091
1621787283264.541,0.237,0.567,0.356,-0.7514045887445887,-5.758244155844157,-5.949732727272727
1621787283269.778,0.23,0.585,0.335,-0.7393325974025974,-5.925394805194806,-6.086239090909091
1621787283275.012,0.234,0.623,0.312,-0.727267922077922,-6.092444155844156,-6.222662727272727
1621787283275.562,0.23505191894668037,0.6269972919973854,0.31021173779064337,-0.726,-6.11,-6.237
1621787283280.241,0.244,0.661,0.295,-0.6716548032407408,-6.161572482638889,-6.220640986689815
1621787283285.466,0.253,0.698,0.265,-0.6109662615740741,-6.219164670138889,-6.202372497106482
1621787283290.686,0.267,0.724,0.248,-0.5503372685185185,-6.2767003472222225,-6.1841219328703705
1621787283292.437,0.2659931208760354,0.7327262857410267,0.24095184613224765,-0.53,-6.296,-6.178
1621787283295.903,0.264,0.75,0.227,-0.5339124941981899,-6.249461911116269,-6.277047879438385
1621787283301.115,0.251,0.764,0.216,-0.539795703759573,-6.179482681596658,-6.425985974123926
1621787283306.323,0.229,0.771,0.225,-0.545674503945231,-6.109555900440938,-6.574812441981898
1621787283309.269,0.20918183097930648,0.7613740321899488,0.2340597344094599,-0.549,-6.07,-6.659
1621787283311.526,0.194,0.754,0.241,-0.646603862767056,-6.0384064631539145,-6.831621707703719
1621787283316.726,0.154,0.723,0.258,-0.8715024215011853,-5.965608720312978,-7.229376183481435
1621787283321.921,0.108,0.672,0.272,-1.096168690644134,-5.892886167628965,-7.626719833040038
1621787283326.056,0.06817260029158634,0.605089968489865,0.27757583595917795,-1.275,-5.835,-7.943
1621787283327.112,0.058,0.588,0.279,-1.3492587833797598,-5.828186109936267,-8.009246153397406
1621787283332.298,0.012,0.461,0.272,-1.7138924118015955,-5.794727799087024,-8.33453528665393
1621787283337.481,-0.017,0.346,0.251,-2.0783028862280686,-5.761289964560212,-8.659625344553502
1621787283342.659,-0.019,0.22,0.229,-2.4423700468155234,-5.727883632067905,-8.984409132673152
1621787283342.796,-0.01812645684895956,0.21666465342330016,0.2280999858443826,-2.452,-5.727,-8.993
1621787283347.833,0.014,0.094,0.195,-2.4901073880162885,-5.835921116928447,-8.878077719604422
1621787283353.003,0.07,0.0,0.155,-2.5292195462478184,-5.947714136125654,-8.760125305410122
1621787283358.256,0.133,-0.084,0.117,-2.5689615328679465,-6.06130737347295,-8.640273487492728
1621787283359.583,0.14813427411742497,-0.09785170851425336,0.10443085708891826,-2.579,-6.09,-8.61
1621787283363.429,0.192,-0.138,0.068,-2.328363672257725,-6.0674243013614495,-8.293709854788471
1621787283368.6,0.23,-0.178,0.04,-1.9913657634207333,-6.037069710308117,-7.868435839316789
1621787283373.765,0.253,-0.206,0.017,-1.6547815246479392,-6.006752379977479,-7.443683854174283
1621787283376.278,0.25202648004539435,-0.206,0.008725080385852091,-1.491,-5.992,-7.237
1621787283378.928,0.251,-0.206,0.0,-1.3083230904559449,-5.931054654742707,-7.121633484826272
1621787283384.085,0.234,-0.201,-0.012,-0.9528150417827298,-5.812448746518106,-6.897118384401114
1621787283389.239,0.204,-0.188,-0.024,-0.5975089576308459,-5.693910218443044,-6.6727308312564135
1621787283392.931,0.1817723091512565,-0.1672063537221432,-0.029019155998103365,-0.343,-5.609,-6.512
1621787283394.388,0.173,-0.159,-0.031,-0.24406397425157622,-5.621980967917346,-6.496475464044795
1621787283399.533,0.147,-0.131,-0.037,0.10529557779639348,-5.6678189233278955,-6.441655747101097
1621787283404.674,0.113,-0.093,-0.037,0.4543898858075041,-5.713622077215878,-6.386877650897227
1621787283409.543,0.08551855547636018,-0.06646619149441674,-0.030366547873604183,0.785,-5.757,-6.335
1621787283409.812,0.084,-0.065,-0.03,0.7958163409673712,-5.7638373566775725,-6.337874613139977
1621787283414.944,0.061,-0.033,-0.023,1.0021414802369795,-5.894262106876528,-6.392708771774693
1621787283420.073,0.045,-0.009,-0.009,1.2083390220178618,-6.024606198602882,-6.447509019365107
1621787283425.198,0.03,0.017,0.005,1.4143795207356973,-6.1548510183629555,-6.5022675302856126
1621787283426.109,0.03088934973302822,0.023047578184591917,0.0069565694126620895,1.451,-6.178,-6.512
1621787283430.319,0.035,0.051,0.016,1.4711308459549317,-6.218006871074991,-6.619279571481345
1621787283435.435,0.044,0.073,0.031,1.495592537864795,-6.266620613224973,-6.749638714444034
1621787283440.547,0.056,0.089,0.044,1.5200355522718878,-6.315197236793498,-6.879898322866642
1621787283442.631,0.06171188222923239,0.09552786540483701,0.051751840168243954,1.53,-6.335,-6.933
1621787283445.655,0.07,0.105,0.063,1.4866987230764672,-6.3421557194916005,-6.985291796284774
1621787283450.76,0.087,0.127,0.073,1.4135976653927058,-6.354235979024087,-7.07357061594525
1621787283455.859,0.101,0.138,0.091,1.340584007347495,-6.366301795395964,-7.16174388943205
1621787283459.112,0.11440286425902864,0.14693524283935244,0.09738231631382317,1.294,-6.374,-7.218
1621787283460.956,0.122,0.152,0.101,1.2426971929772752,-6.358720685734536,-7.224580142639871
1621787283466.08,0.152,0.155,0.113,1.1001388302349275,-6.316263086396054,-7.242864802208999
1621787283471.202,0.171,0.169,0.119,0.9576415988659688,-6.2738236935753,-7.2611416210150175
1621787283475.646,0.18055310114503817,0.17073692748091604,0.1259477099236641,0.834,-6.237,-7.277
1621787283476.319,0.182,0.171,0.127,0.821605507164934,-6.233819834075214,-7.27218897975481
1621787283481.433,0.18,0.178,0.134,0.7274352346164653,-6.20965772467133,-7.235636045015601
1621787283486.543,0.171,0.175,0.143,0.6333413880303456,-6.185515224560418,-7.199112775617042
1621787283491.649,0.175,0.176,0.152,0.5393194717617309,-6.161391180254655,-7.162617426539093
1621787283492.155,0.17480160780935974,0.176,0.15229758828596038,0.53,-6.159,-7.159
1621787283496.751,0.173,0.176,0.155,0.4339896810923809,-6.117693234888582,-7.148115109193613
1621787283501.851,0.176,0.169,0.155,0.32744755296594463,-6.071855342555116,-7.136036205132767
1621787283506.945,0.169,0.166,0.148,0.22103292858307755,-6.026072306483417,-7.1239717564381975
1621787283508.622,0.1657058315749089,0.16138816420487243,0.14470583157490888,0.186,-6.011,-7.12
1621787283512.036,0.159,0.152,0.138,0.13300338877246176,-5.998945868818835,-7.12
1621787283517.123,0.148,0.15,0.133,0.054029607169929106,-5.980983204768062,-7.12
1621787283522.207,0.141,0.14,0.126,-0.02489490346457396,-5.963031747447274,-7.12
1621787283525.048,0.13932182858241599,0.131049752439552,0.11872792385713599,-0.069,-5.953,-7.12
1621787283527.286,0.138,0.124,0.113,-0.08770863068190284,-5.9396171838917775,-7.114537626078277
1621787283532.363,0.133,0.098,0.101,-0.13015513773632692,-5.909253989064526,-7.10214448533246
1621787283537.435,0.138,0.093,0.087,-0.17255878190134236,-5.878921455282252,-7.089763859298878
1621787283541.435,0.138,0.08037142306580596,0.07752856729935446,-0.206,-5.855,-7.08
1621787283542.503,0.138,0.077,0.075,-0.20854754259942354,-5.855,-7.063996206747211
1621787283547.569,0.131,0.063,0.068,-0.22063351801795075,-5.855,-6.988071489374412
1621787283552.629,0.126,0.052,0.054,-0.2327043502934544,-5.855,-6.912241902002658
1621787283557.685,0.115,0.038,0.044,-0.2447664461402906,-5.855,-6.836467197323815
1621787283557.783,0.11457383701270471,0.03780628955122941,0.04378691850635235,-0.245,-5.855,-6.835
1621787283562.739,0.093,0.028,0.033,-0.2392452590901631,-5.842884755979291,-6.805317652149262
1621787283567.812,0.08,0.009,0.026,-0.2333547289736359,-5.8304836399444975,-6.774934917864017
1621787283572.883,0.059,-0.005,0.016,-0.22746646673529983,-5.818087298390105,-6.744563881055757
1621787283574.146,0.05376366528487419,-0.006745444905041936,0.015002602911404608,-0.226,-5.815,-6.737
1621787283577.948,0.038,-0.012,0.012,-0.21669852172614604,-5.819650739136927,-6.746068941317008
1621787283583.012,0.016,-0.033,0.0,-0.204309690906376,-5.825845154546812,-6.758148051366283
1621787283588.072,-0.009,-0.042,-0.005,-0.19193041660444976,-5.832034791697775,-6.770217843810661
1621787283590.496,-0.01955001207437817,-0.04871364404733156,-0.010275006037189085,-0.186,-5.835,-6.776
1621787283593.127,-0.031,-0.056,-0.016,-0.16068302756412176,-5.866605901894472,-6.812443539939545
1621787283598.18,-0.051,-0.07,-0.017,-0.11205780684164846,-5.927309999102146,-6.882439080597372
1621787283603.228,-0.059,-0.073,-0.028,-0.0634795738185736,-5.987955436506748,-6.952366982910843
1621787283606.811,-0.06539198606271777,-0.07726132404181185,-0.03155110336817654,-0.029,-6.031,-7.002
1621787283608.273,-0.068,-0.079,-0.033,-0.020198740157480317,-6.0477044319460065,-7.023105061867266
1621787283613.314,-0.061,-0.087,-0.042,0.010150026246719162,-6.105305151856018,-7.095880164979378
1621787283618.353,-0.056,-0.091,-0.047,0.04048703412073491,-6.16288355455568,-7.168627071616048
1621787283623.089,-0.05129493087557603,-0.09758709677419355,-0.051705069124423964,0.069,-6.217,-7.237
1621787283623.386,-0.051,-0.098,-0.052,0.0700604757465492,-6.218791838330376,-7.238444441103058
1621787283628.418,-0.042,-0.099,-0.063,0.0880353652302048,-6.249163203320001,-7.262927480227348
1621787283633.444,-0.028,-0.115,-0.068,0.1059893242714943,-6.279499203079421,-7.287382010645656
1621787283638.469,-0.012,-0.115,-0.075,0.12393892280395755,-6.309827835082549,-7.311830601750218
1621787283639.326,-0.008756007393715341,-0.11807325615332231,-0.07619515517073645,0.127,-6.315,-7.316
1621787283643.488,0.007,-0.133,-0.082,0.14215720313441832,-6.315,-7.285685593731164
1621787283648.505,0.021,-0.131,-0.086,0.16042710970464136,-6.315,-7.249145780590718
1621787283653.517,0.031,-0.147,-0.087,0.1786801235684147,-6.315,-7.212639752863171
1621787283655.527,0.03380839140392768,-0.148203596315969,-0.08579640368403099,0.186,-6.315,-7.198
1621787283658.527,0.038,-0.15,-0.084,0.21499899289010477,-6.307796428517745,-7.13464551234837
1621787283663.532,0.04,-0.145,-0.084,0.26337784658860314,-6.2957787514843595,-7.028951583567575
1621787283668.6,0.031,-0.148,-0.079,0.3123679258045606,-6.283609241360651,-6.921922302223158
1621787283671.769,0.030369106639447845,-0.14169106639447848,-0.07521463983668708,0.343,-6.276,-6.855
1621787283673.623,0.03,-0.138,-0.073,0.3508923063019641,-6.271539131220629,-6.837042143631764
1621787283678.644,0.019,-0.136,-0.065,0.3722661766477889,-6.2594582479816845,-6.78840884443909
1621787283683.661,0.016,-0.127,-0.059,0.3936223792023135,-6.247387350885649,-6.739815745872997
1621787283687.978,0.0022241698315317946,-0.11839010614470738,-0.050390106144707375,0.412,-6.237,-6.698
1621787283688.675,0.0,-0.117,-0.049,0.4162233090310797,-6.237861899802262,-6.701361409228819
1621787283693.685,-0.01,-0.106,-0.044,0.44657935968844814,-6.244057012181316,-6.725522347507132
1621787283698.692,-0.021,-0.084,-0.035,0.4769161798668659,-6.250248199972829,-6.749667979894036
1621787283703.696,-0.031,-0.063,-0.03,0.5072367281015563,-6.256436066959501,-6.7738006611420545
1621787283704.152,-0.0316384765625,-0.061723046875,-0.0291791015625,0.51,-6.257,-6.776
1621787283708.696,-0.038,-0.049,-0.021,0.4877560399993949,-6.312187546330615,-6.7982439600006055
1621787283713.693,-0.038,-0.038,-0.017,0.46329389873073024,-6.37287842846553,-6.82270610126927
1621787283718.687,-0.03,-0.024,-0.017,0.4388472942920682,-6.43353076352854,-6.847152705707932
1621787283720.29,-0.02807250843974754,-0.020145016879495083,-0.016036254219873772,0.431,-6.453,-6.855
1621787283723.677,-0.024,-0.012,-0.014,0.431,-6.471509111859062,-6.867409518178235
1621787283728.664,-0.019,0.005,-0.003,0.431,-6.49876245489554,-6.885681645895874
1621787283733.647,-0.009,0.016,0.002,0.431,-6.525993116831923,-6.903938566966858
1621787283736.393,-0.005140770512694834,0.018756592490932263,0.003653955494559357,0.431,-6.541,-6.914
1621787283738.628,-0.002,0.021,0.005,0.41612132581914296,-6.539609469702724,-6.919423068159378
1621787283743.604,0.01,0.023,0.012,0.3829929516489192,-6.536513359967189,-6.931497896127964
1621787283748.578,0.012,0.037,0.01,0.3498792058452705,-6.533418617368716,-6.943567392262004
1621787283752.465,0.017475778716714158,0.040911270511938685,0.014693524614326423,0.324,-6.531,-6.953
1621787283753.547,0.019,0.042,0.016,0.31345896895971886,-6.527038720819257,-6.953671403250974
1621787283758.515,0.019,0.045,0.017,0.26506345912044965,-6.508851873172653,-6.956753919801246
1621787283763.477,0.031,0.052,0.024,0.2167226522852252,-6.490685582705913,-6.959832952083744
1621787283768.518,0.04,0.044,0.03,0.16761362500189364,-6.472230597930649,-6.962960915604975
1621787283768.581,0.04,0.04383579751297366,0.029924214236757073,0.167,-6.472,-6.963
1621787283773.505,0.04,0.031,0.024,0.09482835221155742,-6.448146658781786,-6.929972296774781
1621787283778.49,0.044,0.031,0.024,0.021758495200837003,-6.423996451803666,-6.896533548651231
1621787283783.47,0.047,0.033,0.023,-0.05123621283112709,-6.399871082199882,-6.863129190738298
1621787283784.682,0.045296165538883985,0.033486809846033146,0.023,-0.069,-6.394,-6.855
1621787283788.449,0.04,0.035,0.023,-0.08728560142208178,-6.375479967790456,-6.832025782828667
1621787283793.424,0.037,0.026,0.024,-0.11143492000790045,-6.351021042556101,-6.801684331272125
1621787283798.396,0.026,0.017,0.023,-0.1355688327078807,-6.326577720718942,-6.77136223582856
1621787283800.751,0.022683106548116127,0.021264577295279266,0.023,-0.147,-6.315,-6.757
1621787283803.366,0.019,0.026,0.023,-0.16933632184607889,-6.292663678153922,-6.760097738066245
1621787283808.331,0.009,0.017,0.017,-0.211746346809547,-6.250253653190454,-6.7659794203604475
1621787283813.294,0.0,0.009,0.01,-0.2541376035070628,-6.207862396492938,-6.771858499756454
1621787283816.79,-0.007050019692792438,0.004769988184324537,0.005064986215045293,-0.284,-6.178,-6.776
1621787283818.253,-0.01,0.003,0.003,-0.2804348568987612,-6.186958564715933,-6.777828278513455
1621787283823.21,-0.023,-0.005,-0.002,-0.2683543052419601,-6.2173148227253305,-6.784023433209251
1621787283828.163,-0.031,-0.005,-0.003,-0.25628327332641726,-6.247647159333618,-6.790213705986453
1621787283832.793,-0.031,-0.008741356350184956,-0.0048706781750924785,-0.245,-6.276,-6.796
1621787283833.113,-0.031,-0.009,-0.005,-0.24421841417368573,-6.277182399070578,-6.797182399070579
1621787283838.06,-0.035,-0.009,-0.012,-0.23213811394591619,-6.295457725056178,-6.815457725056178
1621787283843.005,-0.044,-0.014,-0.014,-0.22006317929590166,-6.313724933885687,-6.833724933885687
1621787283847.945,-0.038,-0.021,-0.012,-0.2079995719767033,-6.331975006496783,-6.851975006496783
1621787283848.764,-0.038,-0.021,-0.012829130821714625,-0.206,-6.335,-6.855
1621787283852.883,-0.038,-0.021,-0.017,-0.22124842988879018,-6.340168959284336,-6.8878228914555315
1621787283857.817,-0.038,-0.017,-0.024,-0.23951274470757636,-6.3463602524432465,-6.9271376030146135
1621787283862.75,-0.033,-0.026,-0.031,-0.25777434821237094,-6.352550626512668,-6.966446478355443
1621787283864.702,-0.031027970993044253,-0.028760840609738048,-0.03376084060973805,-0.265,-6.355,-6.982
1621787283867.699,-0.028,-0.033,-0.038,-0.2612590848836678,-6.351259084883668,-6.982
1621787283872.661,-0.021,-0.042,-0.044,-0.25506567018634485,-6.3450656701863455,-6.982
1621787283877.62,-0.016,-0.042,-0.051,-0.24887560756349897,-6.338875607563499,-6.982
1621787283880.725,-0.013493866692940538,-0.04074693334647027,-0.05162653332676486,-0.245,-6.335,-6.982
1621787283882.576,-0.012,-0.04,-0.052,-0.23366003205372815,-6.332685720827292,-6.979801434785927
1621787283887.529,-0.016,-0.042,-0.059,-0.2033124170037396,-6.326492330000764,-6.973917713500725
1621787283892.48,-0.012,-0.049,-0.061,-0.17297826451957565,-6.320301686636649,-6.9680366023048155
1621787283896.72,-0.012,-0.051571238217440654,-0.05928584118837289,-0.147,-6.315,-6.963
1621787283897.427,-0.012,-0.052,-0.059,-0.14354568531800038,-6.314158564372334,-6.959944260089
1621787283902.372,-0.017,-0.059,-0.061,-0.11938575994372486,-6.308273454345267,-6.938572018411756
1621787283907.314,-0.023,-0.049,-0.059,-0.09524134081629532,-6.302392121480893,-6.91721349379903
1621787283912.253,-0.023,-0.047,-0.059,-0.07111123514749286,-6.296514275228236,-6.895867631092013
1621787283912.685,-0.023612820259174994,-0.04735018300524285,-0.05917509150262142,-0.069,-6.296,-6.894
1621787283917.189,-0.03,-0.051,-0.061,-0.05769503937249135,-6.2849776633881795,-6.913501057082453
1621787283922.123,-0.028,-0.051,-0.059,-0.045310322639948525,-6.27290256457395,-6.934864693446089
1621787283927.052,-0.024,-0.047,-0.058,-0.032938474737261386,-6.2608400128688295,-6.956206131078225
1621787283928.621,-0.024636683342414187,-0.04540829164396454,-0.058,-0.029,-6.257,-6.963
1621787283931.981,-0.026,-0.042,-0.058,-0.02076244340419001,-6.257,-6.975461944593661
1621787283936.905,-0.017,-0.044,-0.059,-0.008689831939221859,-6.257,-6.993725638861178
1621787283941.827,-0.017,-0.045,-0.058,0.0033773923720359124,-6.257,-7.011981183332055
1621787283944.528,-0.014254999255693943,-0.04609800029772242,-0.05580399940455515,0.01,-6.257,-7.022
1621787283946.747,-0.012,-0.047,-0.054,0.020902103709171435,-6.25420458879252,-7.01640917758504
1621787283951.663,-0.007,-0.04,-0.052,0.045054899427938735,-6.248011564249246,-7.004023128498493
1621787283956.575,-0.005,-0.04,-0.051,0.06918730393061451,-6.241823768222919,-6.991647536445839
1621787283960.404,-0.005,-0.03610161065818254,-0.04944064426327302,0.088,-6.237,-6.982
1621787283961.486,-0.005,-0.035,-0.049,0.09202927716227252,-6.235634143334823,-6.978653651170316
1621787283966.395,-0.003,-0.028,-0.044,0.11030921306069617,-6.229437554894679,-6.963472009491964
1621787283971.299,-0.002,-0.024,-0.045,0.12857096630044532,-6.223247130067645,-6.9483054686657315
1621787283976.201,-0.003,-0.023,-0.038,0.14682453734379092,-6.217059478866511,-6.933145723222953
1621787283976.248,-0.0030384711217421637,-0.022961528878257836,-0.03799038221956446,0.147,-6.217,-6.933
1621787283981.1,-0.007,-0.019,-0.037,0.14086358724179454,-6.229272825516411,-6.933
1621787283985.997,-0.009,-0.017,-0.028,0.1346703615648254,-6.241659276870349,-6.933
1621787283990.889,-0.01,-0.019,-0.026,0.12848361997097602,-6.254032760058048,-6.933
1621787283992.062,-0.00976020560934225,-0.017321439265395748,-0.025280616828026747,0.127,-6.257,-6.933
1621787283995.781,-0.009,-0.012,-0.023,0.122523517129379,-6.270665052973475,-6.949256700951202
1621787284000.668,-0.016,-0.017,-0.017,0.11664117237645967,-6.288621684324491,-6.970618900317067
1621787284005.553,-0.01,-0.01,-0.017,0.11076117856314283,-6.306571139123038,-6.991972562060165
1621787284007.847,-0.007650177562146752,-0.0067102485870054514,-0.01653003551242935,0.108,-6.315,-7.002
1621787284010.434,-0.005,-0.003,-0.016,0.0983109764601962,-6.315,-7.018093632320352
1621787284015.314,0.005,-0.003,-0.012,0.0800355963985185,-6.315,-7.048449348355003
1621787284020.19,0.005,0.002,-0.007,0.061774845418339046,-6.315,-7.078780765237335
1621787284023.601,0.013398316970546983,-0.0028990182328190745,-0.007,0.049,-6.315,-7.1
1621787284025.064,0.017,-0.005,-0.007,0.056255926598667974,-6.311372036700666,-7.101860493999658
1621787284029.934,0.026,-0.009,-0.009,0.08041167155698384,-6.299294164221508,-7.108054274758201
1621787284034.802,0.037,-0.009,-0.014,0.10455651809417355,-6.287221740952913,-7.114245261049788
1621787284039.327,0.04816113815426306,-0.016440758769508707,-0.009349525769057059,0.127,-6.276,-7.12
1621787284039.667,0.049,-0.017,-0.009,0.12871159499183452,-6.274310070767555,-7.116598475775722
1621787284044.529,0.049,-0.012,-0.01,0.15318138268916712,-6.25015002721829,-7.067968644529124
1621787284049.389,0.052,-0.01,-0.007,0.17764011198382457,-6.22600090209192,-7.019360790108095
1621787284054.245,0.047,-0.007,-0.005,0.2020804106073567,-6.201869974337041,-6.970789563729683
1621787284055.024,0.04651853901494189,-0.006679026009961262,-0.004518539014941893,0.206,-6.198,-6.963
1621787284059.098,0.044,-0.005,-0.002,0.2112013590175176,-6.1878573499158405,-6.934912661305405
1621787284063.949,0.035,-0.005,0.0,0.21739486316314444,-6.175780016831869,-6.90146773891902
1621787284068.797,0.024,0.0,0.002,0.2235846268935852,-6.163709977557509,-6.86804301477464
1621787284070.689,0.02126611561917242,0.0,0.003952774557733985,0.226,-6.159,-6.855
1621787284073.641,0.017,0.0,0.007,0.22222414089212947,-6.159,-6.855
1621787284078.484,0.009,-0.005,0.01,0.2160301331792846,-6.159,-6.855
1621787284083.323,0.0,0.002,0.012,0.20984080938031818,-6.159,-6.855
1621787284086.326,-0.0018632599474853566,0.005105433245808927,0.015105433245808928,0.206,-6.159,-6.855
1621787284088.158,-0.003,0.007,0.017,0.19907521701728317,-6.1658074137796195,-6.861924782982717
1621787284092.993,-0.012,0.016,0.017,0.18079984359114726,-6.183773035113787,-6.880200156408853
1621787284097.824,-0.005,0.012,0.017,0.1625392351607101,-6.20172414170642,-6.89846076483929
1621787284101.935,-0.012665317889838653,0.015406807951039402,0.01444489403672045,0.147,-6.217,-6.914
1621787284102.651,-0.014,0.016,0.014,0.14249707730642053,-6.2134160411214365,-6.919835420225353
1621787284107.477,-0.016,0.019,0.019,0.11213767218818071,-6.189252432966103,-6.959178730939807
1621787284112.298,-0.016,0.031,0.021,0.08181051856263027,-6.1651144943661755,-6.99848024635251
1621787284117.118,-0.021,0.028,0.014,0.05149104386391061,-6.1409826675651535,-7.037771810502892
1621787284117.514,-0.021575556344096924,0.028,0.014,0.049,-6.139,-7.041
1621787284121.934,-0.028,0.028,0.014,0.043314559814096626,-6.139,-7.015984063182025
1621787284126.748,-0.033,0.021,0.014,0.037122595738667594,-6.139,-6.988739421250138
1621787284131.558,-0.037,0.028,0.014,0.030935656078757715,-6.139,-6.9615168867465345
1621787284133.063,-0.037938823171041275,0.02674823577194497,0.014938823171041275,0.029,-6.139,-6.953
1621787284136.367,-0.04,0.024,0.017,0.03751694515245917,-6.151562494099878,-6.9487415274237705
1621787284141.171,-0.038,0.03,0.016,0.049900594732370435,-6.169828377230247,-6.942549702633815
1621787284145.974,-0.045,0.033,0.017,0.062282356273010486,-6.188091475502691,-6.936358821863495
1621787284148.58,-0.04608608058608059,0.031370879120879124,0.018086080586080588,0.069,-6.198,-6.933
1621787284150.773,-0.047,0.03,0.019,0.0606475483474396,-6.20352111210932,-6.93993678188094
1621787284155.57,-0.047,0.03,0.021,0.04237574668621054,-6.215599082698946,-6.955111668006367
1621787284160.363,-0.049,0.023,0.023,0.024119753495043104,-6.227666603621921,-6.970273425063439
1621787284164.07,-0.04745250713412148,0.02532123929881777,0.02532123929881777,0.01,-6.237,-6.982
1621787284165.154,-0.047,0.026,0.026,0.01,-6.235597776654877,-6.9861365588681155
1621787284169.941,-0.042,0.012,0.024,0.01,-6.229405570995453,-7.0044035655634165
1621787284174.727,-0.035,0.017,0.026,0.01,-6.2232143127842345,-7.022667777286508
1621787284179.509,-0.038,0.024,0.023,0.01,-6.217028423446185,-7.0409161508337545
1621787284179.531,-0.03796782266714337,0.023967822667143368,0.023004596761836662,0.01,-6.217,-7.041
1621787284184.289,-0.031,0.017,0.024,0.01,-6.204972989224172,-7.041
1621787284189.065,-0.031,0.01,0.021,0.01,-6.192900928841559,-7.041
1621787284193.839,-0.031,0.014,0.024,0.01,-6.180833188284254,-7.041
1621787284194.96,-0.031,0.014704970056815274,0.022825049905307877,0.01,-6.178,-7.041
1621787284198.609,-0.031,0.017,0.019,0.019240698172133357,-6.178,-7.03649812140332
1621787284203.378,-0.037,0.017,0.026,0.03131802977219043,-6.178,-7.030614293187908
1621787284208.142,-0.038,0.024,0.024,0.043382995925743906,-6.178,-7.024736489164382
1621787284210.36,-0.038,0.024931365011020553,0.024931365011020553,0.049,-6.178,-7.022
1621787284212.905,-0.038,0.026,0.026,0.05876851601836115,-6.174854206705952,-7.018688638637844
1621787284217.664,-0.044,0.033,0.023,0.07703575342683333,-6.168971537032037,-7.012496354770565
1621787284222.421,-0.045,0.031,0.031,0.09529455677504407,-6.163091583411426,-7.006306929906764
1621787284225.731,-0.0526587069275407,0.030303753915678116,0.030303753915678116,0.108,-6.159,-7.002
1621787284227.175,-0.056,0.03,0.03,0.10978851632000254,-6.160788516320002,-7.0056711650779
1621787284231.926,-0.052,0.03,0.033,0.11567262918344287,-6.166672629183442,-7.017749080955488
1621787284236.674,-0.058,0.035,0.035,0.12155311361140729,-6.172553113611407,-7.029819548991836
1621787284241.072,-0.056146231026498586,0.037780653460252125,0.04148819140725495,0.127,-6.178,-7.041
1621787284241.419,-0.056,0.038,0.042,0.1261162653484293,-6.178,-7.0427901291660024
1621787284246.162,-0.058,0.037,0.038,0.11403379046404082,-6.178,-7.067264885983097
1621787284250.901,-0.061,0.04,0.044,0.10196250996651252,-6.178,-7.09171696699091
1621787284255.638,-0.049,0.047,0.04,0.08989558284165204,-6.178,-7.1161602296284485
1621787284256.382,-0.04868562735289567,0.04589969573513486,0.04062874529420865,0.088,-6.178,-7.12
1621787284260.372,-0.047,0.04,0.044,0.06501626873781442,-6.173037603477483,-7.124962396522517
1621787284265.103,-0.044,0.038,0.04,0.03776431105571004,-6.167153658068846,-7.130846341931154
1621787284269.83,-0.042,0.044,0.04,0.01053485473199732,-6.161274570908045,-7.136725429091955
1621787284271.659,-0.03929105749857933,0.044,0.04077398357183448,0.0,-6.159,-7.139
1621787284274.556,-0.035,0.044,0.042,0.0,-6.153301767191702,-7.127793475477014
1621787284279.278,-0.038,0.047,0.037,0.0,-6.144013446023818,-7.1095264438468435
1621787284283.998,-0.033,0.045,0.038,0.0,-6.1347294467921625,-7.091267912024587
1621787284286.911,-0.031764715017859914,0.04438235750892996,0.038,0.0,-6.129,-7.08
1621787284288.714,-0.031,0.044,0.038,0.0011846030473135526,-6.129,-7.070760096230955
1621787284293.428,-0.026,0.037,0.04,0.004281315156375301,-6.129,-7.046605741780272
1621787284298.139,-0.033,0.042,0.037,0.007376102646351243,-6.129,-7.02246639935846
1621787284302.133,-0.03469674341422942,0.03860651317154117,0.037848371707114706,0.01,-6.129,-7.002
1621787284302.847,-0.035,0.038,0.038,0.01,-6.129,-7.002939920923206
1621787284307.553,-0.037,0.042,0.037,0.01,-6.129,-7.009136198527758
1621787284312.255,-0.04,0.044,0.037,0.01,-6.129,-7.015327011475779
1621787284316.955,-0.042,0.035,0.037,0.01,-6.129,-7.0215155742711115
1621787284317.323,-0.041843298325881254,0.035,0.03645154414058438,0.01,-6.129,-7.022
1621787284321.651,-0.04,0.035,0.03,0.007145594486667526,-6.131854405513332,-7.027423370475332
1621787284326.345,-0.044,0.042,0.031,0.004049658637124823,-6.134950341362875,-7.033305648589463
1621787284331.036,-0.04,0.038,0.033,0.0009558160504959425,-6.138044183949504,-7.039183949504058
1621787284332.485,-0.04061810798146509,0.03707283802780236,0.03238189201853491,0.0,-6.139,-7.041
1621787284335.725,-0.042,0.035,0.031,0.0021410363964894166,-6.143282072792979,-7.045282072792979
1621787284340.41,-0.045,0.038,0.037,0.005236835312338668,-6.149473670624677,-7.051473670624677
1621787284345.093,-0.047,0.044,0.031,0.008331504904491482,-6.155663009808983,-7.057663009808983
1621787284347.618,-0.0416037046699713,0.04669814766501435,0.03207925906600574,0.01,-6.159,-7.061
1621787284349.772,-0.037,0.049,0.033,0.012709854191587728,-6.159,-7.058147521903592
1621787284354.449,-0.042,0.04,0.035,0.01859364391710582,-6.159,-7.0519540590346255
1621787284359.122,-0.049,0.037,0.033,0.02447251947884,-6.159,-7.045765768969642
1621787284362.721,-0.04745934364548495,0.037,0.03145934364548495,0.029,-6.159,-7.041
1621787284363.794,-0.047,0.037,0.031,0.027647363732080668,-6.157576172349558,-7.041
1621787284368.462,-0.056,0.031,0.035,0.021762857374260952,-6.151381955130801,-7.041
1621787284373.127,-0.059,0.035,0.035,0.01588204422126832,-6.145191625496072,-7.041
1621787284377.79,-0.056,0.033,0.038,0.01000369320482708,-6.139003887584029,-7.041
1621787284377.793,-0.055998742599675175,0.03300314350081207,0.03799937129983758,0.01,-6.139,-7.041
1621787284382.45,-0.054,0.038,0.037,0.01,-6.139,-7.041
1621787284387.107,-0.058,0.033,0.04,0.01,-6.139,-7.041
1621787284391.76,-0.058,0.035,0.037,0.01,-6.139,-7.041
1621787284392.837,-0.058,0.03546297559695618,0.03607404880608764,0.01,-6.139,-7.041
1621787284396.412,-0.058,0.037,0.033,0.01,-6.143763438236968,-7.0457634382369685
1621787284401.06,-0.054,0.028,0.035,0.01,-6.149956168171099,-7.051956168171099
1621787284405.706,-0.058,0.031,0.037,0.01,-6.156146295844515,-7.058146295844515
1621787284407.848,-0.05707715773418188,0.03376852679745437,0.037,0.01,-6.159,-7.061
1621787284410.348,-0.056,0.037,0.037,0.008331105968251899,-6.153993317904756,-7.057662211936504
1621787284414.988,-0.059,0.028,0.031,0.005233547377685061,-6.144700642133055,-7.05146709475537
1621787284419.625,-0.059,0.031,0.033,0.002138107500244466,-6.135414322500733,-7.045276215000489
1621787284422.828,-0.05692650545282124,0.03514698909435751,0.03438232969811918,0.0,-6.129,-7.041
1621787284424.259,-0.056,0.037,0.035,0.0,-6.129,-7.041
1621787284428.89,-0.061,0.033,0.031,0.0,-6.129,-7.041
1621787284433.518,-0.061,0.026,0.031,0.0,-6.129,-7.041
1621787284437.78,-0.06745053842905406,0.026,0.030078494510135133,0.0,-6.129,-7.041
1621787284438.143,-0.068,0.026,0.03,0.0,-6.129,-7.041948636579262
1621787284442.767,-0.066,0.031,0.03,0.0,-6.129,-7.054031472363535
1621787284447.386,-0.063,0.026,0.026,0.0,-6.129,-7.0661009111281965
1621787284452.003,-0.068,0.026,0.028,0.0,-6.129,-7.078165246266337
1621787284452.705,-0.06830435472776338,0.025695645272236625,0.027695645272236627,0.0,-6.129,-7.08
1621787284456.617,-0.07,0.024,0.026,-0.0076178664524484815,-6.129,-7.0852537010016885
1621787284461.229,-0.075,0.019,0.024,-0.01659927537419873,-6.129,-7.091447776120137
1621787284465.836,-0.07,0.017,0.023,-0.025570700198370412,-6.129,-7.0976349656540485
1621787284467.597,-0.06847068801017704,0.015088360012721298,0.02223534400508852,-0.029,-6.129,-7.1
1621787284470.442,-0.066,0.012,0.021,-0.02536316299544999,-6.1309141247392365,-7.107465086483024
1621787284475.045,-0.061,0.012,0.017,-0.01947893362243138,-6.134011087567141,-7.119543241511852
1621787284479.645,-0.063,0.01,0.019,-0.013598449383202746,-6.137106079271999,-7.131613709160795
1621787284482.46,-0.059937583001328024,0.011224966799468793,0.017162549800796813,-0.01,-6.139,-7.139
1621787284484.241,-0.058,0.012,0.016,-0.007598907247712462,-6.135518415509184,-7.136718961885327
1621787284488.836,-0.052,0.003,0.01,-0.00140412086103614,-6.126535975248503,-7.130833914817985
1621787284493.427,-0.051,0.003,0.012,0.004785399249555658,-6.117561171088145,-7.124953870712922
1621787284497.295,-0.04762861094855562,-0.0012142363143054736,0.009471458211416716,0.01,-6.11,-7.12
1621787284498.016,-0.047,-0.002,0.009,0.01,-6.11,-7.118051386919094
1621787284502.602,-0.045,-0.007,0.009,0.01,-6.11,-7.105660476928659
1621787284507.184,-0.042,0.0,0.01,0.01,-6.11,-7.093280121376035
1621787284511.764,-0.044,0.0,0.005,0.01,-6.11,-7.08090570269468
1621787284512.099,-0.043853531043311286,0.0,0.005,0.01,-6.11,-7.08
1621787284516.341,-0.042,0.0,0.005,0.01545534917539743,-6.098515054367585,-7.0688021780083945
1621787284520.915,-0.042,-0.002,0.003,0.021337706976897908,-6.086131143206531,-7.056727864626367
1621787284525.486,-0.042,-0.002,0.005,0.027216297055226893,-6.073755164094259,-7.0446612849919035
1621787284526.873,-0.04260713904029069,-0.0013928609597093087,0.004392860959709309,0.029,-6.07,-7.041
1621787284530.055,-0.044,0.0,0.003,0.029,-6.07,-7.041
1621787284534.62,-0.051,-0.01,0.0,0.029,-6.07,-7.041
1621787284539.184,-0.051,0.0,0.003,0.029,-6.07,-7.041
1621787284541.617,-0.053668291115514376,-0.004802924007925882,0.0013990253306913726,0.029,-6.07,-7.041
1621787284543.743,-0.056,-0.009,0.0,0.03188932760422715,-6.072889327604227,-7.041
1621787284548.301,-0.054,-0.009,-0.002,0.03808406191416295,-6.079084061914163,-7.041
1621787284552.854,-0.061,-0.012,0.0,0.044271828392255755,-6.085271828392256,-7.041
1621787284556.333,-0.05870716009654063,-0.009707160096540627,0.0015285599356395815,0.049,-6.09,-7.041
1621787284557.406,-0.058,-0.009,0.002,0.049,-6.093580299251871,-7.048160598503741
1621787284561.955,-0.065,-0.009,-0.002,0.049,-6.108759301745636,-7.078518603491272
1621787284566.5,-0.066,0.0,0.002,0.049,-6.123924455527847,-7.108848911055694
1621787284571.018,-0.066,-0.002983555460017197,-0.001978073946689596,0.049,-6.139,-7.139
1621787284571.043,-0.066,-0.003,-0.002,0.049,-6.1389830076465595,-7.139100254885302
1621787284575.583,-0.063,-0.009,0.002,0.049,-6.135885068385893,-7.157378096523232
1621787284580.121,-0.056,-0.002,0.0,0.049,-6.13278846185883,-7.175648075032902
1621787284584.654,-0.054,-0.007,-0.003,0.049,-6.129695353757476,-7.193897412830893
1621787284585.673,-0.052426008727037655,-0.007,-0.0034497117922749555,0.049,-6.129,-7.198
1621787284589.186,-0.047,-0.007,-0.005,0.03963341233809588,-6.1196334123380955,-7.198
1621787284593.714,-0.04,-0.014,-0.005,0.027560154893844304,-6.107560154893844,-7.198
1621787284598.24,-0.042,-0.014,-0.009,0.015492756042195216,-6.095492756042195,-7.198
1621787284600.3,-0.036989852099751704,-0.015366403972794991,-0.01036640397279499,0.01,-6.09,-7.198
1621787284602.763,-0.031,-0.017,-0.012,-0.003330300242535753,-6.070088918625073,-7.191419218867609
1621787284607.283,-0.037,-0.016,-0.014,-0.027794731119846115,-6.033547110479217,-7.179341841599063
1621787284611.8,-0.038,-0.019,-0.016,-0.05224330517688383,-5.997028987204149,-7.167272292381032
1621787284614.896,-0.038,-0.023800032444708807,-0.021485751365381497,-0.069,-5.972,-7.159
1621787284616.315,-0.038,-0.026,-0.024,-0.06510397010272997,-5.972,-7.147506711803053
1621787284620.826,-0.042,-0.031,-0.021,-0.0527180539960785,-5.972,-7.110968259288431
1621787284625.335,-0.045,-0.028,-0.024,-0.040337500628445974,-5.972,-7.074445626853916
1621787284629.464,-0.05783162629382756,-0.032582723676366984,-0.029499268411640384,-0.029,-5.972,-7.041
1621787284629.84,-0.059,-0.033,-0.03,-0.027500109150140218,-5.9745342983325225,-7.038207099796813
1621787284634.344,-0.061,-0.033,-0.028,-0.009532585514936777,-6.004893217578211,-7.004750331648503
1621787284638.843,-0.068,-0.035,-0.03,0.008415459018320432,-6.035219223858542,-6.971329834931403
1621787284643.341,-0.077,-0.031,-0.024,0.026359607731188398,-6.065538647545801,-6.937916592500546
1621787284644.003,-0.07744184277720433,-0.031,-0.024,0.029,-6.07,-6.933
1621787284647.835,-0.08,-0.031,-0.024,0.03956453919803463,-6.0805645391980345,-6.938282269599017
1621787284652.327,-0.093,-0.03,-0.026,0.05194839219909472,-6.092948392199095,-6.944474196099548
1621787284656.816,-0.094,-0.033,-0.026,0.06432416833532452,-6.105324168335325,-6.9506620841676625
1621787284658.512,-0.09664705241957433,-0.03224369930869305,-0.025243699308693048,0.069,-6.11,-6.953
1621787284661.301,-0.101,-0.031,-0.024,0.06129435769451284,-6.102294357694513,-6.969952413072072
1621787284665.785,-0.099,-0.033,-0.026,0.04890624262250852,-6.089906242622509,-6.9972062662304815
1621787284670.264,-0.099,-0.038,-0.026,0.03653161782064686,-6.0775316178206475,-7.0244304407945775
1621787284672.99,-0.09839123323519791,-0.037391233235197906,-0.03330520117762512,0.029,-6.07,-7.041
1621787284674.742,-0.098,-0.037,-0.038,0.033851024995352454,-6.07,-7.038695763127208
1621787284679.216,-0.103,-0.035,-0.033,0.04623952611921381,-6.07,-7.032811225093374
1621787284683.688,-0.099,-0.037,-0.037,0.05862194318162614,-6.07,-7.026929576988728
1621787284687.436,-0.099,-0.035322277471176444,-0.037,0.069,-6.07,-7.022
1621787284688.156,-0.099,-0.035,-0.037,0.06800128691411542,-6.07,-7.022948777431591
1621787284692.623,-0.098,-0.035,-0.04,0.061804795448387975,-6.07,-7.028835444324032
1621787284697.085,-0.096,-0.045,-0.044,0.05561541587645625,-6.07,-7.034715354917367
1621787284701.546,-0.094,-0.044,-0.045,0.0494273909509618,-6.07,-7.040593978596586
1621787284701.854,-0.09379257067718606,-0.04434571553802323,-0.04493085689239535,0.049,-6.07,-7.041
1621787284706.002,-0.091,-0.049,-0.044,0.05476586971645767,-6.041747238389358,-7.046765869716458
1621787284710.458,-0.089,-0.049,-0.037,0.060960022398316736,-6.011395890248249,-7.052960022398317
1621787284714.909,-0.091,-0.059,-0.042,0.06714704834303362,-5.981079463119135,-7.059147048343034
1621787284716.242,-0.09189886407287494,-0.05870037864237502,-0.040501893211875105,0.069,-5.972,-7.061
1621787284719.358,-0.094,-0.058,-0.037,0.09439101528625597,-5.959195983744538,-7.048195983744537
1621787284723.804,-0.098,-0.056,-0.031,0.13062041114757444,-5.940926459335839,-7.029926459335838
1621787284728.247,-0.101,-0.058,-0.028,0.1668259339239258,-5.922668973491354,-7.0116689734913535
1621787284730.6,-0.10576866410115449,-0.06223881253435954,-0.022171632765255637,0.186,-5.913,-7.002
1621787284732.688,-0.11,-0.066,-0.017,0.20611103726803334,-5.915914643082324,-6.999085356917676
1621787284737.124,-0.117,-0.07,-0.016,0.24883993660855785,-5.922107237189646,-6.992892762810354
1621787284741.559,-0.124,-0.068,-0.007,0.2915594294770206,-5.928298468040148,-6.986701531959852
1621787284744.927,-0.12932067882527964,-0.06571970907488016,-0.003959612099840212,0.324,-5.933,-6.982
1621787284745.99,-0.131,-0.065,-0.003,0.3254125501579442,-5.9387988901220865,-6.989285785025186
1621787284750.42,-0.134,-0.066,0.0,0.33129925723555026,-5.962965371809101,-7.019648800478102
1621787284754.845,-0.141,-0.061,0.0,0.337179475796124,-5.987105216426193,-7.049978348843166
1621787284759.225,-0.14298013354671374,-0.0560496661332156,0.0,0.343,-6.011,-7.08
1621787284759.269,-0.143,-0.056,0.0,0.3430615963726581,-6.011514329711695,-7.080363418598683
1621787284763.688,-0.14,-0.054,0.002,0.3492554538454958,-6.06323303960989,-7.116907177688425
1621787284768.106,-0.131,-0.049,0.0,0.3554479425100522,-6.114940319958936,-7.153442860809308
1621787284772.521,-0.127,-0.044,-0.002,0.3616363247497647,-6.1666133116605355,-7.189954316023612
1621787284773.494,-0.12523594510845507,-0.0426769588313413,-0.0015589862771137673,0.363,-6.178,-7.198
1621787284776.933,-0.119,-0.038,0.0,0.363,-6.211090187404626,-7.212250518663306
1621787284781.342,-0.105,-0.037,-0.009,0.363,-6.253510553298013,-7.230519143391115
1621787284785.748,-0.082,-0.031,-0.017,0.363,-6.2959027313409806,-7.248775628825677
1621787284787.733,-0.07568718801996673,-0.028745424292845257,-0.01970549084858569,0.363,-6.315,-7.257
1621787284790.15,-0.068,-0.026,-0.023,0.3659439383979716,-6.321197765048362,-7.238716593107334
1621787284794.551,-0.052,-0.021,-0.024,0.37130458258991456,-6.332483331768241,-7.205424171283688
1621787284798.949,-0.04,-0.024,-0.028,0.37666136100416314,-6.343760760008765,-7.172155757974145
1621787284803.332,-0.03266685728290172,-0.018866800098031208,-0.026533371456580343,0.382,-6.355,-7.139
1621787284804.926,-0.03,-0.017,-0.026,0.3781552364558797,-6.330846998248475,-7.118691761792595
1621787284809.932,-0.024,-0.017,-0.03,0.3660809476354412,-6.254995696684182,-7.0549147490487405
1621787284814.936,-0.028,-0.024,-0.03,0.35401078093857585,-6.179170290511567,-6.991159509572991
1621787284819.501,-0.03438468292682927,-0.03038468292682927,-0.03091209756097561,0.343,-6.11,-6.933
1621787284819.941,-0.035,-0.031,-0.031,0.343,-6.11,-6.924455846822904
1621787284824.945,-0.051,-0.037,-0.028,0.343,-6.11,-6.827269660546025
1621787284829.95,-0.061,-0.045,-0.028,0.343,-6.11,-6.730069249818797
1621787284834.954,-0.075,-0.047,-0.021,0.343,-6.11,-6.632883063541918
1621787284835.669,-0.07771428571428571,-0.047285714285714285,-0.021,0.343,-6.11,-6.619
1621787284839.958,-0.094,-0.049,-0.021,0.3326521476469522,-6.128042409230956,-6.6139587385972325
1621787284844.961,-0.108,-0.052,-0.014,0.32058200930344954,-6.1490877786503955,-6.60807841478886
1621787284849.966,-0.129,-0.056,-0.017,0.30850656980607744,-6.170142391107352,-6.602195508367063
1621787284851.834,-0.13310781921124562,-0.055253123779773525,-0.017746876220226474,0.304,-6.178,-6.6
1621787284854.968,-0.14,-0.054,-0.019,0.277434003021148,-6.18944083081571,-6.641885075528701
1621787284859.972,-0.15,-0.061,-0.019,0.23501780966767372,-6.207707658610272,-6.708760241691842
1621787284864.975,-0.159,-0.066,-0.024,0.1926078247734139,-6.2259718126888215,-6.775625619335347
1621787284867.996,-0.15356539137224282,-0.066,-0.026415381612336523,0.167,-6.237,-6.816
1621787284869.978,-0.15,-0.066,-0.028,0.1790177646188009,-6.246565159594556,-6.834026646928201
1621787284874.981,-0.15,-0.08,-0.035,0.2093538119911177,-6.27071017689089,-6.879530717986676
1621787284879.982,-0.148,-0.087,-0.037,0.2396780162842339,-6.294845768062962,-6.925017024426351
1621787284884.158,-0.14132259796027913,-0.09200805152979066,-0.043677402039720876,0.265,-6.315,-6.963
1621787284884.985,-0.14,-0.093,-0.045,0.27201322091775837,-6.318020292220057,-6.960491621715546
1621787284889.986,-0.131,-0.089,-0.044,0.3144154692292583,-6.336281114485593,-6.945325854071287
1621787284894.989,-0.127,-0.096,-0.044,0.3568342776846018,-6.354549068491909,-6.930154163455872
1621787284899.99,-0.126,-0.091,-0.045,0.39923652599610177,-6.372809890757445,-6.914988395811613
1621787284900.316,-0.12586965436438197,-0.09086965436438195,-0.04480448154657293,0.402,-6.374,-6.914
1621787284904.991,-0.124,-0.089,-0.042,0.42196767466110535,-6.351427846035272,-6.896926191231809
1621787284909.992,-0.124,-0.099,-0.042,0.4433274244004171,-6.327282041982137,-6.8786620573967445
1621787284914.993,-0.122,-0.098,-0.038,0.4646871741397289,-6.303136237929002,-6.860397923561681
1621787284916.471,-0.12318219097832454,-0.09652226127709432,-0.03770445225541886,0.471,-6.296,-6.855
1621787284919.994,-0.126,-0.093,-0.037,0.49651743421549804,-6.26612061121775,-6.863505811405166
1621787284924.995,-0.133,-0.087,-0.03,0.5327422879857322,-6.2237034747517495,-6.875580762661911
1621787284929.995,-0.136,-0.086,-0.021,0.5689582999561689,-6.181296691504315,-6.887652766652057
1621787284932.624,-0.142309375,-0.08652578124999999,-0.01731953125,0.588,-6.159,-6.894
1621787284934.995,-0.148,-0.087,-0.014,0.588,-6.143142714601034,-6.906920751065824
1621787284939.995,-0.148,-0.082,0.0,0.588,-6.109703957911287,-6.934167145405618
1621787284944.995,-0.159,-0.072,0.003,0.588,-6.07626520122154,-6.961413539745412
1621787284948.773,-0.16580175824175825,-0.06897699633699633,0.015092014652014651,0.588,-6.051,-6.982
1621787284949.994,-0.168,-0.068,0.019,0.5776428323079016,-6.0420792278272435,-6.9968175537784765
1621787284954.993,-0.178,-0.059,0.03,0.5352366404135992,-6.005554186633611,-7.057486266269596
1621787284959.993,-0.18,-0.058,0.042,0.49282216444195853,-5.969022010249278,-7.1181668304334025
1621787284964.923,-0.18295926143024618,-0.05602715904650254,0.05383704572098476,0.451,-5.933,-7.178
1621787284964.991,-0.183,-0.056,0.054,0.4491462182840899,-5.932503976774427,-7.1792778903438474
1621787284969.99,-0.183,-0.059,0.054,0.3126065261438897,-5.895969546677957,-7.273400489914416
1621787284974.988,-0.171,-0.065,0.059,0.17609350712190402,-5.859442253606314,-7.367504702573563
1621787284979.987,-0.154,-0.072,0.047,0.039553814981703794,-5.822907823509844,-7.461627302144132
1621787284981.069,-0.14902071121531849,-0.07762876123485736,0.04483509183274716,0.01,-5.815,-7.482
1621787284984.985,-0.131,-0.098,0.037,-0.16853217391304348,-5.7555701323251425,-7.534395311909263
1621787284989.983,-0.11,-0.119,0.01,-0.3963833043478261,-5.679722948960303,-7.601264665406427
1621787284994.98,-0.08,-0.154,-0.016,-0.6242010434782609,-5.603886880907373,-7.668124219281664
1621787284997.213,-0.06615054708870653,-0.1656156701836655,-0.032976748729972645,-0.726,-5.57,-7.698
1621787284999.978,-0.049,-0.18,-0.054,-0.870405729150912,-5.477669409238029,-7.629137481472519
1621787285004.976,-0.017,-0.199,-0.098,-1.1314223358238302,-5.310779787652379,-7.504666928824224
1621787285009.972,0.01,-0.237,-0.138,-1.3923241931092893,-5.143963534892162,-7.380251096524396
1621787285013.355,0.022183763188745605,-0.25866002344665884,-0.175905041031653,-1.569,-5.031,-7.296
1621787285014.97,0.028,-0.269,-0.194,-1.6180296475571019,-4.972064362426259,-7.2155513538042655
1621787285019.966,0.038,-0.298,-0.251,-1.7697065496899107,-4.789742535168658,-6.966677416427167
1621787285024.963,0.031,-0.325,-0.295,-1.9214056874905463,-4.607393979730752,-6.717766994403267
1621787285029.495,0.011038709677419357,-0.32953665689149564,-0.33492258064516134,-2.059,-4.442,-6.492
1621787285029.958,0.009,-0.33,-0.339,-2.066314261508903,-4.436378057820608,-6.475965991437346
1621787285034.955,-0.03,-0.344,-0.37,-2.1452743377558585,-4.375687175685694,-6.302873118409706
1621787285039.95,-0.08,-0.365,-0.403,-2.224199694407044,-4.315022979985175,-6.129856356182206
1621787285044.947,-0.15,-0.379,-0.431,-2.3031597706539992,-4.25433209785026,-5.956763483154567
1621787285045.633,-0.1612647274505011,-0.3787252505499878,-0.4336101197751161,-2.314,-4.246,-5.933
1621787285049.941,-0.232,-0.377,-0.45,-2.149268123288293,-4.536750427453888,-5.927660230900755
1621787285054.937,-0.319,-0.365,-0.456,-1.9582183570639593,-4.873951716624552,-5.921467369758961
1621787285059.932,-0.414,-0.342,-0.445,-1.7672152703172994,-5.211070616895398,-5.915276021728276
1621787285061.768,-0.44451041055718477,-0.3298693548387097,-0.4361777126099707,-1.697,-5.335,-5.913
1621787285064.927,-0.497,-0.309,-0.421,-1.389623129416393,-5.624952321868995,-6.164579158407602
1621787285069.921,-0.56,-0.278,-0.394,-0.9036973323851171,-6.083332006839262,-6.562295495468232
1621787285074.916,-0.621,-0.253,-0.361,-0.4176527561318828,-6.541823737687058,-6.960109049917536
1621787285077.903,-0.6443229874382912,-0.2392454176645975,-0.34246121511315314,-0.127,-6.816,-7.198
1621787285079.911,-0.66,-0.23,-0.33,0.019359322033898313,-6.944064406779661,-7.353071186440679
1621787285084.904,-0.679,-0.229,-0.271,0.38333559322033894,-7.262543644067796,-7.738712711864407
1621787285089.898,-0.661,-0.239,-0.211,0.7473652542372882,-7.581069597457627,-8.124410805084747
1621787285094.036,-0.6096293508017208,-0.2365143234258897,-0.17040061595619868,1.049,-7.845,-8.444
1621787285094.892,-0.599,-0.236,-0.162,1.0521319609475517,-7.881999606448194,-8.431472156209795
1621787285099.885,-0.497,-0.244,-0.113,1.0703959282524786,-8.097762067660637,-8.358416286990087
1621787285104.878,-0.412,-0.244,-0.079,1.0886598955574056,-8.31352452887308,-8.285360417770377
1621787285109.872,-0.354,-0.241,-0.033,1.106928328161659,-8.529339741164005,-8.212286687353364
1621787285110.165,-0.35094820756101136,-0.24117606494840318,-0.030124272509414587,1.108,-8.542,-8.208
1621787285114.864,-0.302,-0.244,0.016,1.0450708403971907,-8.33340148946476,-8.193724403608622
1621787285119.857,-0.229,-0.239,0.056,0.9782051344151127,-8.111754056672318,-8.178555794381207
1621787285124.849,-0.148,-0.227,0.082,0.9113492371034149,-7.890139137805764,-8.163389410268831
1621787285126.294,-0.13005877463204732,-0.2183187619187326,0.08894499046501393,0.892,-7.826,-8.159
1621787285129.842,-0.086,-0.197,0.106,0.8035558616931089,-7.607969798352912,-7.984311826329176
1621787285134.833,-0.056,-0.185,0.126,0.6791449679060191,-7.301275281579266,-7.738584837107909
1621787285139.825,-0.049,-0.171,0.155,0.5547097311372169,-6.99452075511687,-7.492809767470026
1621787285142.421,-0.053680246490927765,-0.16371961656966794,0.17060082163642587,0.49,-6.835,-7.365
1621787285144.817,-0.058,-0.157,0.185,0.42446435493640217,-6.746133070866142,-7.238238310115082
1621787285149.808,-0.086,-0.164,0.216,0.2879440036341611,-6.561010236220472,-6.974175136281041
1621787285154.8,-0.112,-0.157,0.243,0.15140361901877653,-6.375860236220473,-6.710073213204119
1621787285158.544,-0.13000322848896934,-0.157,0.2572525558871007,0.049,-6.237,-6.512
1621787285159.791,-0.136,-0.157,0.262,0.02471007996123092,-6.216500545190211,-6.465663496486552
1621787285164.782,-0.166,-0.175,0.283,-0.07250190816573782,-6.134458580688151,-6.280217697480009
1621787285169.772,-0.201,-0.182,0.311,-0.16969487521201837,-6.052432669008966,-6.094808183910831
1621787285174.665,-0.2294311500269041,-0.16827461722839115,0.3315880741574133,-0.265,-5.972,-5.913
1621787285174.763,-0.23,-0.168,0.332,-0.2677996092744317,-5.970572867289607,-5.911633596341113
1621787285179.752,-0.271,-0.15,0.365,-0.410467977162242,-5.897846042010571,-5.842001529584589
1621787285184.743,-0.312,-0.138,0.377,-0.5531921976041556,-5.825090745256016,-5.772342202904696
1621787285189.732,-0.356,-0.131,0.396,-0.6958605654919658,-5.752363919976981,-5.7027101361481725
1621787285190.786,-0.3644485542345516,-0.12719815059445178,0.3979009247027741,-0.726,-5.737,-5.688
1621787285194.722,-0.396,-0.113,0.405,-0.7450498091256135,-5.799278222141429,-5.668705962552263
1621787285199.711,-0.435,-0.098,0.419,-0.7691958734775496,-5.878217278676605,-5.644250333272738
1621787285204.701,-0.48,-0.077,0.438,-0.7933466642428649,-5.957171786947828,-5.61978991698479
1621787285206.902,-0.49853056031318815,-0.07788240763396134,0.44594166870565205,-0.804,-5.992,-5.609
1621787285209.69,-0.522,-0.079,0.456,-0.8430949084243535,-6.0411281150111344,-5.62595265940525
1621787285214.678,-0.559,-0.063,0.464,-0.9130439472209178,-6.129028677038676,-5.656284543485176
1621787285219.667,-0.576,-0.042,0.473,-0.9830066807047311,-6.216946448319219,-5.686622365969308
1621787285223.018,-0.5840618667710831,-0.03393813322891684,0.473,-1.03,-6.276,-5.707
1621787285224.655,-0.588,-0.03,0.473,-1.0548901498507552,-6.291950014394157,-5.733921998818164
1621787285229.644,-0.592,-0.005,0.473,-1.1307484961893361,-6.340561281231533,-5.8159728632252
1621787285234.631,-0.597,0.007,0.473,-1.2065771451082592,-6.389153517477538,-5.897991605933424
1621787285239.131,-0.5988039637876192,0.022333692194763888,0.4711960362123807,-1.275,-6.433,-5.972
1621787285239.62,-0.599,0.024,0.471,-1.2833157368405101,-6.435974241643686,-5.980042592199764
1621787285244.607,-0.6,0.037,0.459,-1.3681171550653048,-6.466304675899269,-6.062058562380678
1621787285249.594,-0.6,0.047,0.45,-1.4529227249310583,-6.496636595048335,-6.144078547834783
1621787285254.581,-0.597,0.063,0.443,-1.5377282947968118,-6.526968514197399,-6.226098533288888
1621787285255.244,-0.5955382506974695,0.06525906710391073,0.4426013410993099,-1.549,-6.531,-6.237
1621787285259.569,-0.586,0.08,0.44,-1.5938356797551032,-6.559995529422462,-6.329087653628745
1621787285264.555,-0.576,0.082,0.442,-1.6455197084274176,-6.59341993119857,-6.435241077788049
1621787285269.542,-0.572,0.094,0.438,-1.6972163911073392,-6.626852516404747,-6.5414204919150745
1621787285271.354,-0.5683658620183126,0.09727072418351858,0.4347292758164814,-1.716,-6.639,-6.58
1621787285274.528,-0.562,0.103,0.429,-1.7429959228833853,-6.665995922883385,-6.659214313862196
1621787285279.514,-0.548,0.105,0.431,-1.785401179180939,-6.708401179180939,-6.783644335990785
1621787285284.5,-0.536,0.101,0.428,-1.8278085119282186,-6.750808511928218,-6.908080451059444
1621787285287.462,-0.5193669881995789,0.09684174704989473,0.4256238554570827,-1.853,-6.776,-6.982
1621787285289.486,-0.508,0.094,0.424,-1.855513719188673,-6.824137722463087,-7.01404991965558
1621787285294.471,-0.494,0.093,0.424,-1.8617041809416972,-6.942685065033502,-7.09297830700664
1621787285299.457,-0.469,0.072,0.421,-1.8678961586271716,-7.0612614377103355,-7.171926022496438
1621787285303.567,-0.4450904104221765,0.072,0.41357978254481337,-1.873,-7.159,-7.237
1621787285304.442,-0.44,0.072,0.412,-1.868761666515055,-7.195243185057158,-7.253518633069529
1621787285309.427,-0.401,0.07,0.41,-1.8446147548439915,-7.4017302374238145,-7.347629673428545
1621787285314.412,-0.347,0.079,0.405,-1.8204678431729282,-7.608217289790472,-7.441740713787562
1621787285319.396,-0.281,0.094,0.396,-1.796326844355499,-7.814653779677976,-7.535828709178569
1621787285319.67,-0.27704368480336944,0.09526382291003477,0.39512081884519323,-1.795,-7.826,-7.541
1621787285324.381,-0.209,0.117,0.38,-1.7891472809438598,-7.906182251069121,-7.653079569925086
1621787285329.364,-0.138,0.145,0.361,-1.782956992508568,-7.990989202632616,-7.77162359346092
1621787285334.349,-0.058,0.18,0.34,-1.776763974401747,-8.075833550696066,-7.890219890206546
1621787285335.769,-0.03549270108748898,0.18683766042911726,0.33458685216028217,-1.775,-8.1,-7.924
1621787285339.333,0.021,0.204,0.321,-1.6990529357338955,-8.078300838781113,-7.897872438532361
1621787285344.316,0.108,0.236,0.305,-1.5928685555673527,-8.047962444447815,-7.861342535151451
1621787285349.3,0.18,0.26,0.29,-1.486658162568824,-8.017616617876808,-7.824803682749625
1621787285351.865,0.21861364304616288,0.2692672743310791,0.28691090855630696,-1.432,-8.002,-7.806
1621787285354.282,0.255,0.278,0.284,-1.348059700586995,-7.993140469292724,-7.648480547255381
1621787285359.265,0.328,0.309,0.284,-1.1750070227062446,-7.974875517602269,-7.323735897708141
1621787285364.248,0.391,0.337,0.304,-1.0019458660073715,-7.956609671009723,-6.998975337105067
1621787285367.961,0.4342172464478197,0.3444512493875551,0.31964762371386574,-0.873,-7.943,-6.757
1621787285369.231,0.449,0.347,0.325,-0.8868877815699658,-7.84318156996587,-6.711312354948805
1621787285374.212,0.497,0.375,0.332,-0.9413550094804702,-7.45169836935912,-6.53212755403868
1621787285379.195,0.525,0.387,0.347,-0.9958462646947288,-7.060042472506636,-6.352863708759954
1621787285384.056,0.5425659249093226,0.4133488873639839,0.3674935790608764,-1.049,-6.678,-6.178
1621787285384.176,0.543,0.414,0.368,-1.0432900920855015,-6.657138310299316,-6.1944728977350305
1621787285389.158,0.525,0.428,0.393,-0.8064681796805073,-5.791887009420939,-6.877696375745256
1621787285394.139,0.489,0.461,0.396,-0.5696926892910782,-4.9268053157758995,-7.560785927757634
1621787285399.121,0.41,0.52,0.426,-0.3328591713821928,-4.061511613089188,-8.244042887267321
1621787285400.149,0.38730569440360674,0.5272209154170342,0.4342524747623248,-0.284,-3.883,-8.385
1621787285404.103,0.3,0.555,0.466,-0.1345854184052803,-3.82770677490327,-8.874037857522191
1621787285409.083,0.166,0.56,0.494,0.05359429481829908,-3.7580679007662545,-9.489955011000683
1621787285414.063,0.066,0.571,0.51,0.24177400804187849,-3.688429026629239,-10.105872164479175
1621787285416.239,0.03804038819723557,0.5884747573767277,0.5252904127046368,0.324,-3.658,-10.375
1621787285419.044,0.002,0.611,0.545,0.4538990013962241,-4.1385391246281795,-10.311881290596734
1621787285424.025,-0.012,0.644,0.592,0.6845717689552601,-4.991873550658653,-10.199795999514357
1621787285429.004,0.016,0.635,0.642,0.9151540854731985,-5.844873368542464,-10.087754659139197
1621787285432.326,0.072687496936725,0.6016544135666323,0.6526705876586777,1.069,-6.414,-10.013
1621787285433.985,0.101,0.585,0.658,0.9900846994535519,-6.441233515482695,-9.919848998178507
1621787285438.964,0.237,0.525,0.66,0.7532691256830601,-6.52295810564663,-9.640313752276867
1621787285443.944,0.4,0.45,0.644,0.5164071038251367,-6.604698724954463,-9.360723679417122
1621787285448.41,0.5542720407963126,0.3800394233598117,0.6224736687260959,0.304,-6.678,-9.11
1621787285448.923,0.572,0.372,0.62,0.30275541993077065,-6.62135565069533,-9.05619584623793
1621787285453.902,0.695,0.295,0.574,0.2906802696301694,-6.0717815023987365,-8.534177810165787
1621787285458.88,0.75,0.239,0.539,0.27860807979595553,-5.522342093277464,-8.012287757332848
1621787285463.86,0.742,0.197,0.501,0.26652996902896703,-4.9726332058055505,-7.490141738021498
1621787285464.491,0.7335070885454992,0.19370424331616384,0.49567608535688007,0.265,-4.903,-7.424
1621787285468.837,0.675,0.171,0.459,0.013109255435442724,-4.606244594922871,-7.1561633821207336
1621787285473.816,0.565,0.143,0.403,-0.27547339973278273,-4.266262024778331,-6.8493120824729745
1621787285478.795,0.4,0.133,0.351,-0.5640560549010082,-3.926279454633791,-6.5424607828252155
1621787285480.571,0.33005493966447563,0.13656862552732268,0.3303019719415285,-0.667,-3.805,-6.433
1621787285483.772,0.204,0.143,0.293,-0.7040305367853618,-4.025590509452585,-6.520798208184648
1621787285488.75,-0.003,0.168,0.255,-0.7616197858932503,-4.36864904714904,-6.6573404601017385
1621787285493.727,-0.201,0.216,0.209,-0.8191977374534963,-4.711640285475666,-6.793855925897805
1621787285496.649,-0.29726051986267776,0.2553259440902403,0.18493487003433057,-0.853,-4.913,-6.874
1621787285498.705,-0.365,0.283,0.168,-0.8015933191618585,-5.1337162465836625,-7.1286037351958695
1621787285503.681,-0.48,0.363,0.126,-0.6771906164591558,-5.667843273610689,-7.744737518979654
1621787285508.658,-0.55,0.456,0.084,-0.5527573944731248,-6.202101336167629,-8.361022456726388
1621787285512.728,-0.5753507799470224,0.523874668890415,0.0480182478171294,-0.451,-6.639,-8.865
1621787285513.635,-0.581,0.539,0.04,-0.37297772243397975,-6.654514191128457,-8.970665745394907
1621787285518.612,-0.567,0.597,-0.007,0.05516821308712089,-6.7396480539399555,-9.55050474556195
1621787285523.587,-0.515,0.639,-0.031,0.4831251309775097,-6.824744331900806,-10.130087758728038
1621787285528.564,-0.424,0.668,-0.047,0.9112710664986103,-6.909878194712305,-10.709926758895081
1621787285528.805,-0.41852689174600055,0.6693077338306017,-0.047193738345274315,0.932,-6.914,-10.738
1621787285533.539,-0.311,0.695,-0.051,1.243936154699154,-6.731963603773298,-10.671724613024258
1621787285538.515,-0.195,0.703,-0.051,1.5717980890461942,-6.54063340979174,-10.60206556181738
1621787285543.49,-0.087,0.716,-0.044,1.8996117634549075,-6.34933137883368,-10.532416764138476
1621787285544.877,-0.06079972524776763,0.7218532528701795,-0.043442547345697184,1.991,-6.296,-10.513
1621787285548.466,0.007,0.737,-0.042,1.9865334437237,-6.04408622601668,-10.230490315524024
1621787285553.441,0.091,0.745,-0.04,1.9803423671137983,-5.694909505218224,-9.838904719947742
1621787285558.416,0.138,0.759,-0.033,1.9741509866771993,-5.345715648594042,-9.447299907332857
1621787285560.948,0.1466518304053391,0.7579821375993718,-0.03198213759937187,1.971,-5.168,-9.248
1621787285563.391,0.155,0.757,-0.031,1.8860055002658969,-5.0650639064043155,-9.022817792296589
1621787285568.365,0.141,0.744,-0.03,1.7129673326749222,-4.85549889842741,-8.564374990503683
1621787285573.339,0.103,0.73,-0.037,1.5399206715794271,-4.645923604041632,-8.105909686241738
1621787285577.016,0.07342368304776867,0.7152118415238843,-0.04439407923805783,1.412,-4.491,-7.767
1621787285578.312,0.063,0.71,-0.047,1.340861024160462,-4.487047834675581,-7.691828202400851
1621787285583.287,0.002,0.703,-0.054,1.0677506154079928,-4.471875034189333,-7.403235344172618
1621787285588.26,-0.063,0.7,-0.068,0.7947608266220939,-4.4567089348123385,-7.114769943777541
1621787285593.083,-0.11148328670298925,0.7,-0.07478766013841849,0.53,-4.442,-6.835
1621787285593.234,-0.113,0.7,-0.075,0.5209722737360533,-4.441633630255677,-6.831411455324841
1621787285598.206,-0.159,0.7,-0.089,0.22346633022223578,-4.429560027969477,-6.713152068829234
1621787285603.18,-0.185,0.707,-0.11,-0.07414186909068798,-4.417482275864166,-6.5948520353874684
1621787285608.152,-0.209,0.707,-0.138,-0.3716478126045055,-4.4054086735779645,-6.476592648891862
1621787285609.144,-0.21179257695517698,0.7052047719573862,-0.14418356325789192,-0.431,-4.403,-6.453
1621787285613.125,-0.223,0.698,-0.169,-0.5041155190758474,-4.468680042559659,-6.389798449612403
1621787285618.097,-0.236,0.691,-0.199,-0.5954314485484116,-4.550709606323149,-6.310864341085272
1621787285623.07,-0.232,0.672,-0.225,-0.6867697978416172,-4.632759309925521,-6.231910852713178
1621787285625.206,-0.2251262460103118,0.6569636631475572,-0.23788828873066536,-0.726,-4.668,-6.198
1621787285628.042,-0.216,0.637,-0.255,-0.7189361326907582,-4.721685391550238,-6.1753956246104265
1621787285633.013,-0.201,0.592,-0.278,-0.7065542970947292,-4.815787342080059,-6.135773750703134
1621787285637.985,-0.185,0.541,-0.309,-0.6941694209222069,-4.909912400991228,-6.096142146951062
1621787285641.265,-0.17708251068218653,0.49613422719905703,-0.32945351407101814,-0.686,-4.972,-6.07
1621787285642.956,-0.173,0.473,-0.34,-0.6044910152330567,-5.020547341056281,-6.077266304843565
1621787285647.928,-0.166,0.401,-0.36,-0.36485907142205604,-5.163273860561282,-6.098628842470127
1621787285652.898,-0.157,0.346,-0.367,-0.12532126242816755,-5.3059443126881325,-6.119982988233148
1621787285657.324,-0.1463154560188596,0.3130559893914837,-0.36521924266980993,0.088,-5.433,-6.139
1621787285657.869,-0.145,0.309,-0.365,0.11030200903380834,-5.450651513999361,-6.158654281933904
1621787285662.84,-0.124,0.279,-0.339,0.31375788176965314,-5.611682037321491,-6.33795557617143
1621787285667.81,-0.106,0.239,-0.321,0.5171637948078415,-5.772673018721579,-6.517212841999605
1621787285672.78,-0.075,0.173,-0.309,0.7205697078460299,-5.933664000121667,-6.69647010782778
1621787285673.377,-0.06959522522965073,0.1626708748833325,-0.30791904504593015,0.745,-5.953,-6.718
1621787285677.75,-0.03,0.087,-0.3,0.5553771845767739,-6.000950597003574,-6.827523522701346
1621787285682.721,0.028,-0.012,-0.302,0.33982838238649327,-6.055457190660887,-6.952021537759525
1621787285687.69,0.113,-0.131,-0.321,0.12436427104722791,-6.10994236824093,-7.076470636550308
1621787285689.428,0.14972652680194565,-0.17192384415073947,-0.33324217560064856,0.049,-6.129,-7.12
1621787285692.659,0.218,-0.248,-0.356,-0.0713877876994691,-6.113297245082678,-7.104095927711943
1621787285697.628,0.34,-0.353,-0.4,-0.256536090786011,-6.089147466419216,-7.079636536501514
1621787285702.597,0.485,-0.433,-0.438,-0.4416843938725528,-6.064997687755754,-7.0551771452910845
1621787285705.477,0.5730848848062091,-0.4764629365820111,-0.4553851746328045,-0.549,-6.051,-7.041
1621787285707.567,0.637,-0.508,-0.468,-0.5336333597030366,-5.86829325138441,-7.061445445140875
1621787285712.535,0.792,-0.55,-0.485,-0.4971034808008276,-5.4339591827420435,-7.110048758595509
1621787285717.502,0.949,-0.592,-0.487,-0.4605807825716546,-4.999710491085011,-7.158642518103816
1621787285721.525,1.0526301282366235,-0.6300516877118852,-0.48861922075369724,-0.431,-4.648,-7.198
1621787285722.471,1.077,-0.639,-0.489,-0.4004046369403496,-4.521433054934356,-7.1823780901525875
1621787285727.439,1.162,-0.693,-0.485,-0.2397375290949751,-3.856785115543182,-7.100341898285489
1621787285732.407,1.211,-0.723,-0.475,-0.07907042124960062,-3.1921371761520088,-7.018305706418389
1621787285737.375,1.22,-0.723,-0.438,0.08159668659577385,-2.5274892367608355,-6.936269514551291
1621787285737.573,1.2193620765940711,-0.722362076594071,-0.4370829851039772,0.088,-2.501,-6.933
1621787285742.341,1.204,-0.707,-0.415,-0.1013086919471666,-2.4106548785683852,-6.29493757988922
1621787285747.309,1.134,-0.71,-0.44,-0.29855613549211757,-2.3165210907541542,-5.630117703451214
1621787285752.275,1.018,-0.719,-0.529,-0.4957163400085216,-2.222428936636436,-4.965591864994826
1621787285753.617,0.983422576047963,-0.7165687748783723,-0.5549330679640277,-0.549,-2.197,-4.786
1621787285757.243,0.89,-0.71,-0.625,0.09379108838568284,-2.9062399561723886,-4.8192244338933525
1621787285762.208,0.806,-0.644,-0.654,0.9739716946676403,-3.8774096968590213,-4.86471900109569
1621787285767.175,0.784,-0.51,-0.593,1.85449853907962,-4.8489614682249815,-4.91023146457268
1621787285769.66,0.7794975669697715,-0.38843430818382896,-0.536469451953797,2.295,-5.335,-4.933
1621787285772.142,0.775,-0.267,-0.48,1.8078209327812957,-5.383594100097419,-5.301788982586459
1621787285777.107,0.717,-0.052,-0.365,0.8333669629810034,-5.480791859473941,-6.039439494033122
1621787285782.073,0.562,0.019,-0.354,-0.1413265952264977,-5.578013516804676,-6.77727137116415
1621787285785.699,0.4027957909229483,-0.012402665093179912,-0.43579298814967793,-0.853,-5.649,-7.316
1621787285787.038,0.344,-0.024,-0.466,-0.8457227222699655,-5.83713416858896,-7.415731783436609
1621787285792.043,0.157,-0.068,-0.574,-0.8185241455214317,-6.540279192485714,-7.788475914785834
1621787285797.067,0.068,-0.08,-0.618,-0.7912220815052693,-7.246099597449003,-8.16263829209824
1621787285801.892,0.09489110258030031,-0.09536634433160018,-0.5891881043782496,-0.765,-7.924,-8.522
1621787285802.091,0.096,-0.096,-0.588,-0.7500931079089077,-7.945158960320087,-8.531378102343492
1621787285807.115,0.176,-0.176,-0.525,-0.3737078006076833,-8.479403236966398,-8.768166556361122
1621787285812.139,0.251,-0.25,-0.497,0.002677506693541054,-9.013647513612707,-9.00495501037875
1621787285817.162,0.307,-0.314,-0.466,0.37900794199933807,-9.547813904515507,-9.241708943774256
1621787285818.123,0.3133107569721116,-0.32509163346613545,-0.46236653386454185,0.451,-9.65,-9.287
1621787285822.187,0.34,-0.372,-0.447,0.3698561971534318,-9.438625402461408,-9.387678422050373
1621787285827.211,0.354,-0.417,-0.443,0.2695451809947943,-9.177321397406192,-9.512138386543496
1621787285832.235,0.346,-0.485,-0.426,0.16922929016339183,-8.91600469412933,-9.636604399241717
1621787285834.35,0.3325285256098746,-0.5094170473321022,-0.4095816405870347,0.127,-8.806,-9.689
1621787285837.259,0.314,-0.543,-0.387,-0.06283262874422668,-8.668868780935473,-9.771637244429733
1621787285842.283,0.239,-0.597,-0.328,-0.3906862447155818,-8.432034015857015,-9.914357279333224
1621787285847.307,0.175,-0.651,-0.279,-0.718539860686937,-8.195199250778558,-10.057077314236713
1621787285850.578,0.14505160600612274,-0.6907141746440546,-0.26923421934982267,-0.932,-8.041,-10.15
1621787285852.331,0.129,-0.712,-0.264,-1.0442318175664496,-7.941514433129259,-10.15
1621787285857.355,0.12,-0.771,-0.26,-1.3658452894899142,-7.6564268415589884,-10.15
1621787285862.38,0.119,-0.84,-0.251,-1.6875212773958697,-7.37128383399269,-10.15
1621787285866.808,0.11106754458428494,-0.8717298216628602,-0.2421861606492055,-1.971,-7.12,-10.15
1621787285867.404,0.11,-0.876,-0.241,-1.9414704413114459,-7.079268307729345,-10.130901280450189
1621787285872.427,0.106,-0.906,-0.222,-1.6925801748393796,-6.735960713802079,-9.969927476264276
1621787285877.451,0.113,-0.932,-0.213,-1.4436415190863814,-6.392586373963678,-9.808922375528507
1621787285882.474,0.134,-0.939,-0.209,-1.1947391552940823,-6.049262093558628,-9.647940747205128
1621787285883.034,0.13790003887647004,-0.9366599766741179,-0.20888857031781513,-1.167,-6.011,-9.63
1621787285887.498,0.169,-0.918,-0.208,-0.8756833910034603,-5.779102076124568,-9.287517301038063
1621787285892.521,0.195,-0.908,-0.187,-0.5478984353843841,-5.51817410862043,-8.902161050097789
1621787285897.544,0.195,-0.895,-0.159,-0.22011347976530782,-5.257246141116293,-8.516804799157514
1621787285899.262,0.18508343456922105,-0.8898707420185626,-0.15113513776179602,-0.108,-5.168,-8.385
1621787285902.568,0.166,-0.88,-0.136,0.009974451566308565,-5.090165387740363,-7.999290782702897
1621787285907.59,0.105,-0.866,-0.122,0.18917504739550417,-4.971936324516265,-7.413406969396046
1621787285912.614,0.024,-0.841,-0.108,0.36844533718515843,-4.853661280129999,-6.8272952965604405
1621787285915.488,-0.02578920758385999,-0.8192529897909577,-0.09941565386485172,0.471,-4.786,-6.492
1621787285917.636,-0.063,-0.803,-0.093,0.5215746316945811,-4.7469436744766975,-6.3543099032398835
1621787285922.659,-0.152,-0.756,-0.08,0.6398427008562442,-4.655611003265466,-6.03232353693588
1621787285927.681,-0.23,-0.702,-0.068,0.7580877763231155,-4.564296088965133,-5.710399771266911
1621787285931.712,-0.29177885222799943,-0.6554652801399485,-0.052755867632052096,0.853,-4.491,-5.452
1621787285932.705,-0.307,-0.644,-0.049,0.8860562494356998,-4.5252193396936224,-5.410006320161314
1621787285937.727,-0.379,-0.581,-0.023,1.0532064586029435,-4.698250759924158,-5.197663647034038
1621787285942.749,-0.443,-0.51,0.019,1.220356667770187,-4.871282180154694,-4.985320973906763
1621787285947.772,-0.513,-0.445,0.061,1.3875393806241911,-5.044347247720228,-4.772937009058898
1621787285947.936,-0.5152214876033058,-0.4421578026251823,0.062143412736995626,1.393,-5.05,-4.766
1621787285952.794,-0.581,-0.358,0.096,1.2667660518047474,-5.320116718531548,-4.748351177858957
1621787285957.816,-0.641,-0.255,0.141,1.1362689006148619,-5.5993558832814685,-4.730106315488808
1621787285962.838,-0.661,-0.18,0.182,1.0057717494249763,-5.878595048031389,-4.711861453118658
1621787285964.176,-0.6639308735598659,-0.16001677118273297,0.19212483593408194,0.971,-5.953,-4.707
1621787285967.86,-0.672,-0.105,0.22,0.7302456610823189,-6.091223454260576,-4.945708268048692
1621787285972.882,-0.649,-0.035,0.248,0.4020603230083163,-6.2796433650717125,-5.271104495600819
1621787285977.904,-0.6,0.017,0.269,0.07387498493431366,-6.468063275882849,-5.596500723152946
1621787285980.381,-0.5674396576874453,0.04413361859379558,0.2808401244772926,-0.088,-6.561,-5.757
1621787285982.925,-0.534,0.072,0.293,-0.3525736819132764,-6.547042052347195,-5.958370840294396
1621787285987.947,-0.443,0.105,0.297,-0.8748654896825754,-6.5194878313089815,-6.355894658418747
1621787285992.968,-0.332,0.131,0.283,-1.3970557336584337,-6.4919389684080615,-6.753341174876959
1621787285996.602,-0.24588842975206612,0.14113077297034515,0.2598439474963539,-1.775,-6.472,-7.041
1621787285997.99,-0.213,0.145,0.251,-1.8505717726759503,-6.45017576213775,-7.083792623259315
1621787286003.011,-0.086,0.155,0.208,-2.123959473089951,-6.371224614226572,-7.238598795634174
1621787286008.033,0.044,0.169,0.159,-2.397400346255175,-6.29225811065111,-7.393435077154686
1621787286012.819,0.16315297092288242,0.200456384323641,0.1075259165613148,-2.658,-6.217,-7.541
1621787286013.054,0.169,0.202,0.105,-2.6437924545345055,-6.214016560279417,-7.524953149464049
1621787286018.075,0.278,0.234,0.052,-2.3400581717451523,-6.150235457063712,-7.181897506925208
1621787286023.096,0.389,0.286,0.021,-2.036323888955799,-6.086454353848007,-6.838841864386366
1621787286028.117,0.475,0.335,0.003,-1.7325896061664459,-6.022673250632302,-6.495786221847525
1621787286029.036,0.48744539531265196,0.3414057181756297,0.0020848974034814744,-1.677,-6.011,-6.433
1621787286033.138,0.543,0.37,-0.002,-1.5231804767138963,-5.767874075858642,-6.073244470209145
1621787286038.158,0.595,0.391,-0.009,-1.3349387770466625,-5.470340731483294,-5.632981810790056
1621787286043.179,0.637,0.387,-0.026,-1.146660458042853,-5.172749506873654,-5.192633505488383
1621787286045.25,0.6551525143468534,0.38947534286548,-0.03177580001945336,-1.069,-5.05,-5.011
1621787286048.199,0.681,0.393,-0.04,-0.8620083423683893,-4.775344988555595,-4.850572370798699
1621787286053.22,0.712,0.421,-0.044,-0.5095792976749789,-4.307710667389471,-4.577424376581135
1621787286058.241,0.712,0.445,-0.042,-0.15715025298156848,-3.8400763462233467,-4.30427638236357
1621787286061.463,0.703014590020426,0.4661798949518529,-0.034940035016049024,0.069,-3.54,-4.129
1621787286063.261,0.698,0.478,-0.031,0.12445182128928309,-3.4062502070502494,-4.148519041093827
1621787286068.281,0.667,0.49,-0.024,0.27926517490099234,-3.0328403981388066,-4.203013341565149
1621787286073.301,0.632,0.49,0.03,0.43407852851270157,-2.6594305892273638,-4.257507642036471
1621787286077.676,0.5936535356482833,0.46298317284310864,0.09797782316895244,0.569,-2.334,-4.305
1621787286078.321,0.588,0.459,0.108,0.5284150602409639,-2.1970457228915663,-4.497778463855421
1621787286083.341,0.555,0.358,0.182,0.21255301204819277,-1.1311661445783132,-5.998123192771084
1621787286088.361,0.522,0.206,0.18,-0.10330903614457831,-0.06528656626506013,-7.498467921686747
1621787286093.38,0.457,0.035,0.134,-0.4190942771084337,1.000333825301205,-8.99844781626506
1621787286093.887,0.43821184709658595,0.026211992996790202,0.13086864118276434,-0.451,1.108,-9.15
1621787286098.4,0.271,-0.052,0.103,0.8289812547992228,0.44476987819383607,-9.720272144179955
1621787286103.419,-0.056,-0.129,0.175,2.2525059849135003,-0.2928381739614856,-10.354497447942546
1621787286108.439,-0.419,-0.288,0.382,3.676307692307691,-1.0305897435897435,-10.988846153846154
1621787286110.102,-0.4968684696954957,-0.3638803385543341,0.4635133767876253,4.148,-1.275,-11.199
1621787286113.458,-0.654,-0.517,0.628,3.4558149620527647,-3.250128478496567,-10.723950758944705
1621787286118.478,-0.744,-0.726,0.768,2.420407661727503,-6.204631008312251,-10.013346765449946
1621787286123.497,-0.681,-0.817,0.799,1.3852017829177212,-9.15855878809782,-9.302881008312252
1621787286126.315,-0.5776957875279697,-0.8181228718746959,0.7855255375036483,0.804,-10.817,-8.904
1621787286128.516,-0.497,-0.819,0.775,0.3779446126044726,-10.470779082900384,-9.60037924855056
1621787286133.535,-0.239,-0.829,0.707,-0.5934862435057602,-9.681375423537384,-11.188164099088924
1621787286138.554,0.051,-0.874,0.541,-1.5649643550937429,-8.891933363451546,-12.776026187787064
1621787286142.527,0.2940254888607841,-0.9048729448389922,0.36130362875766125,-2.334,-8.267,-14.033
1621787286143.573,0.358,-0.913,0.314,-2.182769638554217,-8.400487891566264,-13.778669759036145
1621787286148.591,0.625,-0.913,0.105,-1.4571886746987954,-9.040943102409638,-12.558430783132529
1621787286153.61,0.806,-0.805,-0.03,-0.7314665060240966,-9.68152295180723,-11.337954337349396
1621787286158.629,0.859,-0.572,-0.099,-0.005779638554217037,-10.322071641566264,-10.117537259036144
1621787286158.738,0.8572166974798092,-0.5653669845285588,-0.10000038921864357,0.01,-10.336,-10.091
1621787286163.647,0.777,-0.267,-0.145,0.5921180635054528,-10.018288320178346,-9.226606163764535
1621787286168.665,0.614,0.052,-0.168,1.1871772308248478,-9.69351357172983,-8.342995932999939
1621787286173.684,0.435,0.319,-0.171,1.7823522022052178,-9.368675619087787,-7.459213743447611
1621787286174.946,0.3945170015080022,0.35948299849199783,-0.16622250328355306,1.932,-9.287,-7.237
1621787286178.703,0.274,0.48,-0.152,1.9751049397590361,-8.630229036144579,-7.721119457831326
1621787286183.72,0.117,0.581,-0.14,2.0326696987951807,-7.753140180722892,-8.367639789156627
1621787286188.739,-0.009,0.684,-0.136,2.0902568674698796,-6.875709879518073,-9.014411807228916
1621787286191.157,-0.05767659367396594,0.7321946472019465,-0.13118053527980536,2.118,-6.453,-9.326
1621787286193.756,-0.11,0.784,-0.126,2.0787140920592844,-6.3664106518857695,-9.404571815881432
1621787286198.774,-0.185,0.876,-0.11,2.0028693366670685,-6.199242619592722,-9.556261326665863
1621787286203.792,-0.239,0.942,-0.099,1.9270208910712134,-6.032066453789613,-9.707958217857573
1621787286207.366,-0.24256110732704095,0.9598055366352047,-0.09472667120755084,1.873,-5.913,-9.816
1621787286208.81,-0.244,0.967,-0.093,1.8048445746475479,-5.940083986022413,-9.733055292806363
1621787286213.827,-0.202,0.949,-0.075,1.5680692854560792,-6.034175081335101,-9.444901313411254
1621787286218.845,-0.136,0.937,-0.066,1.331236383901675,-6.128289070972406,-9.156677220147007
1621787286223.575,-0.07377693430656934,0.9040029197080293,-0.07259941605839415,1.108,-6.217,-8.885
1621787286223.862,-0.07,0.902,-0.073,1.0987875866224768,-6.205201024404941,-8.85302229587225
1621787286228.879,-0.012,0.871,-0.089,0.9378131967460079,-5.99902997890931,-8.294255423320276
1621787286233.897,0.016,0.859,-0.084,0.7767996384453149,-5.792808767701115,-7.73535259114191
1621787286238.914,0.023,0.864,-0.073,0.6158174148840012,-5.586627689062971,-7.1765585266646585
1621787286239.781,0.021790354761788894,0.8645184193878047,-0.07213596768699207,0.588,-5.551,-7.08
1621787286243.931,0.016,0.867,-0.068,0.33959605881643967,-5.191710588164397,-6.751184886103411
1621787286248.948,0.0,0.873,-0.073,0.03928419910811132,-4.757341991081113,-6.353658671809088
1621787286253.965,-0.021,0.866,-0.101,-0.26102766060021687,-4.32297339399783,-5.956132457514764
1621787286255.986,-0.04154894134825991,0.86237371623266,-0.1110730104648333,-0.382,-4.148,-5.796
1621787286258.981,-0.072,0.857,-0.126,-0.5052706440677966,-4.060952813559322,-5.565722305084746
1621787286263.998,-0.141,0.85,-0.169,-0.7117768587570621,-3.9151290847457627,-5.179955073446328
1621787286269.014,-0.202,0.848,-0.206,-0.9182328286252354,-3.769340836158192,-4.794281702448211
1621787286272.191,-0.22986238442822385,0.8296361557177615,-0.23702856447688564,-1.049,-3.677,-4.55
1621787286274.031,-0.246,0.819,-0.255,-1.0211752004098607,-3.718226131637635,-4.47209056114761
1621787286279.047,-0.302,0.78,-0.297,-0.9453242872641794,-3.8306093213187875,-4.259708004339702
1621787286284.064,-0.365,0.73,-0.323,-0.8694622988367187,-3.9430089204990657,-4.0472944367428125
1621787286288.393,-0.42022374695863746,0.6678732846715328,-0.33508019464720196,-0.804,-4.04,-3.864
1621787286289.081,-0.429,0.658,-0.337,-0.7836175579765834,-4.06084953965312,-3.866505341832045
1621787286294.096,-0.489,0.576,-0.344,-0.6350456127661499,-4.212826258607959,-3.884767310097494
1621787286299.112,-0.545,0.476,-0.349,-0.48643750282536957,-4.364839971068216,-3.903033723611048
1621787286304.128,-0.592,0.37,-0.349,-0.3378366258306587,-4.5168462848273885,-3.9212992480749818
1621787286304.595,-0.5960028710462287,0.36078408759124087,-0.3494654501216545,-0.324,-4.531,-3.923
1621787286309.145,-0.635,0.271,-0.354,0.02874901671212643,-4.732089407616148,-4.217612833225335
1621787286314.16,-0.658,0.201,-0.33,0.4175357072891394,-4.953722584728522,-4.54232401030757
1621787286319.176,-0.672,0.166,-0.307,0.806417034614747,-5.175409710815413,-4.867114227158336
1621787286320.796,-0.6690928873959399,0.15469456209532156,-0.2986016746993817,0.932,-5.247,-4.972
1621787286324.191,-0.663,0.131,-0.281,1.0367832901320153,-5.3702251491952495,-5.3379032491409975
1621787286329.207,-0.627,0.101,-0.248,1.1915997347640004,-5.552289288082465,-5.878522273795889
1621787286334.222,-0.565,0.04,-0.232,1.3463785038278377,-5.734309120501537,-6.419009735366809
1621787286336.996,-0.5218619682663291,-0.020835685778253683,-0.23697746520003893,1.432,-5.835,-6.718
1621787286339.238,-0.487,-0.07,-0.241,1.2324026649382753,-5.8377683402921186,-6.851018751036281
1621787286344.253,-0.375,-0.199,-0.276,0.785933225811314,-5.843960704218984,-7.148561837722141
1621787286349.268,-0.232,-0.342,-0.325,0.339442051158374,-5.850153369609454,-7.44611940973426
1621787286353.193,-0.10366570941834999,-0.4280778778291555,-0.3711690435629107,-0.01,-5.855,-7.679
1621787286354.284,-0.068,-0.452,-0.384,0.028989193832798292,-5.815337417672681,-7.7133428132206
1621787286359.298,0.115,-0.545,-0.421,0.2082103359406791,-5.63302091905171,-7.871205995388163
1621787286364.313,0.318,-0.614,-0.435,0.387457657005923,-5.45067778933249,-8.029092236740969
1621787286369.329,0.504,-0.658,-0.422,0.5667486096667721,-5.268290274449519,-8.187016910069177
1621787286369.392,0.505884403759069,-0.6583266299849053,-0.42149749233091494,0.569,-5.266,-8.189
1621787286374.343,0.654,-0.684,-0.382,0.7038000391902688,-4.696538609951314,-8.311878947289088
1621787286379.358,0.738,-0.679,-0.328,0.8403416637776404,-4.1197199101638455,-8.436345462219073
1621787286384.372,0.768,-0.663,-0.283,0.9768633465474881,-3.5429854543810197,-8.560793798893627
1621787286385.589,0.7612048098924104,-0.650380361228762,-0.2735352709215715,1.01,-3.403,-8.591
1621787286389.387,0.74,-0.611,-0.244,0.8789166993276856,-3.1867946275136423,-8.377139588169676
1621787286394.401,0.661,-0.552,-0.211,0.705860788688233,-2.9013607283909675,-8.09480150140191
1621787286399.415,0.56,-0.508,-0.215,0.5327964515059243,-2.6159129307485904,-7.812449666857608
1621787286401.785,0.49808165749622635,-0.5004374543506841,-0.24383220528801675,0.451,-2.481,-7.679
1621787286404.429,0.429,-0.492,-0.276,0.3950010552498681,-2.9789498002562746,-7.5908383960202
1621787286409.444,0.339,-0.513,-0.401,0.28878403557699556,-3.9234451646943542,-7.423616265922967
1621787286414.457,0.351,-0.468,-0.545,0.18261355242330596,-4.86752672043416,-7.256467400316575
1621787286417.98,0.4563951404781614,-0.3661180308711107,-0.5864554219214101,0.108,-5.531,-7.139
1621787286419.471,0.501,-0.323,-0.604,0.24435354509957635,-5.6420346896624505,-7.3313312327569315
1621787286424.485,0.723,-0.052,-0.546,0.7029140673290014,-6.015447241862779,-7.978146175996141
1621787286429.499,0.901,0.23,-0.447,1.1614522621398742,-6.388841612519033,-8.624929625665224
1621787286434.174,0.9774728972872936,0.34284415331417717,-0.3929094141138655,1.589,-6.737,-9.228
1621787286434.512,0.983,0.351,-0.389,1.5132841378478608,-6.7357690173968106,-9.189130159495884
1621787286439.526,1.002,0.314,-0.447,0.3897460879790151,-6.717502623089215,-8.612345539240811
1621787286444.54,0.979,0.199,-0.557,-0.7338466698827149,-6.699235339343323,-8.035532833840866
1621787286449.553,0.948,0.11,-0.641,-1.8571658877800226,-6.680972502788917,-7.458860554165285
1621787286450.369,0.9362811084595529,0.09779282131203429,-0.6423020990600496,-2.04,-6.678,-7.365
1621787286454.566,0.876,0.035,-0.649,-1.6180459239826919,-6.8280684336695465,-6.963262396912269
1621787286459.579,0.77,-0.042,-0.599,-1.1140377221945814,-7.0073195078927135,-6.483402008231942
1621787286464.593,0.606,-0.134,-0.545,-0.6099558852352738,-7.186596770545931,-6.003471512355452
1621787286466.562,0.5289996590189487,-0.16228583954405962,-0.5269284914024064,-0.412,-7.257,-5.815
1621787286469.605,0.41,-0.206,-0.499,-0.4875382551145015,-7.201755604468499,-5.837172920655501
1621787286474.619,0.206,-0.279,-0.464,-0.6120030453332529,-7.110729116099561,-5.873707361565482
1621787286479.631,-0.005,-0.367,-0.433,-0.736425411949164,-7.019733653947626,-5.910229349776123
1621787286482.756,-0.1278071884283836,-0.42123464666634197,-0.3980903423756879,-0.814,-6.963,-5.933
1621787286484.644,-0.202,-0.454,-0.377,-0.916955866831519,-6.967547314616568,-6.19826001929978
1621787286489.656,-0.37,-0.541,-0.314,-1.1902755345134344,-6.9796191912186005,-6.902452821085009
1621787286494.669,-0.534,-0.609,-0.271,-1.4636484575254065,-6.991693419981303,-7.606782832242695
1621787286498.948,-0.6680154385623143,-0.6474120683777335,-0.2513671650513807,-1.697,-7.002,-8.208
1621787286499.682,-0.691,-0.654,-0.248,-1.7640840495792998,-7.024663530263276,-8.31071111915317
1621787286504.694,-0.819,-0.693,-0.267,-2.2222462378238186,-7.179448053318858,-9.012194577641063
1621787286509.707,-0.887,-0.757,-0.3,-2.6804753762176183,-7.334255194668114,-9.713780542235893
1621787286514.718,-0.864,-0.836,-0.342,-3.1385259808800026,-7.489002020567568,-10.415093157212219
1621787286515.139,-0.8553518725953343,-0.8421292553450542,-0.34569434568743,-3.177,-7.502,-10.474
1621787286519.731,-0.761,-0.909,-0.386,-3.040865257316908,-7.42145361057917,-10.707414360892052
1621787286524.742,-0.63,-0.983,-0.415,-2.8923105444895127,-7.333558738822962,-10.962123795594023
1621787286529.755,-0.497,-1.052,-0.44,-2.743697929703403,-7.245629608407847,-11.216932508029373
1621787286531.33,-0.46148036636461076,-1.071488648543311,-0.4450293286563383,-2.697,-7.218,-11.297
1621787286534.766,-0.384,-1.114,-0.456,-2.4117420298597496,-6.941019604886141,-10.93490915397376
1621787286539.778,-0.29,-1.164,-0.469,-1.9956513044789626,-6.537002940732921,-10.406746373096064
1621787286544.791,-0.236,-1.189,-0.475,-1.579479505353642,-6.132907555421506,-9.87848068164681
1621787286547.519,-0.22456740560292326,-1.1971661388550547,-0.47173354445797805,-1.353,-5.913,-9.591
1621787286549.802,-0.215,-1.204,-0.469,-1.1014668134254093,-5.799640873315039,-9.275737553149783
1621787286554.813,-0.208,-1.197,-0.449,-0.5493634389795241,-5.550822984831579,-8.583751485178372
1621787286559.824,-0.222,-1.19,-0.422,0.0027399354663610875,-5.30200509634812,-7.89176541720696
1621787286563.711,-0.24759272249013592,-1.1806935554581324,-0.39097851819377466,0.431,-5.109,-7.355
1621787286564.836,-0.255,-1.178,-0.382,0.529829235920485,-5.090582456034509,-7.249359747820579
1621787286569.847,-0.3,-1.147,-0.346,0.97003541371301,-5.008546846248982,-6.7788158728243495
1621787286574.858,-0.347,-1.103,-0.295,1.4102415915055353,-4.926511236463456,-6.30827199782812
1621787286579.869,-0.403,-1.072,-0.225,1.8504477692980603,-4.844475626677928,-5.837728122831891
1621787286579.898,-0.40342323995127893,-1.0716753227771012,-0.22463473812423873,1.853,-4.844,-5.835
1621787286584.88,-0.476,-1.016,-0.162,2.3238934873759463,-5.118841754396549,-5.376109679949323
1621787286589.891,-0.548,-0.929,-0.093,2.79755612198727,-5.395299749630479,-4.914520798769268
1621787286594.902,-0.597,-0.838,0.002,3.271195680371633,-5.671744276190764,-4.452954405598625
1621787286596.085,-0.6024292326431181,-0.8127422655298416,0.026549573690621192,3.383,-5.737,-4.344
1621787286599.913,-0.62,-0.731,0.106,3.4875301800850655,-6.019846369641941,-4.20257681517903
1621787286604.923,-0.637,-0.62,0.213,3.6243327199782813,-6.390017948176526,-4.017491025911737
1621787286609.934,-0.653,-0.499,0.311,3.761161925733764,-6.7602616813972425,-3.8323691593013787
1621787286612.272,-0.656733151405877,-0.4364697139515618,0.3581310364991959,3.825,-6.933,-3.746
1621787286614.944,-0.661,-0.365,0.412,3.436359549883851,-6.805214227531903,-3.987208027875826
1621787286619.955,-0.66,-0.25,0.497,2.707547741877093,-6.565579418951941,-4.439541949497692
1621787286624.964,-0.648,-0.124,0.545,1.9790200018101185,-6.326038012489818,-4.891699565571545
1621787286628.457,-0.6236031668696711,-0.05917412911084044,0.5554557856272838,1.471,-6.159,-5.207
1621787286629.975,-0.613,-0.031,0.56,1.2401269292859192,-6.103744315867292,-5.388246148971802
1621787286634.984,-0.565,0.054,0.564,0.4783720372354069,-5.921430772016113,-5.986259335254447
1621787286639.995,-0.49,0.141,0.559,-0.28375415277379634,-5.739028364086239,-6.584564007785037
1621787286644.639,-0.4139753363228699,0.21702466367713005,0.5460201793721974,-0.99,-5.57,-7.139
1621787286645.004,-0.408,0.223,0.545,-1.0107958420083885,-5.585923931082346,-7.148969373283848
1621787286650.014,-0.297,0.307,0.52,-1.2962483328807217,-5.804502519537733,-7.285813192118524
1621787286655.025,-0.19,0.379,0.499,-1.581756464801907,-6.0231237138287925,-7.422683684861652
1621787286660.034,-0.087,0.438,0.485,-1.8671533146253885,-6.241659696448508,-7.5595008297878765
1621787286660.821,-0.07364587495736075,0.44601247502558355,0.4820149602845865,-1.912,-6.276,-7.581
1621787286665.044,-0.002,0.489,0.466,-1.912,-6.276,-7.524628226986738
1621787286670.052,0.065,0.508,0.445,-1.912,-6.276,-7.457775351932043
1621787286675.062,0.124,0.532,0.415,-1.912,-6.276,-7.39089640448421
1621787286677.002,0.14646273821708827,0.541682214748745,0.4029940537115563,-1.912,-6.276,-7.365
1621787286680.071,0.182,0.557,0.384,-1.783790289973145,-6.157083597356748,-7.3871901421200326
1621787286685.081,0.236,0.546,0.337,-1.5744997435201111,-5.962963519507558,-7.4234135059292115
1621787286690.09,0.297,0.534,0.307,-1.3652499924564738,-5.768881279985516,-7.459629808997918
1621787286693.184,0.331590242238144,0.5197932933664766,0.2995878052346834,-1.236,-5.649,-7.482
1621787286695.099,0.353,0.511,0.295,-1.2997916019131825,-5.568875854368786,-7.4483880984353545
1621787286700.108,0.4,0.471,0.298,-1.4666386831027354,-5.359310967605655,-7.3604760927621955
1621787286705.116,0.45,0.422,0.302,-1.6334613666882931,-5.149776724957376,-7.272576942227319
1621787286709.365,0.48986879173368425,0.36940712579811863,0.2918207340254423,-1.775,-4.972,-7.198
1621787286710.125,0.497,0.36,0.29,-1.786038507386115,-4.905675010939599,-7.205844386099921
1621787286715.134,0.564,0.291,0.288,-1.8587905330979433,-4.468543690492358,-7.257544761818539
1621787286720.143,0.639,0.241,0.302,-1.9315425588097717,-4.031412370045117,-7.309245137537157
1621787286725.15,0.709,0.182,0.314,-2.004262671072684,-3.594472801895191,-7.360922834336759
1621787286725.545,0.7121544572793294,0.17766262124092216,0.31486747575181556,-2.01,-3.56,-7.365
1621787286730.159,0.749,0.127,0.325,-1.7864309382261518,-2.8048840872740444,-7.689232172496002
1621787286735.168,0.74,0.063,0.326,-1.5437214593958415,-1.9851204393879953,-8.041222832483328
1621787286740.176,0.679,-0.01,0.326,-1.3010592992727164,-1.1655166128496846,-8.393144868274135
1621787286741.725,0.6397168624774534,-0.023609905913323258,0.3201229951737922,-1.226,-0.912,-8.502
1621787286745.184,0.552,-0.054,0.307,-0.29717159799025283,-1.2852415166649065,-8.275618117899121
1621787286750.192,0.382,-0.059,0.316,1.0475579461955133,-1.825609246043122,-7.947869306094121
1621787286755.2,0.159,-0.014,0.403,2.3923530485688858,-2.366003319401904,-7.620104515895409
1621787286757.906,0.02659081378906822,0.0038347067141255072,0.47866239212053246,3.119,-2.658,-7.443
1621787286760.207,-0.086,0.019,0.543,3.104918187168923,-3.2758928781636256,-7.2630657249362365
1621787286765.215,-0.283,0.052,0.679,3.0742698872640015,-4.620703128537148,-6.871448559484463
1621787286770.222,-0.403,0.07,0.754,3.0436290578168155,-5.965185584280345,-6.4799268498815294
1621787286774.083,-0.4438616487105738,0.04841271388875348,0.7663355920635695,3.02,-7.002,-6.178
1621787286775.23,-0.456,0.042,0.77,2.755805303590564,-6.928967112908825,-6.440138430656384
1621787286780.238,-0.489,-0.021,0.684,1.6022451061774605,-6.610081712120984,-7.584720301251188
1621787286785.245,-0.506,-0.134,0.532,0.4489098510346077,-6.291258493442203,-8.729078980334153
1621787286790.253,-0.511,-0.232,0.384,-0.704594110810933,-5.972388638181626,-9.873605053050998
1621787286790.259,-0.5109963430688966,-0.2320451021502755,0.3838805402506217,-0.706,-5.972,-9.875
1621787286795.26,-0.508,-0.269,0.286,-0.4361035060446443,-6.654315649667206,-10.117690432708997
1621787286800.267,-0.506,-0.234,0.248,-0.16587761293146386,-7.337464041535235,-10.360677060537
1621787286805.274,-0.543,-0.141,0.22,0.1043351042154037,-8.02057912371523,-10.603651840560243
1621787286806.435,-0.5583052806085134,-0.11641879174996342,0.21257925788678142,0.167,-8.179,-10.66
1621787286810.281,-0.609,-0.035,0.188,0.26710132371364315,-8.596286990777775,-10.711358398864958
1621787286815.287,-0.691,0.098,0.145,0.39739889514437077,-9.139451451255038,-10.778209409385235
1621787286820.294,-0.716,0.239,0.108,0.5277155298627986,-9.682695379831856,-10.845070200594689
1621787286822.61,-0.6771434979764981,0.31347496221171195,0.10476195816470818,0.588,-9.934,-10.876
1621787286825.301,-0.632,0.4,0.101,0.83580303989867,-9.810181579661629,-11.162859857052384
1621787286830.311,-0.457,0.56,0.112,1.297168144395187,-9.579653744081547,-11.696941795590941
1621787286835.325,-0.225,0.71,0.124,1.7588929702343257,-9.348946168461051,-12.231440151994933
1621787286838.801,-0.06281072923765943,0.789015285756012,0.11776195112452537,2.079,-9.189,-12.602
1621787286840.34,0.009,0.824,0.115,2.1125344414472793,-8.988648337075604,-12.43613276269986
1621787286845.356,0.227,0.888,0.089,2.2218245904850886,-8.335693877243479,-11.895564490121913
1621787286850.37,0.396,0.934,0.08,2.3310775026748445,-7.682961889118281,-11.355180397534623
1621787286855.002,0.5169701630567048,0.9672437089316135,0.08369374543684595,2.432,-7.08,-10.856
1621787286855.386,0.527,0.97,0.084,2.4273297280921002,-7.048475664621677,-10.767908187533136
1621787286860.4,0.611,0.986,0.099,2.3663549193365143,-6.636895705521472,-9.61778641217905
1621787286865.375,0.653,1.004,0.117,2.305852185109445,-6.228502249488752,-8.476569022191926
1621787286870.35,0.648,1.03,0.138,2.2453494508823755,-5.820108793456033,-7.335351632204802
1621787286871.119,0.6441358170127129,1.0321639424728808,0.14047307711186374,2.236,-5.757,-7.159
1621787286875.324,0.623,1.044,0.154,1.8458478647281347,-5.402696853683363,-6.538053643863087
1621787286880.299,0.567,1.051,0.175,1.3842524041748328,-4.983514926393509,-5.803401713686705
1621787286885.273,0.489,1.058,0.188,0.9227702019051092,-4.564435850690487,-5.068930039651793
1621787286887.189,0.44855433395504074,1.0583851968194757,0.1906963777363306,0.745,-4.403,-4.786
1621787286890.247,0.384,1.059,0.195,0.4408664742080073,-4.2612105902909665,-4.603101177543113
1621787286895.221,0.264,1.044,0.178,-0.05379361847603126,-4.0305962166679326,-4.305624113044138
1621787286900.195,0.14,1.028,0.164,-0.5484779913393604,-3.7999705234369063,-4.00813244701056
1621787286903.257,0.0679584662968236,1.011990770288183,0.1523009475182876,-0.853,-3.658,-3.825
1621787286905.168,0.023,1.002,0.145,-0.9837235798304003,-3.67310636454819,-3.8435558493662807
1621787286910.142,-0.08,0.96,0.119,-1.324002385945716,-3.7124288471475033,-3.891857481535516
1621787286915.115,-0.161,0.911,0.079,-1.6641976839609738,-3.751741679584207,-3.9401472599617033
1621787286919.322,-0.20075184058113282,0.8534866987336802,0.02064091489152841,-1.952,-3.785,-3.981
1621787286920.089,-0.208,0.843,0.01,-1.9253048910234976,-3.8116951089765028,-4.003970210049548
1621787286925.062,-0.241,0.759,-0.031,-1.7522454783110921,-3.9847545216889078,-4.152881797732316
1621787286930.035,-0.276,0.672,-0.08,-1.579186065598687,-4.157813934401314,-4.301793385415083
1621787286935.008,-0.321,0.574,-0.101,-1.406118156670821,-4.33088184332918,-4.450712283794875
1621787286935.385,-0.32350144827924787,0.5663440522362413,-0.10190961755609014,-1.393,-4.344,-4.462
1621787286939.981,-0.354,0.473,-0.113,-1.0364507341987657,-4.568631760556958,-4.607939105584775
1621787286944.953,-0.386,0.363,-0.127,-0.6507335603319855,-4.811639771379928,-4.765816921533457
1621787286949.926,-0.398,0.241,-0.131,-0.2649216854649925,-5.054707445353114,-4.923733499528775
1621787286951.446,-0.4031962295645343,0.2018754479846826,-0.13313962393833767,-0.147,-5.129,-4.972
1621787286954.899,-0.415,0.113,-0.138,-0.15129996047551,-5.289173527712748,-5.130023547474994
1621787286959.871,-0.424,-0.023,-0.15,-0.1574919278830075,-5.5198243136420295,-5.3575783497005265
1621787286964.844,-0.419,-0.159,-0.171,-0.16368480739411997,-5.750509075430968,-5.585166671733909
1621787286967.506,-0.39758286275472626,-0.21950341271789836,-0.17849599803584582,-0.167,-5.874,-5.707
1621787286969.816,-0.379,-0.272,-0.185,-0.1923133275565893,-5.90794287104179,-5.921444155607242
1621787286974.788,-0.319,-0.374,-0.202,-0.24680346908681838,-5.981009197184598,-6.383062343229808
1621787286979.76,-0.225,-0.485,-0.227,-0.3012909350724373,-6.054071935665314,-6.844657864732978
1621787286983.566,-0.14079720108028482,-0.5569551190768475,-0.2606811195678861,-0.343,-6.11,-7.198
1621787286984.732,-0.115,-0.579,-0.271,-0.28680834828078927,-6.067965159760436,-7.317643206761318
1621787286989.704,0.002,-0.672,-0.321,-0.04719377983157513,-5.888718602742225,-7.827830298239747
1621787286994.675,0.127,-0.728,-0.349,0.19236196151156787,-5.709516052047548,-8.337892135104735
1621787286999.627,0.24054097716670758,-0.7449315492266143,-0.3420281856125706,0.431,-5.531,-8.846
1621787286999.647,0.241,-0.745,-0.342,0.431147109800225,-5.529899169884756,-8.847148204457689
1621787287004.618,0.325,-0.745,-0.325,0.4676751908048773,-5.256557682366893,-9.132252972299085
1621787287009.59,0.375,-0.73,-0.3,0.5042122419192995,-4.983149071061513,-9.417427752607413
1621787287014.56,0.403,-0.7,-0.283,0.5407331468361359,-4.7098612825736605,-9.702476510475263
1621787287015.685,0.4102406579916524,-0.6911754480726737,-0.2852627056223913,0.549,-4.648,-9.767
1621787287019.532,0.435,-0.661,-0.293,0.4855149073327962,-4.711485092667203,-9.670694312255788
1621787287024.502,0.492,-0.616,-0.342,0.40349637389202253,-4.793503626107977,-9.546273744545633
1621787287029.473,0.576,-0.571,-0.41,0.3214617244157937,-4.875538275584207,-9.42182872911377
1621787287031.743,0.6221110674653835,-0.5477161936560935,-0.4451539821270745,0.284,-4.913,-9.365
1621787287034.445,0.677,-0.52,-0.487,0.4903154629770412,-5.091212133191425,-9.34531084080888
1621787287039.415,0.819,-0.44,-0.541,0.8697845522274592,-5.418991713547211,-9.309097232780903
1621787287044.386,1.002,-0.333,-0.555,1.249328204348487,-5.74683570016725,-9.272876509046677
1621787287047.8,1.1277343880509016,-0.24299341620399942,-0.5337007320788091,1.51,-5.972,-9.248
1621787287049.355,1.185,-0.202,-0.524,1.4653545350870525,-5.806782726374212,-9.162486018398845
1621787287054.326,1.311,-0.051,-0.489,1.3226278415570591,-5.2786010796016125,-8.889107123850073
1621787287059.296,1.353,0.061,-0.459,1.1799291872576598,-4.750523196228997,-8.615781935680072
1621787287063.856,1.3034562334217505,0.09127674624226348,-0.47184468022399056,1.049,-4.266,-8.365
1621787287064.266,1.299,0.094,-0.473,1.0021409973689412,-4.2782640792055115,-8.27605987559503
1621787287069.236,1.194,0.065,-0.524,0.4343381898924763,-4.426871138959439,-7.198349094337901
1621787287074.206,1.035,0.023,-0.571,-0.13346461758398864,-4.575478198713367,-6.1206383130807716
1621787287079.176,0.86,-0.024,-0.574,-0.7012674250604536,-4.724085258467294,-5.0429275318236435
1621787287079.909,0.8316806367611654,-0.030047364024959465,-0.5698700928610032,-0.785,-4.746,-4.884
1621787287084.145,0.668,-0.065,-0.546,-0.47181553176606555,-4.95839553237432,-4.720943554028162
1621787287089.115,0.468,-0.115,-0.496,-0.10437295094431442,-5.207587847084943,-4.529638149691311
1621787287094.084,0.26,-0.162,-0.433,0.26299743012682086,-5.456731197348013,-4.338370335452085
1621787287095.964,0.18205542180513928,-0.16994580651501007,-0.4084058369773498,0.402,-5.551,-4.266
1621787287099.053,0.054,-0.183,-0.368,0.4302835895798166,-5.6472026856456345,-4.549028301169457
1621787287104.022,-0.115,-0.197,-0.309,0.4757827911857293,-5.801961874781393,-5.004329835606856
1621787287108.991,-0.271,-0.227,-0.241,0.521281992791642,-5.95672106391715,-5.459631370044254
1621787287112.018,-0.36237964919176535,-0.2568506854026434,-0.19104579177516828,0.549,-6.051,-5.737
1621787287113.96,-0.421,-0.276,-0.159,0.48608522839628243,-6.126860695760636,-6.0941623187964895
1621787287118.929,-0.585,-0.332,-0.08,0.3250964999011272,-6.320975951080756,-7.00808294671514
1621787287123.898,-0.749,-0.37,0.0,0.164107771405972,-6.515091206400876,-7.92200357463379
1621787287128.068,-0.8883408029878619,-0.38930625583566764,0.05456115779645191,0.029,-6.678,-8.689
1621787287128.866,-0.915,-0.393,0.065,-0.05681159861254792,-6.729705714111848,-8.845509219253941
1621787287133.835,-1.059,-0.424,0.099,-0.5912435039250289,-7.051727256130956,-9.820243656057933
1621787287138.802,-1.121,-0.473,0.089,-1.1254653441246274,-7.373622223574515,-10.794594961358243
1621787287143.771,-1.063,-0.539,0.059,-1.6598972494371085,-7.695643765593623,-11.769329398162235
1621787287144.116,-1.051750995134896,-0.5436523662096417,0.05747235736399823,-1.697,-7.718,-11.837
1621787287148.739,-0.901,-0.606,0.037,-1.8182645989565112,-8.003159033175644,-12.226717345340047
1621787287153.707,-0.665,-0.661,0.016,-1.9485779346222296,-8.309596568351562,-12.645515310080468
1621787287158.674,-0.382,-0.7,-0.021,-2.0788656546143196,-8.615973867145312,-13.06423095176526
1621787287160.166,-0.2970290866211369,-0.7078065150100722,-0.03361052424703975,-2.118,-8.708,-13.19
1621787287163.643,-0.099,-0.726,-0.063,-1.9522517456985076,-8.342703847382593,-12.801087429449439
1621787287168.611,0.15,-0.749,-0.094,-1.7154302861576376,-7.820767924786637,-12.245408318500601
1621787287173.578,0.34,-0.761,-0.112,-1.4786670165670213,-7.298960248277121,-11.689865744755297
1621787287176.214,0.3983819120176948,-0.7700226591300073,-0.1157152125829442,-1.353,-7.022,-11.395
1621787287178.545,0.45,-0.778,-0.119,-1.1635938412852969,-6.785532801850049,-10.88793182509737
1621787287183.512,0.499,-0.775,-0.117,-0.7599625121713729,-6.28161270691334,-9.80735132667965
1621787287188.48,0.496,-0.768,-0.096,-0.3562518257059396,-5.777593537000974,-8.72655837694742
1621787287192.261,0.46021567277911607,-0.7641931566786294,-0.07620441472887272,-0.049,-5.394,-7.904
1621787287193.446,0.449,-0.763,-0.07,0.01110185424620861,-5.325185591944145,-7.738904488827368
1621787287198.414,0.368,-0.752,-0.04,0.26306160539085205,-5.036700962869443,-7.046789005339134
1621787287203.38,0.26,-0.728,-0.017,0.5149099192284876,-4.748343925404238,-6.354979632193
1621787287208.311,0.14185981813713444,-0.6952384369623986,0.011790464487589088,0.765,-4.462,-5.668
1621787287208.347,0.141,-0.695,0.012,0.7664470088851022,-4.462547939995131,-5.6648197115384615
1621787287213.313,0.037,-0.684,0.068,0.9666756329113924,-4.538368670886076,-5.22475
1621787287218.28,-0.065,-0.635,0.103,1.1669436313291137,-4.6142043117088605,-4.78459375
1621787287223.247,-0.18,-0.579,0.126,1.3672116297468353,-4.690039952531645,-4.344437500000001
1621787287224.358,-0.20192663257277735,-0.5619956726986625,0.1376345397324941,1.412,-4.707,-4.246
1621787287228.212,-0.278,-0.503,0.178,1.6241231738495252,-4.947230094959824,-4.081202154857561
1621787287233.179,-0.351,-0.415,0.25,1.8975075633065497,-5.256838690041393,-3.8688106586316047
1621787287238.144,-0.419,-0.314,0.332,2.170784453372291,-5.5663255417579744,-3.6565026783540295
1621787287240.401,-0.4417181125583681,-0.27447048414843944,0.3628966330793807,2.295,-5.707,-3.56
1621787287243.111,-0.469,-0.227,0.4,2.0513673140143673,-5.728626202362109,-3.649377039449653
1621787287248.076,-0.524,-0.145,0.452,1.6050548825033484,-5.768243394618288,-3.813107466820894
1621787287253.042,-0.564,-0.068,0.489,1.1586327164251795,-5.8078703275295265,-3.976878150493121
1621787287256.442,-0.5804342823425284,-0.01458858238678272,0.5040647588139844,0.853,-5.835,-4.089
1621787287258.007,-0.588,0.01,0.511,0.6473015525114155,-5.791967260273973,-4.27088894977169
1621787287262.973,-0.579,0.068,0.525,-0.005312146118721328,-5.655438493150685,-4.84796292237443
1621787287267.938,-0.539,0.122,0.51,-0.6578295890410957,-5.518929863013699,-5.424951780821918
1621787287272.482,-0.4941562177312288,0.15586163150907215,0.4916964154005015,-1.255,-5.394,-5.953
1621787287272.903,-0.49,0.159,0.49,-1.3098481735159817,-5.397071917808219,-5.987237442922375
1621787287277.868,-0.417,0.183,0.447,-1.9564524961948249,-5.433286712328767,-6.390862161339422
1621787287282.833,-0.344,0.204,0.387,-2.6030886149162864,-5.469503287671233,-6.794506727549467
1621787287287.799,-0.253,0.22,0.328,-3.2498519178082192,-5.50572698630137,-7.198230684931507
1621787287288.522,-0.2403299724572103,0.22276701750934488,0.32115527247688375,-3.344,-5.511,-7.257
1621787287292.763,-0.166,0.239,0.281,-3.279210464620631,-5.78073602484472,-7.184277052125197
1621787287297.728,-0.084,0.271,0.251,-3.203358482523444,-6.096527950310559,-7.099137072220192
1621787287302.692,-0.005,0.286,0.225,-3.127525149190111,-6.412242236024844,-7.014018024601145
1621787287304.559,0.022458023902031183,0.2946511582157084,0.21522042984311218,-3.099,-6.531,-6.982
1621787287307.656,0.068,0.309,0.199,-2.8944935527577758,-6.470362583159529,-6.915762312177447
1621787287312.62,0.134,0.33,0.168,-2.566686726445111,-6.373165847123479,-6.809588807526604
1621787287317.585,0.208,0.347,0.129,-2.2388315343979786,-6.275954770350297,-6.703399637675644
1621787287320.596,0.25227821767569963,0.34821310185412874,0.11019692126100428,-2.04,-6.217,-6.639
1621787287322.549,0.281,0.349,0.098,-1.9264868156628707,-6.074864929054259,-6.636564094756714
1621787287327.513,0.361,0.358,0.066,-1.6379930576700568,-5.7136286462456605,-6.6303732415809025
1621787287332.477,0.442,0.361,0.033,-1.3494851105292005,-5.352374596553194,-6.624182083916936
1621787287336.632,0.5073031286894923,0.35262780401416766,0.0036973140495867723,-1.108,-5.05,-6.619
1621787287337.44,0.52,0.351,-0.002,-1.132234929577465,-4.9991116863342215,-6.580506265702322
1621787287342.404,0.604,0.321,-0.038,-1.281152676056338,-4.68641537875904,-6.343971633041492
1621787287347.367,0.668,0.264,-0.063,-1.4300338028169013,-4.373795964979063,-6.107495165588124
1621787287352.331,0.721,0.194,-0.07,-1.5789515492957746,-4.061099657403883,-5.870960532927294
1621787287352.666,0.7236997245179063,0.18941046831955924,-0.07020247933884298,-1.589,-4.04,-5.855
1621787287357.294,0.761,0.126,-0.073,-1.526651383411247,-3.717288178952658,-5.73867364590154
1621787287362.257,0.803,0.052,-0.063,-1.4597868008710084,-3.371202052656424,-5.613921670143594
1621787287367.221,0.848,-0.016,-0.023,-1.3929123509616117,-3.0250648535883418,-5.489151284433007
1621787287368.699,0.8542550553505535,-0.035063025830258304,-0.007809151291512915,-1.373,-2.922,-5.452
1621787287372.183,0.869,-0.08,0.028,-1.123714451060719,-2.448857332135297,-5.739754199473067
1621787287377.146,0.841,-0.157,0.087,-0.7686253445623867,-1.7749000654858902,-6.149639096599302
1621787287382.108,0.756,-0.195,0.115,-0.4136061099858367,-1.1010754153785238,-6.559443339475808
1621787287384.73,0.6672440356141472,-0.20081140243002607,0.1260944955482316,-0.226,-0.745,-6.776
1621787287387.071,0.588,-0.206,0.136,0.4299826386244917,-0.8510203463137536,-6.993736000487337
1621787287392.033,0.305,-0.18,0.182,1.8203456741239359,-1.0757317362898435,-7.455230053454761
1621787287396.996,-0.037,-0.129,0.288,3.211050759179446,-1.3004984085405784,-7.916837640680444
