time,gyro_x,gyro_y,gyro_z,acc_x,acc_y,acc_z
1621787031346.369,,,,-2.461,-5.551,-6.139
1621787031365.01,,,,-2.099,-5.551,-5.953
1621787031383.956,,,,-1.912,-5.688,-5.649
1621787031384.934,0.668,-0.611,-0.218,-1.9110347722430758,-5.692470528558385,-5.664443644110785
1621787031390.864,0.592,-0.623,-0.218,-1.9051824464847316,-5.719576037333874,-5.758080856244294
1621787031396.823,0.522,-0.627,-0.209,-1.8993014482093944,-5.746814345135436,-5.852176828649691
1621787031402.812,0.464,-0.632,-0.211,-1.8933908136349802,-5.774189915795881,-5.946746981840317
1621787031403.208,0.460314533798588,-0.632,-0.211,-1.893,-5.776,-5.953
1621787031408.829,0.408,-0.632,-0.211,-1.7941265713750703,-5.877460233443605,-6.040376518319706
1621787031414.876,0.365,-0.648,-0.218,-1.68776377254853,-5.986605779913862,-6.134371549840834
1621787031420.952,0.321,-0.654,-0.22,-1.580889944447912,-6.096275725610136,-6.228818188627426
1621787031422.765,0.31001215708230023,-0.651030312724946,-0.22,-1.549,-6.129,-6.257
1621787031427.057,0.284,-0.644,-0.22,-1.388444243654258,-6.253632322277516,-6.319316161138758
1621787031431.739,0.255,-0.648,-0.211,-1.2132941699797049,-6.389593566682421,-6.38729678334121
1621787031437.353,0.241,-0.642,-0.201,-1.003283952848286,-6.552615196419139,-6.468807598209569
1621787031440.328,0.23835384815844335,-0.6393538481584434,-0.1951784659485754,-0.892,-6.639,-6.512
1621787031442.974,0.236,-0.637,-0.19,-0.8678642217095026,-6.653248832966679,-6.536135778290497
1621787031448.6,0.244,-0.628,-0.171,-0.8165509202124805,-6.683542227826367,-6.587449079787519
1621787031454.233,0.25,-0.609,-0.164,-0.7651752696249396,-6.713872431185277,-6.6388247303750605
1621787031458.528,0.2522846073932993,-0.5968154272357371,-0.15638464202233573,-0.726,-6.737,-6.678
1621787031459.873,0.253,-0.593,-0.154,-0.7288719940114157,-6.726911200524001,-6.6657756152334615
1621787031465.519,0.253,-0.567,-0.145,-0.7409282171931184,-6.684559852424173,-6.61445938322929
1621787031471.171,0.258,-0.532,-0.129,-0.752996952238367,-6.642164552393428,-6.563089895600797
1621787031476.792,0.2619730802415876,-0.4972355478861087,-0.12204710957722174,-0.765,-6.6,-6.512
1621787031476.83,0.262,-0.497,-0.122,-0.7648774238227147,-6.599877423822714,-6.511551246537396
1621787031482.495,0.26,-0.466,-0.108,-0.7466450031962497,-6.5816450031962495,-6.444802045599829
1621787031488.167,0.26,-0.435,-0.087,-0.7283905817174515,-6.563390581717452,-6.377972299168975
1621787031493.846,0.255,-0.4,-0.072,-0.7101133736415939,-6.545113373641594,-6.311059130620072
1621787031495.124,0.250952667296624,-0.3916804827763938,-0.06750296366291555,-0.706,-6.541,-6.296
1621787031499.53,0.237,-0.363,-0.052,-0.6966601422543061,-6.519925449189204,-6.23253686403567
1621787031505.221,0.227,-0.332,-0.037,-0.6845965259162929,-6.492704981554713,-6.150566137636349
1621787031510.918,0.202,-0.307,-0.021,-0.672519971336819,-6.4654553199394895,-6.068507497545052
1621787031513.522,0.1910417808219178,-0.2937588184931507,-0.018717037671232877,-0.667,-6.453,-6.031
1621787031516.621,0.178,-0.278,-0.016,-0.6372944590610415,-6.4430981530203475,-5.994749170379576
1621787031522.331,0.161,-0.246,-0.009,-0.5825636262675675,-6.424854542089189,-5.927959001546862
1621787031528.047,0.141,-0.208,0.003,-0.5277742903605378,-6.406591430120179,-5.8610974390840465
1621787031531.988,0.12929341751631757,-0.1825209675355147,0.01264071498656201,-0.49,-6.394,-5.815
1621787031533.77,0.124,-0.171,0.017,-0.46461585277496015,-6.388327027703495,-5.824422903136568
1621787031539.499,0.11,-0.138,0.038,-0.38300681060715835,-6.37008864327963,-5.854717168789767
1621787031545.235,0.108,-0.101,0.056,-0.3012969134907984,-6.351827719302868,-5.885048873022355
1621787031550.521,0.1033971257281347,-0.051288957863854755,0.07717322165058038,-0.226,-6.335,-5.913
1621787031550.977,0.103,-0.047,0.079,-0.22261638621269,-6.325143385923923,-5.918296091145355
1621787031556.725,0.103,0.0,0.096,-0.17996981072638019,-6.200912057333368,-5.9850472527761
1621787031562.479,0.103,0.045,0.11,-0.1372797626860578,-6.076554091302864,-6.051866458404431
1621787031568.24,0.096,0.094,0.127,-0.09453718530963695,-5.952043105032421,-6.1187678838631765
1621787031569.121,0.09355591297722848,0.10117950562939135,0.12898582070600187,-0.088,-5.933,-6.129
1621787031574.008,0.08,0.141,0.14,-0.052139436656554024,-5.8481910764724345,-6.087904317920285
1621787031579.782,0.059,0.185,0.155,-0.009770334239983247,-5.747989695574851,-6.039349945077937
1621787031585.562,0.035,0.227,0.162,0.03264355581127734,-5.647682393555812,-5.9907442462600695
1621787031587.791,0.023444988187647658,0.24240668241646982,0.1654665035437057,0.049,-5.609,-5.972
1621787031591.349,0.005,0.267,0.171,0.08622993509371009,-5.601592002710945,-5.964592002710946
1621787031597.142,-0.024,0.304,0.188,0.14684417277063838,-5.589531006438496,-5.9525310064384955
1621787031602.941,-0.063,0.333,0.204,0.2075197195214139,-5.577457810911556,-5.940457810911555
1621787031606.523,-0.08644361281641579,0.3570605499957951,0.22004036666386342,0.245,-5.57,-5.933
1621787031608.747,-0.101,0.372,0.23,0.24037780032784326,-5.599036895376369,-5.939992558478391
1621787031614.548,-0.14,0.394,0.239,0.228322027944735,-5.6747718757317935,-5.958230778237452
1621787031620.355,-0.175,0.401,0.26,0.2162540785262665,-5.750583352847814,-5.976487419665392
1621787031625.289,-0.20725451490970181,0.41797606047879043,0.26933683326333474,0.206,-5.815,-5.992
1621787031626.168,-0.213,0.421,0.271,0.206,-5.834704535726793,-6.00343983709257
1621787031631.987,-0.244,0.436,0.288,0.206,-5.965164982684601,-6.079181091842955
1621787031637.812,-0.274,0.447,0.309,0.206,-6.09575679321392,-6.154998612173959
1621787031643.643,-0.29,0.459,0.326,0.206,-6.226485440796898,-6.230895575818104
1621787031644.112,-0.2912052451062406,0.45916069934749876,0.32760699347498745,0.206,-6.237,-6.237
1621787031649.48,-0.305,0.461,0.346,0.1224327433971533,-6.323409680296821,-6.379121184698719
1621787031655.324,-0.304,0.471,0.368,0.03145400954067715,-6.417482928910321,-6.533846922549869
1621787031661.173,-0.309,0.469,0.384,-0.05960454022468423,-6.511638708259538,-6.688708401742661
1621787031662.997,-0.30681932282545243,0.47180372779584684,0.3889844049703945,-0.088,-6.541,-6.737
1621787031667.028,-0.302,0.478,0.4,-0.14650362706317405,-6.553551687260827,-6.839328162245042
1621787031672.89,-0.279,0.485,0.41,-0.23157855200938013,-6.571804125703831,-6.988131940060043
1621787031678.758,-0.265,0.483,0.421,-0.31674560307172955,-6.5900763293862985,-7.13709685482728
1621787031681.945,-0.25360623441396507,0.48137231920199497,0.42751072319201994,-0.363,-6.6,-7.218
1621787031684.632,-0.244,0.48,0.433,-0.4253213107176333,-6.590249046622411,-7.280321310717634
1621787031690.511,-0.222,0.482,0.436,-0.5616739512846523,-6.568914960003081,-7.416673951284652
1621787031696.397,-0.209,0.468,0.436,-0.6981908039187992,-6.547555180339235,-7.553190803918799
1621787031700.959,-0.19274053202950195,0.4587088754454297,0.4298059169636198,-0.804,-6.531,-7.659
1621787031702.289,-0.188,0.456,0.428,-0.839561812852773,-6.524166553608683,-7.697281245600338
1621787031708.186,-0.161,0.419,0.414,-0.9972270161651586,-6.493870102776106,-7.867003199754259
1621787031714.09,-0.126,0.393,0.394,-1.155081516939499,-6.463537277137116,-8.036928927058401
1621787031720.0,-0.103,0.36,0.384,-1.313092677682354,-6.433174348210057,-8.207023294211005
1621787031720.034,-0.10295983985471355,0.35986804523691596,0.3840573716361235,-1.314,-6.433,-8.208
1621787031725.915,-0.096,0.337,0.394,-1.2486226894852641,-6.473622794882942,-8.603437518938646
1621787031731.57,-0.101,0.316,0.426,-1.1857585339182906,-6.512684017759509,-8.98367411037772
1621787031737.223,-0.101,0.281,0.452,-1.1229188042633362,-6.551730063370354,-9.363762960620793
1621787031738.565,-0.09767697223541603,0.2665210933114556,0.45247471825208346,-1.108,-6.561,-9.454
1621787031742.877,-0.087,0.22,0.454,-1.492336300692384,-6.4405998075226565,-9.747918116929986
1621787031748.529,-0.051,0.084,0.417,-1.9961167161226512,-6.282781618413666,-10.133180166813698
1621787031754.181,0.009,-0.089,0.34,-2.4998753709198818,-6.124970246210602,-10.51842557542706
1621787031756.83,0.043215498250615526,-0.18227238564208886,0.29266074899572375,-2.736,-6.051,-10.699
1621787031759.833,0.082,-0.288,0.239,-2.8956932704007277,-5.975182700664536,-10.308730040513979
1621787031765.484,0.169,-0.454,0.129,-3.1962022489938358,-5.832510569736191,-9.574324472850286
1621787031771.134,0.257,-0.553,0.037,-3.496672278008798,-5.689856930832074,-8.840014092981589
1621787031775.089,0.3052934416313834,-0.5949942970707682,-0.010593536680203929,-3.707,-5.59,-8.326
1621787031776.785,0.326,-0.613,-0.031,-3.5739661887438476,-5.586376872458806,-8.023515300663385
1621787031782.433,0.347,-0.635,-0.08,-3.1308712818317996,-5.574309343569442,-7.016031350310294
1621787031788.083,0.333,-0.63,-0.103,-2.6876423068692485,-5.562238163385405,-6.0082425636636
1621787031793.343,0.2892207090358841,-0.6011242974492002,-0.10579442282749675,-2.275,-5.551,-5.07
1621787031793.73,0.286,-0.599,-0.106,-2.256698488092052,-5.539145370618143,-5.044424538399786
1621787031799.378,0.211,-0.55,-0.103,-1.9895772411024886,-5.366120136473107,-4.671135750602088
1621787031805.023,0.101,-0.492,-0.086,-1.7225945544554455,-5.193184653465346,-4.298040594059406
1621787031810.671,-0.019,-0.424,-0.073,-1.4554733074658817,-5.0201594193203105,-3.924751806261707
1621787031811.59,-0.03886549606435429,-0.4129274284231468,-0.0710460167805553,-1.412,-4.992,-3.864
1621787031816.316,-0.141,-0.356,-0.061,-1.1834811205846527,-5.037600139203063,-4.07230972681399
1621787031821.961,-0.25,-0.267,-0.047,-0.9105145694743746,-5.0920696550708735,-4.3211363788464885
1621787031827.606,-0.337,-0.195,-0.033,-0.6375480183640964,-5.146539170938684,-4.569963030878987
1621787031829.83,-0.3547329353750325,-0.16780949909161694,-0.026694956311099576,-0.53,-5.168,-4.668
1621787031833.25,-0.382,-0.126,-0.017,-0.39524978503869307,-5.3415191315563195,-5.0389394883920895
1621787031838.893,-0.419,-0.073,-0.003,-0.1729042347377473,-5.627835608340499,-5.6510108286758385
1621787031844.535,-0.424,-0.037,0.01,0.049393217970765124,-5.914090149398108,-6.262949766229578
1621787031848.002,-0.4077201940035273,-0.01383258377425044,0.009373853615520282,0.186,-6.09,-6.639
1621787031850.072,-0.398,0.0,0.009,0.23938166448159073,-6.197921282639571,-6.825198951163553
1621787031855.606,-0.351,0.037,0.016,0.3820874303507047,-6.486428384136349,-7.322966568338249
1621787031861.137,-0.278,0.07,0.024,0.5247176472194909,-6.774782748825522,-7.8204706653556215
1621787031865.879,-0.20422982820297664,0.08629806121097028,0.030004548867199575,0.647,-7.022,-8.247
1621787031866.665,-0.192,0.089,0.031,0.6569548575962354,-7.035787037290362,-8.265588273918635
1621787031872.191,-0.089,0.112,0.035,0.7269294684139969,-7.132698777051243,-8.396248830401356
1621787031877.713,0.012,0.129,0.028,0.7968546141008455,-7.2295420097945335,-8.526817022790075
1621787031883.233,0.117,0.14,0.03,0.8667550272222374,-7.326350989029028,-8.65733903313179
1621787031883.726,0.12415107531639968,0.14062571909018498,0.03062571909018497,0.873,-7.335,-8.669
1621787031888.75,0.197,0.147,0.037,0.9615402724108636,-7.252099235386007,-8.41465819836115
1621787031894.266,0.267,0.157,0.047,1.058754720600729,-7.16107679026556,-8.13539885993039
1621787031899.777,0.325,0.169,0.054,1.1558788127928965,-7.070138945983722,-7.856399079174546
1621787031901.543,0.3371810849140223,0.17412887785853573,0.05976998759085268,1.187,-7.041,-7.767
1621787031905.286,0.363,0.185,0.072,1.2261397551334139,-6.943992327330625,-7.566882219721094
1621787031910.792,0.382,0.208,0.075,1.28371714066103,-6.801287086856265,-7.272494619523443
1621787031916.295,0.396,0.234,0.096,1.341261337432744,-6.6586641045349735,-6.9782767102229055
1621787031919.33,0.39489630681818183,0.25055539772727276,0.10538139204545455,1.373,-6.58,-6.816
1621787031921.795,0.394,0.264,0.113,1.3620339327943685,-6.562371005884618,-6.7546455480393774
1621787031927.293,0.389,0.281,0.134,1.3375731727437716,-6.5230480118792284,-6.617789143705659
1621787031932.787,0.382,0.3,0.15,1.3131297915635485,-6.483752956057857,-6.4810299730517515
1621787031937.087,0.3741720965376239,0.31643859727098983,0.15939348415485133,1.294,-6.453,-6.374
1621787031938.28,0.372,0.321,0.162,1.2669449692896686,-6.439808990001929,-6.366125774644008
1621787031943.769,0.36,0.339,0.183,1.1424763268791143,-6.379122786239568,-6.329899826479742
1621787031949.255,0.353,0.349,0.194,1.0180796540612005,-6.318471672129341,-6.293694824689453
1621787031954.739,0.344,0.374,0.208,0.8937217341008621,-6.257839452447186,-6.257501101715922
1621787031954.815,0.3439445780985476,0.37413855475363095,0.20811084380290473,0.892,-6.257,-6.257
1621787031960.219,0.34,0.384,0.216,0.6764360300710395,-6.071358507483274,-6.250893371956686
1621787031965.697,0.328,0.393,0.22,0.4579212635354163,-5.883175819022002,-6.244703151941513
1621787031971.173,0.304,0.41,0.222,0.2394844058210912,-5.695060224843092,-6.238515138975102
1621787031972.514,0.2959152428960164,0.41122496319757323,0.222,0.186,-5.649,-6.237
1621787031976.646,0.271,0.415,0.222,0.03704073117150475,-5.536520552109096,-6.197947883996298
1621787031982.116,0.23,0.415,0.22,-0.16014877654503507,-5.38762235240477,-6.146251419649889
1621787031987.583,0.175,0.424,0.216,-0.3572326705997762,-5.238803901792006,-6.094582643657516
1621787031990.184,0.1531026763772843,0.4197157410303382,0.2145719136767794,-0.451,-5.168,-6.07
1621787031993.047,0.129,0.415,0.213,-0.5384676952881755,-5.124996402131045,-6.081197163218709
1621787031998.508,0.091,0.407,0.202,-0.705302982079845,-5.042971632187089,-6.1025545561475125
1621787032003.966,0.061,0.391,0.176,-0.8720487649622914,-4.9609908669480385,-6.123900491247492
1621787032007.827,0.02491113298729193,0.37755512797565777,0.1675085018793628,-0.99,-4.903,-6.139
1621787032009.422,0.01,0.372,0.164,-0.982941596842324,-4.899470798421161,-6.170943798905893
1621787032014.875,-0.042,0.372,0.145,-0.9588140433487986,-4.887407021674399,-6.28013644484454
1621787032020.325,-0.103,0.361,0.136,-0.9346994529464718,-4.875349726473235,-6.389270424485839
1621787032025.455,-0.16029195905779287,0.34691181334644433,0.12285102579001475,-0.912,-4.864,-6.492
1621787032025.787,-0.164,0.346,0.122,-0.914221453191401,-4.8689888567434005,-6.5113906507385
1621787032031.247,-0.227,0.34,0.108,-0.9507512908182334,-4.951026203956202,-6.830252792735427
1621787032036.704,-0.274,0.328,0.093,-0.9872615273874946,-5.033019531844797,-7.1489438407552495
1621787032042.159,-0.312,0.302,0.07,-1.0237570631635775,-5.114979845240237,-7.467506568292245
1621787032043.092,-0.3155933918338109,0.2992621776504298,0.06606438037249285,-1.03,-5.129,-7.522
1621787032047.612,-0.333,0.286,0.047,-1.0348771039569642,-5.290201120261764,-7.81128927155256
1621787032053.061,-0.328,0.26,0.026,-1.0407565510356875,-5.484532318442724,-8.160033316695783
1621787032058.509,-0.302,0.216,0.003,-1.0466349444028504,-5.6788286886836925,-8.508714860105925
1621787032060.701,-0.2895182527580949,0.20069979370347116,-0.004650103148264418,-1.049,-5.757,-8.649
1621787032063.953,-0.271,0.178,-0.016,-1.009240462042539,-5.842066918420614,-8.719827455989337
1621787032069.396,-0.23,0.134,-0.051,-0.9426909951685455,-5.984451824290553,-8.838378366746264
1621787032074.836,-0.178,0.087,-0.066,-0.8761803326484144,-6.126753706891764,-8.956860151607708
1621787032078.286,-0.14690799281544678,0.052735339021104624,-0.07932514593623709,-0.834,-6.217,-9.032
1621787032080.273,-0.129,0.033,-0.087,-0.7606654801301482,-6.217,-8.995332740065074
1621787032085.708,-0.087,-0.014,-0.094,-0.5600790344559081,-6.217,-8.895039517227953
1621787032091.14,-0.047,-0.047,-0.098,-0.359609722183598,-6.217,-8.7948048610918
1621787032095.844,-0.018412462908011868,-0.07558753709198814,-0.09886628900278753,-0.186,-6.217,-8.708
1621787032096.57,-0.014,-0.08,-0.099,-0.17303733411315814,-6.205238347885421,-8.677146370333237
1621787032101.997,0.017,-0.096,-0.094,-0.07614859840414422,-6.117326523791619,-8.4465326064252
1621787032107.421,0.044,-0.115,-0.087,0.020683474676581576,-6.029466112434028,-8.216053710434334
1621787032112.843,0.07,-0.127,-0.093,0.11748503711130603,-5.941633384857473,-7.985647435629639
1621787032113.376,0.072065,-0.12690166666666666,-0.09172166666666666,0.127,-5.933,-7.963
1621787032118.263,0.091,-0.126,-0.08,0.21756074844655449,-5.878216337359492,-7.760076841443832
1621787032123.68,0.108,-0.122,-0.077,0.31794351741953497,-5.817490958598059,-7.535145081337709
1621787032129.094,0.127,-0.115,-0.063,0.41827199609020455,-5.756798422118272,-7.310334971723801
1621787032130.86,0.12600949338201733,-0.1080664536741214,-0.0606888178913738,0.451,-5.737,-7.237
1621787032134.443,0.124,-0.094,-0.056,0.5120107888745917,-5.741150393800993,-7.125146887063249
1621787032139.788,0.127,-0.084,-0.04,0.6030239532812036,-5.747341765529334,-6.95828941898446
1621787032145.129,0.115,-0.065,-0.026,0.6939664456102148,-5.7535283296333475,-6.7915615163812735
1621787032148.126,0.10713976675051452,-0.0548939858220901,-0.015332540589983991,0.745,-5.757,-6.698
1621787032150.467,0.101,-0.047,-0.007,0.7676905517612719,-5.778195964519512,-6.695282568651345
1621787032155.801,0.082,-0.023,0.009,0.8193897044237255,-5.826489783773061,-6.689091053362429
1621787032161.131,0.07,0.0,0.035,0.8710509961175504,-5.874748235894239,-6.682904072321252
1621787032165.356,0.060482606902241165,0.01903478619551767,0.04848297355515835,0.912,-5.913,-6.678
1621787032166.458,0.058,0.024,0.052,0.8900142567059057,-5.921845576019199,-6.695627053661446
1621787032171.782,0.052,0.044,0.07,0.7838017835082288,-5.964578291183279,-6.780782826633344
1621787032177.102,0.044,0.059,0.093,0.67766723939622,-6.007279652954291,-6.865876120017608
1621787032182.418,0.045,0.08,0.103,0.5716154949377333,-6.049947701745169,-6.95090302884001
1621787032182.549,0.04532078853046595,0.08034546457127102,0.10307402812241521,0.569,-6.051,-6.953
1621787032187.731,0.058,0.094,0.106,0.4533019697702883,-6.062781261563861,-7.027010489311435
1621787032193.04,0.07,0.115,0.117,0.3347639549116165,-6.0748517121630465,-7.102837678972987
1621787032198.346,0.08,0.126,0.122,0.2162968033930147,-6.086914946912983,-7.1786195382995075
1621787032199.703,0.08281521388773772,0.12958299949348437,0.12302371414099553,0.186,-6.09,-7.198
1621787032203.648,0.091,0.14,0.126,0.10924774633422721,-6.053813502025446,-7.193390255035089
1621787032208.948,0.094,0.138,0.124,0.0061340217949449605,-6.005198322588007,-7.1871972385462435
1621787032214.243,0.103,0.143,0.133,-0.09687995663832938,-5.95663017059394,-7.181010212814515
1621787032216.819,0.1054340284185274,0.13618472042812327,0.1300791658977671,-0.147,-5.933,-7.178
1621787032219.535,0.108,0.129,0.127,-0.18436674337826442,-5.881481596363584,-7.146834545948341
1621787032224.823,0.103,0.122,0.127,-0.25712507325719347,-5.781167984104975,-7.086151002730171
1621787032230.108,0.091,0.113,0.127,-0.3298397347017539,-5.680914578538858,-7.025503880844495
1621787032233.899,0.08094997919652351,0.10438569645416301,0.12628214137118024,-0.382,-5.609,-6.982
1621787032235.389,0.077,0.101,0.126,-0.3863004831890477,-5.586619934424344,-6.970853849693693
1621787032240.644,0.052,0.094,0.122,-0.4014680893899738,-5.5076864735827895,-6.931541890764762
1621787032245.896,0.024,0.082,0.113,-0.4166265351318703,-5.428800684517817,-6.892253674250051
1621787032250.876,-0.007320212171970972,0.07535631863018798,0.10825451330727713,-0.431,-5.354,-6.855
1621787032251.143,-0.009,0.075,0.108,-0.42931216656573523,-5.353384808374427,-6.858249473714566
1621787032256.386,-0.045,0.056,0.106,-0.39618033566917554,-5.34130872047755,-6.922035989272429
1621787032261.626,-0.079,0.045,0.103,-0.3630670184848747,-5.329239380569254,-6.985786861608559
1621787032266.862,-0.113,0.031,0.103,-0.32997838625025233,-5.317179037979065,-7.049490209649047
1621787032267.808,-0.11914792347176856,0.02919178721418572,0.103,-0.324,-5.315,-7.061
1621787032272.094,-0.147,0.021,0.103,-0.318925200549252,-5.3647330346173305,-7.167824528438246
1621787032277.323,-0.169,0.014,0.099,-0.31273368504733684,-5.425409886536099,-7.298155929753559
1621787032282.548,-0.19,0.007,0.099,-0.3065467948254679,-5.486041410710414,-7.4283899689238995
1621787032284.699,-0.194532528880782,0.004115663439502362,0.099,-0.304,-5.511,-7.482
1621787032287.768,-0.201,0.0,0.099,-0.31474631255614477,-5.577117143353908,-7.55175996116955
1621787032292.985,-0.201,-0.003,0.089,-0.33301359065750963,-5.689507345909763,-7.670342461386885
1621787032298.197,-0.185,-0.014,0.084,-0.3512629169202237,-5.801787099017647,-7.788808426787215
1621787032301.549,-0.17019919385076865,-0.015287026621672292,0.084,-0.363,-5.874,-7.865
1621787032303.406,-0.162,-0.016,0.084,-0.37923962584786997,-5.891344362300106,-7.882344362300106
1621787032308.611,-0.138,-0.017,0.075,-0.42476011271042424,-5.939961480922017,-7.930961480922018
1621787032313.812,-0.11,-0.023,0.068,-0.47024430274949525,-5.9885398335487805,-7.979539833548781
1621787032318.358,-0.08113449523183164,-0.017751726405787573,0.055754028280170995,-0.51,-6.031,-8.022
1621787032319.009,-0.077,-0.017,0.054,-0.5058067258698501,-6.033290770126656,-8.015127689620032
1621787032324.203,-0.042,-0.031,0.049,-0.47235801426699664,-6.051563677391178,-7.9603089678264665
1621787032329.393,-0.012,-0.035,0.038,-0.438932886883098,-6.069823700684234,-7.905528897947299
1621787032334.579,0.014,-0.035,0.037,-0.40553448828068134,-6.088069122142961,-7.850792633571117
1621787032335.128,0.016966118467555726,-0.035,0.036576268790349184,-0.402,-6.09,-7.845
1621787032339.76,0.042,-0.035,0.033,-0.34773288970609695,-6.052068397396608,-7.722899001838718
1621787032344.938,0.058,-0.024,0.028,-0.28707030907976533,-6.009666491550653,-7.586408195429472
1621787032350.112,0.07,-0.016,0.024,-0.22645349210518634,-5.96729657356332,-7.450020357236669
1621787032351.858,0.07236430190818062,-0.013635698091819384,0.02602654449272624,-0.206,-5.953,-7.404
1621787032355.281,0.077,-0.009,0.03,-0.177894814619729,-5.908688174874902,-7.337532262312352
1621787032360.447,0.073,-0.005,0.028,-0.13547945746642087,-5.841814327100343,-7.237221490650514
1621787032365.609,0.068,0.003,0.033,-0.09309817692330202,-5.774994205952067,-7.136991308928101
1621787032368.544,0.0623099204846649,0.0069830556607345705,0.034138015903067025,-0.069,-5.737,-7.08
1621787032370.767,0.058,0.01,0.035,-0.05978650927487353,-5.712163633697485,-7.069584749615075
1621787032375.922,0.037,0.014,0.037,-0.03842225969645868,-5.6545730478774106,-7.045433858787301
1621787032381.072,0.017,0.028,0.044,-0.01707925801011804,-5.5970397389837965,-7.021306987315786
1621787032385.193,0.0017841351171837914,0.036008349938324316,0.0464025049814973,0.0,-5.551,-7.002
1621787032386.218,-0.002,0.038,0.047,-0.006666039344840768,-5.551,-7.0080488134795775
1621787032391.362,-0.026,0.047,0.052,-0.040123268738789075,-5.551,-7.038408151262975
1621787032396.5,-0.04,0.052,0.058,-0.07354080042344223,-5.551,-7.068731467050901
1621787032401.635,-0.056,0.058,0.054,-0.10693927720763373,-5.551,-7.099037492281001
1621787032401.798,-0.05644507900247478,0.05809537407195888,0.054127165429278506,-0.108,-5.551,-7.1
1621787032406.765,-0.07,0.061,0.058,-0.1607683555869956,-5.603768355586996,-7.179452353582692
1621787032411.892,-0.08,0.066,0.058,-0.21524084062840804,-5.658240840628408,-7.261470583900728
1621787032417.015,-0.079,0.068,0.058,-0.26966663719161726,-5.712666637191617,-7.343418516226015
1621787032418.364,-0.07794582220526516,0.068,0.058,-0.284,-5.727,-7.365
1621787032422.134,-0.075,0.068,0.058,-0.3220996661052507,-5.765099666105251,-7.427510829418196
1621787032427.249,-0.061,0.07,0.052,-0.37379155216736104,-5.816791552167361,-7.512322666430281
1621787032432.36,-0.044,0.068,0.044,-0.42544396182371536,-5.868443961823716,-7.597069733770647
1621787032434.889,-0.03706759728463524,0.06304828377473946,0.04102897026484367,-0.451,-5.894,-7.639
1621787032437.467,-0.03,0.058,0.038,-0.46630502684236214,-5.896967301122499,-7.651337725719864
1621787032442.57,-0.014,0.054,0.035,-0.49659912448053006,-5.90284064658296,-7.6757584778975705
1621787032447.683,0.007,0.044,0.031,-0.5269526450448851,-5.908725512814825,-7.700227132230061
1621787032451.397,0.015724978491540004,0.04254583691807667,0.025183347672306663,-0.549,-5.913,-7.718
1621787032452.791,0.019,0.042,0.023,-0.5473934785505916,-5.904713731471473,-7.703033984392353
1621787032457.897,0.03,0.033,0.017,-0.541509277220832,-5.874363640402186,-7.64821800358354
1621787032462.998,0.038,0.026,0.012,-0.5356307029364292,-5.84404257304053,-7.59345444314463
1621787032467.884,0.043751688460985774,0.014496623078028454,0.009124155769507113,-0.53,-5.815,-7.541
1621787032468.095,0.044,0.014,0.009,-0.5292433090385501,-5.813371190642303,-7.538114314130064
1621787032473.189,0.049,0.014,0.014,-0.5109697477993677,-5.77403657577152,-7.468427004319622
1621787032478.279,0.04,0.0,0.009,-0.49271019935576765,-5.7347321240369915,-7.398793133136402
1621787032483.364,0.028,-0.002,0.002,-0.4744690427063696,-5.695467261418795,-7.32922940015141
1621787032484.331,0.02590685049961568,-0.0021902863182167564,0.002,-0.471,-5.688,-7.316
1621787032488.446,0.017,-0.003,0.002,-0.44391120403577433,-5.682983556302921,-7.296185047396539
1621787032493.524,0.002,-0.009,0.005,-0.410483742317594,-5.6767932856143695,-7.271733478176759
1621787032498.599,-0.012,-0.016,0.009,-0.37707395943392014,-5.670606288784059,-7.247294840697034
1621787032500.737,-0.01874718289511702,-0.01726509679283444,0.007313204276220745,-0.363,-5.668,-7.237
1621787032503.669,-0.028,-0.019,0.005,-0.36640355613896386,-5.687346529632006,-7.2511516281567445
1621787032508.736,-0.042,-0.028,0.005,-0.37228587836930743,-5.720782887572906,-7.2756097047987
1621787032513.8,-0.054,-0.024,0.005,-0.37816451617715063,-5.754198302480646,-7.300052461999732
1621787032517.104,-0.061184160996090926,-0.025306211090198347,0.0036937889098016506,-0.382,-5.776,-7.316
1621787032518.859,-0.065,-0.026,0.003,-0.3957587893107625,-5.782341941947929,-7.342335182665131
1621787032523.915,-0.065,-0.028,0.0,-0.43540048750579474,-5.800614287209702,-7.4182118706165605
1621787032528.966,-0.065,-0.037,-0.007,-0.47500198890400924,-5.818868104260441,-7.49401161938658
1621787032533.43,-0.06323137937705553,-0.04584310311472238,-0.009652930934416715,-0.51,-5.835,-7.561
1621787032534.014,-0.063,-0.047,-0.01,-0.5078877480767504,-5.83711225192325,-7.56311225192325
1621787032539.057,-0.049,-0.052,-0.019,-0.48964749902715,-5.85535250097285,-7.58135250097285
1621787032544.097,-0.035,-0.052,-0.026,-0.4714178465591044,-5.873582153440895,-7.599582153440895
1621787032549.155,-0.026,-0.061,-0.03,-0.4531228485048044,-5.891877151495196,-7.617877151495196
1621787032549.742,-0.024141925510844885,-0.06076774068885561,-0.030348388966716582,-0.451,-5.894,-7.62
1621787032554.209,-0.01,-0.059,-0.033,-0.42143351537368146,-5.894,-7.541977332236104
1621787032559.26,0.0,-0.063,-0.035,-0.38800175057978603,-5.894,-7.453754619585546
1621787032564.307,0.012,-0.066,-0.037,-0.35459745642253315,-5.894,-7.3656043988927955
1621787032566.059,0.012,-0.0673897468170596,-0.036305126591470206,-0.343,-5.894,-7.335
1621787032569.35,0.012,-0.07,-0.035,-0.3351155403581391,-5.878028915084436,-7.263635531959567
1621787032574.39,0.005,-0.07,-0.035,-0.3230414379555476,-5.853571117909955,-7.1543494255976485
1621787032579.426,-0.002,-0.066,-0.033,-0.31097610906145956,-5.829131092714239,-7.045142730735775
1621787032582.338,-0.007786715831352191,-0.06542132841686478,-0.03184265683372956,-0.304,-5.815,-6.982
1621787032584.458,-0.012,-0.065,-0.031,-0.30138921291563947,-5.812519752269858,-6.973123323913175
1621787032589.486,-0.035,-0.065,-0.026,-0.2951974625698996,-5.806637589441405,-6.952071372737659
1621787032594.511,-0.051,-0.052,-0.026,-0.2890096205880584,-5.8007591395586555,-6.931032709999399
1621787032598.579,-0.060722649032383544,-0.04551823397841097,-0.021948896236506858,-0.284,-5.796,-6.914
1621787032599.532,-0.063,-0.044,-0.021,-0.28517611607479165,-5.800586852691688,-6.922644453149719
1621787032604.55,-0.075,-0.038,-0.017,-0.29136978499645927,-5.824742161486191,-6.968167919723975
1621787032609.564,-0.093,-0.044,-0.019,-0.297558331198867,-5.848877491675581,-7.0136537343116725
1621787032614.575,-0.098,-0.038,-0.019,-0.30374326136415,-5.872998719320185,-7.059112971026503
1621787032614.783,-0.09812462821200449,-0.0377092008386562,-0.018875371787995514,-0.304,-5.874,-7.061
1621787032619.582,-0.101,-0.031,-0.016,-0.29806204688255195,-5.914674978854519,-7.130770949130015
1621787032624.585,-0.096,-0.031,-0.017,-0.29187185838569357,-5.957077770057999,-7.203505663968101
1621787032629.585,-0.087,-0.023,-0.017,-0.2856852948284195,-5.999455730425327,-7.276197785766071
1621787032630.947,-0.08509162431587178,-0.02381787529319781,-0.017,-0.284,-6.011,-7.296
1621787032634.581,-0.08,-0.026,-0.017,-0.3018028674377763,-6.0155070550475385,-7.309295812390238
1621787032639.573,-0.07,-0.028,-0.019,-0.3262580391206928,-6.021698237752074,-7.327559801368619
1621787032644.562,-0.063,-0.033,-0.023,-0.3506988584751408,-6.027885786955731,-7.34581307151941
1621787032647.073,-0.05395868333658918,-0.03400459074037898,-0.02350229537018949,-0.363,-6.031,-7.355
1621787032649.561,-0.045,-0.035,-0.024,-0.363,-6.019008055999758,-7.33685834112784
1621787032654.57,-0.038,-0.037,-0.024,-0.363,-5.994865310925384,-7.30033470114353
1621787032659.577,-0.037,-0.035,-0.026,-0.363,-5.970733156322602,-7.263827082641885
1621787032663.256,-0.0325877616747182,-0.035,-0.028941492216854534,-0.363,-5.953,-7.237
1621787032664.58,-0.031,-0.035,-0.03,-0.364558121247864,-5.944963374616281,-7.2193686279846965
1621787032669.579,-0.031,-0.035,-0.031,-0.37044122850791633,-5.914618926643379,-7.1527966247788415
1621787032674.576,-0.037,-0.04,-0.028,-0.37632174991304873,-5.8842878162379595,-7.08625388256287
1621787032679.401,-0.04859573635830237,-0.035168443184040686,-0.03283155681595932,-0.382,-5.855,-7.022
1621787032679.569,-0.049,-0.035,-0.033,-0.3818016004122274,-5.854791158328661,-7.0213839170695485
1621787032684.559,-0.058,-0.033,-0.035,-0.37591612991225015,-5.848595926223421,-7.003107982359093
1621787032689.544,-0.066,-0.035,-0.033,-0.370036706424382,-5.842407059394087,-6.984850825212555
1621787032694.527,-0.08,-0.037,-0.033,-0.364159298607217,-5.836220314323386,-6.96659992725399
1621787032695.51,-0.08276375404530745,-0.036605177993527506,-0.033394822006472494,-0.363,-5.835,-6.963
1621787032699.506,-0.094,-0.035,-0.035,-0.3677238095238095,-5.830027568922306,-6.987364912280702
1621787032704.482,-0.103,-0.035,-0.037,-0.373605772005772,-5.823836029467609,-7.017703455608719
1621787032709.454,-0.115,-0.035,-0.038,-0.3794834054834055,-5.817649046859573,-7.048019670388092
1621787032711.583,-0.11671375227239228,-0.03285780965950966,-0.03757156193190193,-0.382,-5.815,-7.061
1621787032714.423,-0.119,-0.03,-0.037,-0.38554216463925217,-5.825449385685794,-7.081721663139625
1621787032719.389,-0.126,-0.037,-0.045,-0.3917355480109009,-5.843719866632157,-7.11795295586377
1621787032724.352,-0.129,-0.038,-0.042,-0.3979255819618471,-5.861980466787449,-7.154164654476805
1621787032727.619,-0.129,-0.037341226860968885,-0.04331754627806223,-0.402,-5.874,-7.178
1621787032729.311,-0.129,-0.037,-0.044,-0.402,-5.878123770004119,-7.188468031548918
1621787032734.266,-0.133,-0.038,-0.051,-0.402,-5.890199377564875,-7.219121496895452
1621787032739.218,-0.129,-0.047,-0.049,-0.402,-5.902267250453859,-7.249755328075181
1621787032743.622,-0.12632979720728277,-0.05056027039028963,-0.051670202792717224,-0.402,-5.913,-7.277
1621787032744.166,-0.126,-0.051,-0.052,-0.402339225627674,-5.91235547130742,-7.277
1621787032749.111,-0.122,-0.047,-0.054,-0.4054231641772865,-5.906495988063156,-7.277
1621787032754.084,-0.124,-0.049,-0.059,-0.4085244598730188,-5.900603526241264,-7.277
1621787032759.055,-0.117,-0.056,-0.058,-0.4116245375234093,-5.894713378705522,-7.277
1621787032759.657,-0.11651516343081839,-0.056,-0.058848463996067836,-0.412,-5.894,-7.277
1621787032764.022,-0.113,-0.056,-0.065,-0.4171717465440594,-5.8833843097253515,-7.266112112538822
1621787032768.986,-0.112,-0.059,-0.065,-0.42305334632482794,-5.871311552280616,-7.253729797210888
1621787032773.947,-0.11,-0.068,-0.068,-0.42893118567687716,-5.859246513610621,-7.241355398574996
1621787032775.693,-0.11246572104018913,-0.06940898345153665,-0.068,-0.431,-5.855,-7.237
1621787032778.904,-0.117,-0.072,-0.068,-0.42518088612229954,-5.846973636030758,-7.221348590259978
1621787032783.858,-0.115,-0.07,-0.072,-0.41620311546442085,-5.834590504088856,-7.19720148297327
1621787032788.809,-0.119,-0.068,-0.066,-0.4072302117661418,-5.822214085194679,-7.1730674661296225
1621787032791.695,-0.1259991611980066,-0.06916652686633444,-0.06716652686633444,-0.402,-5.815,-7.159
1621787032793.757,-0.131,-0.07,-0.068,-0.3893472033263525,-5.817582203402786,-7.159
1621787032798.702,-0.131,-0.065,-0.066,-0.35900505984682884,-5.82377447758228,-7.159
1621787032803.644,-0.14,-0.082,-0.065,-0.32867939526422796,-5.829963388721586,-7.159
1621787032807.666,-0.14,-0.07955651142094335,-0.06337100761396222,-0.304,-5.835,-7.159
1621787032808.582,-0.14,-0.079,-0.063,-0.304,-5.838390950032168,-7.165781900064336
1621787032813.518,-0.148,-0.08,-0.061,-0.304,-5.8566633987929295,-7.202326797585858
1621787032818.45,-0.159,-0.079,-0.056,-0.304,-5.8749204834410715,-7.238840966882142
1621787032823.379,-0.157,-0.082,-0.056,-0.304,-5.8931667228332465,-7.275333445666493
1621787032823.604,-0.15690860881201368,-0.08222847796996581,-0.0557715220300342,-0.304,-5.894,-7.277
1621787032828.305,-0.155,-0.087,-0.051,-0.29247306859870753,-5.922965109675043,-7.314536417640106
1621787032833.227,-0.15,-0.086,-0.049,-0.2804037637957235,-5.953293106359464,-7.353839025588285
1621787032838.147,-0.143,-0.091,-0.044,-0.2683398468079881,-5.9836075644312094,-7.393124088599628
1621787032839.509,-0.1405064064362336,-0.08961467024235201,-0.042891736193881605,-0.265,-5.992,-7.404
1621787032843.063,-0.134,-0.086,-0.04,-0.2692410298086359,-6.000705271712463,-7.41716951361629
1621787032847.976,-0.122,-0.093,-0.035,-0.2751039468842002,-6.012739680446516,-7.435375414008832
1621787032852.919,-0.112,-0.099,-0.03,-0.28100240738469084,-6.024847046736997,-7.453691686089304
1621787032855.431,-0.1048795847750865,-0.09849139891250619,-0.028982797825012358,-0.284,-6.031,-7.463
1621787032857.858,-0.098,-0.098,-0.028,-0.2929793015814694,-6.034043831044566,-7.4435194813147785
1621787032862.796,-0.082,-0.101,-0.023,-0.3112486259740657,-6.04023682236409,-7.403884336869823
1621787032867.73,-0.066,-0.099,-0.023,-0.3295034982164455,-6.046424914649642,-7.364280546242288
1621787032871.378,-0.057122245878100705,-0.099,-0.02004074862603357,-0.343,-6.051,-7.335
1621787032872.661,-0.054,-0.099,-0.019,-0.35170620359575383,-6.043099926366816,-7.31444368595447
1621787032877.589,-0.042,-0.091,-0.016,-0.3851492912806038,-6.012753420875008,-7.235480840031908
1621787032882.514,-0.035,-0.091,-0.014,-0.418569184512487,-5.9824279622016325,-7.156572758789961
1621787032887.293,-0.03305813203710133,-0.07546505629681068,-0.016912801944348,-0.451,-5.953,-7.08
1621787032887.436,-0.033,-0.075,-0.017,-0.45118012756474296,-5.952819872435257,-7.07744218858065
1621787032892.355,-0.04,-0.073,-0.016,-0.4573733189887036,-5.946626681011296,-6.989498870360409
1621787032897.271,-0.051,-0.068,-0.007,-0.46356282179359104,-5.940437178206409,-6.901607930531007
1621787032902.186,-0.061,-0.058,-0.007,-0.4697510950587873,-5.934248904941213,-6.81373445016522
1621787032903.178,-0.06423245984784447,-0.05678782755705833,-0.006191885038038884,-0.471,-5.933,-6.796
1621787032907.096,-0.077,-0.052,-0.003,-0.48063739952573065,-5.94263739952573,-6.757203289088726
1621787032912.004,-0.094,-0.047,0.0,-0.49270997197499306,-5.954709971974993,-6.708603446151951
1621787032916.908,-0.119,-0.033,0.0,-0.5047729358504511,-5.966772935850451,-6.660042283884081
1621787032919.033,-0.12550231585238308,-0.030832561382538974,0.002167438617461029,-0.51,-5.972,-6.639
1621787032921.81,-0.134,-0.028,0.005,-0.51,-5.982353831438314,-6.656197889507706
1621787032926.708,-0.159,-0.016,0.005,-0.51,-6.000614804301208,-6.6865296749409895
1621787032931.604,-0.166,-0.019,0.002,-0.51,-6.018868495348586,-6.716849365155278
1621787032934.858,-0.17398004191198482,-0.019,0.007320027941323221,-0.51,-6.031,-6.737
1621787032936.497,-0.178,-0.019,0.01,-0.5161236396240415,-6.035047829581993,-6.75734293841207
1621787032941.387,-0.192,-0.01,0.003,-0.5343914945584961,-6.047123191318328,-6.818029371753648
1621787032946.274,-0.195,0.0,0.002,-0.5526484046500123,-6.059191318327974,-6.8786794459559735
1621787032950.651,-0.20485596481583287,0.008959968014393523,0.00020800639712129543,-0.569,-6.07,-6.933
1621787032951.159,-0.206,0.01,0.0,-0.567743085024005,-6.0712891435651235,-6.941540576118941
1621787032956.04,-0.213,0.021,-0.01,-0.5556673997212328,-6.083674461824377,-7.023593309586495
1621787032960.918,-0.204,0.023,-0.023,-0.5435995663620876,-6.096051726808115,-7.105592690103763
1621787032965.793,-0.194,0.019,-0.028,-0.531538980950906,-6.108421557999071,-7.187542821743844
1621787032966.415,-0.19195751503006012,0.020148897795591182,-0.029148897795591183,-0.53,-6.11,-7.198
1621787032970.666,-0.178,0.028,-0.037,-0.5510779402178974,-6.117836670081013,-7.253667380575473
1621787032975.535,-0.161,0.037,-0.04,-0.5752197597541671,-6.126812474780396,-7.317426544991775
1621787032980.402,-0.141,0.033,-0.047,-0.5993531055033057,-6.135785128969178,-7.381163329918987
1621787032982.146,-0.1316758710713927,0.03802068480771162,-0.0509448237774877,-0.608,-6.139,-7.404
1621787032985.265,-0.115,0.047,-0.058,-0.5630980575125585,-6.082574550148525,-7.427444377050965
1621787032990.126,-0.094,0.054,-0.077,-0.4931142941569853,-5.994630351949486,-7.463984572077326
1621787032994.983,-0.086,0.052,-0.082,-0.42319028289709015,-5.906761240454751,-7.500493569106829
1621787032997.844,-0.08246503443768538,0.061426574832838976,-0.07787587351063295,-0.382,-5.855,-7.522
1621787032999.839,-0.08,0.068,-0.075,-0.33209310151430177,-5.8287734155917,-7.5069770050476725
1621787033004.691,-0.073,0.082,-0.066,-0.2107274880039883,-5.764994547267403,-7.470443478531813
1621787033009.54,-0.066,0.087,-0.061,-0.0894290521592821,-5.701250981491868,-7.433930173864273
1621787033013.515,-0.06189795918367347,0.10012653061224489,-0.05115510204081633,0.01,-5.649,-7.404
1621787033014.385,-0.061,0.103,-0.049,0.03180973492772175,-5.629860844859346,-7.40016104155609
1621787033019.229,-0.058,0.119,-0.04,0.15322582659464862,-5.523312029723064,-7.378789331543289
1621787033024.069,-0.063,0.127,-0.028,0.274544006993662,-5.416849136719847,-7.35743485591183
1621787033028.906,-0.066,0.138,-0.012,0.39578263448749573,-5.310456055449748,-7.336094383215211
1621787033029.154,-0.06610262626262627,0.13871838383838386,-0.010665858585858586,0.402,-5.305,-7.335
1621787033033.74,-0.068,0.152,0.014,0.5230619779119607,-5.230070863185558,-7.243028157557175
1621787033038.572,-0.072,0.157,0.042,0.6506204674154491,-5.151120827206457,-7.146120858492632
1621787033043.401,-0.08,0.169,0.07,0.778095172543253,-5.072222648061821,-7.049277211150393
1621787033044.761,-0.08648315118397086,0.17491939890710384,0.07591939890710384,0.814,-5.05,-7.022
1621787033048.226,-0.103,0.19,0.091,0.9338913459127381,-5.013076134653962,-6.984853701730191
1621787033053.049,-0.119,0.201,0.117,1.1007661108324975,-4.961682422266801,-6.933150388665998
1621787033057.868,-0.126,0.23,0.15,1.2674972730692076,-4.910332936308927,-6.881491568455367
1621787033060.339,-0.13677299680705488,0.23820799756727992,0.16641599513455982,1.353,-4.884,-6.855
1621787033062.685,-0.147,0.246,0.182,1.3825735820614282,-4.915082438289052,-6.8313109572263055
1621787033067.499,-0.173,0.278,0.213,1.4432595942465924,-4.9788646755857044,-6.7827002229759445
1621787033072.309,-0.208,0.298,0.239,1.503896363293763,-5.042595157339363,-6.734128933484078
1621787033075.887,-0.23776087729095802,0.31660054830684875,0.2479282631872874,1.549,-5.09,-6.698
1621787033077.118,-0.248,0.323,0.251,1.5256816422840962,-5.126563819411672,-6.718225106182162
1621787033081.923,-0.297,0.346,0.258,1.4346558754129306,-5.2692946987572755,-6.797176026427561
1621787033086.725,-0.353,0.361,0.264,1.3436902312411514,-5.411931304074249,-6.876074799433695
1621787033091.407,-0.3851958180708181,0.3746588319088319,0.264,1.255,-5.551,-6.953
1621787033091.524,-0.386,0.375,0.264,1.251964866100279,-5.556919266112889,-6.9565560897183305
1621787033096.32,-0.412,0.391,0.265,1.1274863578330154,-5.7996833220371045,-7.102400312091169
1621787033101.113,-0.435,0.4,0.26,1.0030902227196066,-6.042286729820469,-7.248148022634491
1621787033105.904,-0.436,0.403,0.26,0.8787447787778004,-6.284791277209464,-7.393836341282727
1621787033106.896,-0.4328916713418677,0.4038288876421686,0.25668444943132557,0.853,-6.335,-7.424
1621787033110.691,-0.421,0.407,0.244,0.7037367490049908,-6.493837702950281,-7.433574451955272
1621787033115.475,-0.394,0.407,0.223,0.5155636489986732,-6.694081116937268,-7.44564476593594
1621787033120.257,-0.382,0.408,0.194,0.32747697264514497,-6.894232563648999,-7.457709536294144
1621787033122.354,-0.38112240727495655,0.4097551854500868,0.1825912945744355,0.245,-6.982,-7.463
1621787033125.036,-0.38,0.412,0.168,0.15303676272768996,-7.0689217743594615,-7.410151561189448
1621787033129.812,-0.386,0.412,0.141,-0.01073900520660237,-7.22371928658469,-7.3160346737565085
1621787033134.585,-0.382,0.407,0.12,-0.17440594090743633,-7.378413932804761,-7.2219803288547055
1621787033137.781,-0.37194752738814374,0.4023088461144671,0.10525637350261083,-0.284,-7.482,-7.159
1621787033139.354,-0.367,0.4,0.098,-0.35418585291599275,-7.488027606000063,-7.155015650271144
1621787033144.121,-0.361,0.398,0.061,-0.5668894015792979,-7.506294722988615,-7.142940776329559
1621787033148.885,-0.353,0.4,0.012,-0.7794513366948911,-7.524549678114991,-7.130873941585007
1621787033153.178,-0.34758981590687654,0.40450848674426954,-0.02046110455874058,-0.971,-7.541,-7.12
1621787033153.646,-0.347,0.405,-0.024,-0.9787668059549722,-7.535334800362256,-7.124781915823258
1621787033158.404,-0.342,0.408,-0.059,-1.0577273073928724,-7.477740081666376,-7.173396812786985
1621787033163.16,-0.346,0.41,-0.094,-1.1366513449530498,-7.420171960151894,-7.221989259441682
1621787033167.912,-0.344,0.414,-0.134,-1.215514609383689,-7.362648167273075,-7.270544288914664
1621787033168.544,-0.3455962171052631,0.4150641447368421,-0.13918770559210528,-1.226,-7.355,-7.277
1621787033172.662,-0.356,0.422,-0.173,-1.1470583722003789,-7.2049035036054825,-7.300628786552267
1621787033177.408,-0.356,0.429,-0.208,-1.0560845577115934,-7.031929482179526,-7.327859043950272
1621787033182.151,-0.346,0.45,-0.248,-0.9651669027872846,-6.859062240333647,-7.3550724916827175
1621787033183.881,-0.3387013388259526,0.4583934603501545,-0.2593129248197734,-0.932,-6.796,-7.365
1621787033186.892,-0.326,0.473,-0.279,-0.7350827524604023,-6.701377426506947,-7.343754183082641
1621787033191.629,-0.297,0.485,-0.298,-0.4252969390522068,-6.552519308375736,-7.310330738678959
1621787033196.364,-0.262,0.49,-0.318,-0.11562289250793545,-6.403714896399918,-7.276919353037819
1621787033199.187,-0.24946914026215294,0.5019341521312829,-0.32933744452471875,0.069,-6.315,-7.257
1621787033201.095,-0.241,0.51,-0.337,0.18404771266903233,-6.224435839647071,-7.219025510693392
1621787033205.825,-0.227,0.522,-0.346,0.46926004603433397,-5.9999201592020714,-7.1248837633068
1621787033210.551,-0.215,0.532,-0.363,0.7542368370576389,-5.775589894824334,-7.030819762795307
1621787033214.461,-0.20920496252261567,0.5435900749547687,-0.3605164125096924,0.99,-5.59,-6.953
1621787033215.274,-0.208,0.546,-0.36,1.0187988468930174,-5.5695741511851375,-6.934174087123639
1621787033219.994,-0.202,0.565,-0.351,1.1859964766175528,-5.45098768417681,-6.824876377322229
1621787033224.711,-0.22,0.581,-0.347,1.3530903267136452,-5.332474823830878,-6.715646508648303
1621787033229.425,-0.241,0.592,-0.325,1.5200803971812942,-5.214035570147341,-6.606484481101857
1621787033229.705,-0.24159442371475953,0.5921783271144279,-0.323751710199005,1.53,-5.207,-6.6
1621787033234.136,-0.251,0.595,-0.304,1.53,-5.224184346514315,-6.582815653485685
1621787033238.844,-0.267,0.602,-0.281,1.53,-5.242443365643856,-6.564556634356143
1621787033243.551,-0.269,0.618,-0.257,1.53,-5.260698597380922,-6.546301402619078
1621787033244.918,-0.2716164909912249,0.612476296796303,-0.25234846046004467,1.53,-5.266,-6.541
1621787033248.253,-0.278,0.599,-0.241,1.5170390145058055,-5.345743012447332,-6.575489402077772
1621787033252.952,-0.29,0.59,-0.215,1.4987769290148274,-5.4581012672477565,-6.624085121096138
1621787033257.649,-0.286,0.572,-0.195,1.4805224341449295,-5.57041282043035,-6.672660641343154
1621787033260.099,-0.2833895853924986,0.5657350049419966,-0.18142584404099257,1.471,-5.629,-6.698
1621787033262.342,-0.281,0.56,-0.169,1.4564912495568376,-5.733522222580333,-6.698
1621787033267.033,-0.272,0.55,-0.148,1.426147162149096,-5.952123505334064,-6.698
1621787033271.721,-0.258,0.543,-0.122,1.3958220259773746,-6.170588261836465,-6.698
1621787033275.249,-0.23842073996873372,0.5377286607608129,-0.10919817613340281,1.373,-6.335,-6.698
1621787033276.406,-0.232,0.536,-0.105,1.3684856464737793,-6.392003277576854,-6.687517518083183
1621787033281.088,-0.208,0.531,-0.08,1.3502177086024283,-6.622674696460863,-6.645098747093774
1621787033285.767,-0.182,0.532,-0.058,1.3319602492895892,-6.853213801343323,-6.602704307672436
1621787033290.37,-0.1524683339424633,0.5290468333942464,-0.04224977810264711,1.314,-7.08,-6.561
1621787033290.443,-0.152,0.529,-0.042,1.3142854161273623,-7.082897699326948,-6.560380792130468
1621787033295.116,-0.124,0.522,-0.024,1.3325558665544914,-7.268389221460005,-6.5207432047631375
1621787033299.786,-0.084,0.525,-0.005,1.3508148621537666,-7.453764447967901,-6.481130468547761
1621787033304.454,-0.049,0.532,0.005,1.369067175770127,-7.6390718353611184,-6.441532228837691
1621787033305.46,-0.039079045176150344,0.5317843270690468,0.009529131550018322,1.373,-7.679,-6.433
1621787033309.118,-0.003,0.531,0.026,1.34433881269656,-7.747981162662517,-6.366447751515741
1621787033313.78,0.031,0.525,0.042,1.3078098109781797,-7.8358984210355676,-6.281626171254417
1621787033318.438,0.065,0.506,0.054,1.2713133287942158,-7.923737412054599,-6.196880102454365
1621787033320.52,0.08020381731424676,0.5028698023176551,0.057130197682344924,1.255,-7.963,-6.159
1621787033323.094,0.099,0.499,0.061,1.2298221752903906,-7.927716789862725,-6.0934006335797255
1621787033327.747,0.133,0.483,0.072,1.1843072211843066,-7.8639339290065795,-5.9748140524733975
1621787033332.396,0.162,0.463,0.073,1.1388328649175534,-7.800207960360653,-5.856333246689952
1621787033335.548,0.17149637490805925,0.4446855626773143,0.07232168750656719,1.108,-7.757,-5.776
1621787033337.043,0.176,0.436,0.072,1.0943439367053576,-7.705166767056832,-5.725163559998046
1621787033341.687,0.182,0.421,0.084,1.0519193677047554,-7.544139205886662,-5.567232682696534
1621787033346.328,0.169,0.394,0.089,1.0095237924691096,-7.3832216940433355,-5.409409738388656
1621787033350.545,0.14536077481840193,0.37399757869249395,0.09809200968523003,0.971,-7.237,-5.266
1621787033350.966,0.143,0.372,0.099,0.9671450942011255,-7.219610716907267,-5.262679716173232
1621787033355.601,0.11,0.356,0.096,0.9247187831335127,-7.028227795448984,-5.2261373460566025
1621787033360.233,0.08,0.33,0.089,0.8823215235298915,-6.836975923660386,-5.189619998368811
1621787033364.862,0.04,0.323,0.087,0.8399488459342631,-6.645834940053829,-5.153123823505424
1621787033365.512,0.03339837484170536,0.3193480371464753,0.08629769945124524,0.834,-6.619,-5.148
1621787033369.489,-0.007,0.297,0.082,0.7791407552721922,-6.47279744973026,-5.255321726336439
1621787033374.112,-0.063,0.272,0.063,0.7153706718979892,-6.302847081902893,-5.380075821481118
1621787033378.732,-0.127,0.239,0.042,0.651644368154324,-6.133013388916136,-5.504744270067026
1621787033380.446,-0.15298720389170897,0.22934760998307951,0.0308626269035533,0.628,-6.07,-5.551
1621787033383.349,-0.197,0.213,0.012,0.683315129973301,-6.15608904031056,-5.663577975790733
1621787033387.965,-0.264,0.183,-0.005,0.7712676287038706,-6.292972858757432,-5.8425798922212575
1621787033392.576,-0.333,0.164,-0.037,0.8591224386168941,-6.429704640382631,-6.0213829912695935
1621787033395.351,-0.36912585412362947,0.15376434133163833,-0.04843985380581599,0.912,-6.512,-6.129
1621787033397.185,-0.393,0.147,-0.056,0.9809298752462245,-6.674028365068942,-6.225797767564018
1621787033401.791,-0.431,0.124,-0.068,1.154043696651346,-7.080954235062377,-6.468900361129349
1621787033406.393,-0.456,0.094,-0.075,1.3270107025607354,-7.487534996717005,-6.7117967826657905
1621787033410.224,-0.46266291598110504,0.07401125205668489,-0.08666010296693381,1.471,-7.826,-6.914
1621787033410.993,-0.464,0.07,-0.089,1.5024920718468322,-7.9057143068622935,-6.955644121323771
1621787033415.59,-0.438,0.052,-0.099,1.690804460819791,-8.382380041450094,-7.204662477794591
1621787033420.184,-0.398,0.026,-0.101,1.8789868412395554,-8.858716691887624,-7.453508915060201
1621787033424.775,-0.339,0.01,-0.105,2.0670392131061255,-9.33472425817488,-7.7021834331206005
1621787033425.067,-0.3354368782252487,0.008791083683566526,-0.10589078044368781,2.079,-9.365,-7.718
1621787033429.364,-0.283,-0.009,-0.119,2.107428948149125,-9.652480485875333,-7.951233411345881
1621787033433.949,-0.201,-0.031,-0.113,2.137762204568679,-9.959217803342453,-8.200089923196098
1621787033438.531,-0.113,-0.073,-0.124,2.16807607871576,-10.26575912252365,-8.448787421300722
1621787033439.88,-0.08325453091684434,-0.08654744136460554,-0.12547254797441365,2.177,-10.356,-8.522
1621787033443.111,-0.012,-0.119,-0.129,1.9518554865561208,-10.418078681376759,-8.537082496531678
1621787033447.687,0.087,-0.18,-0.15,1.6330127502147058,-10.505992600911673,-8.558441864306005
1621787033452.26,0.187,-0.251,-0.176,1.3143741494351588,-10.593850234524675,-8.579787556979586
1621787033454.662,0.23796294120788164,-0.2867265979601645,-0.1917617343941902,1.147,-10.64,-8.591
1621787033456.832,0.284,-0.319,-0.206,1.1181715098960747,-10.564987092076521,-8.48421691930893
1621787033461.399,0.386,-0.405,-0.236,1.0574980472628583,-10.40711226583703,-8.25947746077977
1621787033465.964,0.482,-0.51,-0.258,0.9968472893360694,-10.249296518170386,-8.034822102336665
1621787033469.415,0.550084024618678,-0.5667366871822317,-0.2822076531977522,0.951,-10.13,-7.865
1621787033470.526,0.572,-0.585,-0.29,1.1826462413558647,-9.924310210444272,-7.930117493905574
1621787033475.084,0.651,-0.641,-0.302,2.133159499842457,-9.080303975058458,-8.197313891975258
1621787033479.64,0.71,-0.651,-0.283,3.083214556972521,-8.236704598597038,-8.464381486210842
1621787033484.137,0.7090123324396782,-0.6134686327077747,-0.2306536193029491,4.021,-7.404,-8.728
1621787033484.193,0.709,-0.613,-0.23,4.02032351817079,-7.391632230512305,-8.733660280164177
1621787033488.743,0.614,-0.553,-0.148,3.9655108426527526,-6.38952026454411,-9.192290632945047
1621787033493.291,0.424,-0.501,-0.061,3.9107187557121255,-5.387784708951628,-9.650748716329616
1621787033497.835,0.161,-0.476,0.007,3.8559766696023527,-4.386963292843019,-10.108788431180312
1621787033498.829,0.10431068587400559,-0.4733734680713825,0.011158675553644377,3.844,-4.168,-10.209
1621787033502.377,-0.098,-0.464,0.026,3.2603486137707103,-4.65921571892432,-9.96218224960453
1621787033506.915,-0.267,-0.422,0.002,2.5137953542585962,-5.287533760719341,-9.646475647323287
1621787033511.45,-0.309,-0.361,-0.031,1.7677642161352094,-5.915412371992341,-9.330989842644243
1621787033513.491,-0.2761309312220606,-0.33218328216728604,-0.04225653040340389,1.432,-6.198,-9.189
1621787033515.983,-0.236,-0.297,-0.056,1.3267363204005005,-6.241434042553192,-9.319302127659574
1621787033520.512,-0.082,-0.271,-0.072,1.1354218773466833,-6.320374468085107,-9.55612340425532
1621787033525.04,0.124,-0.272,-0.099,0.9441486858573216,-6.3992978723404255,-9.792893617021278
1621787033528.121,0.27114023534492065,-0.2556510849616755,-0.11807373421137861,0.814,-6.453,-9.954
1621787033529.563,0.34,-0.248,-0.127,0.6977428796012911,-6.1555911728797685,-9.864905758199122
1621787033534.084,0.522,-0.283,-0.155,0.33322385563527496,-5.223079039352433,-9.585554730486846
1621787033538.602,0.639,-0.34,-0.211,-0.031058953389192845,-4.291171190607596,-9.306384727309217
1621787033542.719,0.681866623397696,-0.39107512575044623,-0.2839644653577803,-0.363,-3.442,-9.052
1621787033543.116,0.686,-0.396,-0.291,-0.35016896476619697,-3.4029892941511553,-8.991086635280714
1621787033547.628,0.668,-0.447,-0.36,-0.20433233367399936,-2.959596394524771,-8.298749677484208
1621787033552.137,0.583,-0.464,-0.41,-0.05859039656876708,-2.51649139678657,-7.606862264814783
1621787033556.643,0.456,-0.456,-0.435,0.08705684654949986,-2.073674300936552,-6.915424397272438
1621787033557.291,0.4358546952938625,-0.45010030362177406,-0.43169041422684884,0.108,-2.01,-6.816
1621787033561.146,0.316,-0.415,-0.412,0.6073461867893791,-2.3794047998925145,-6.545509766051425
1621787033565.647,0.176,-0.375,-0.335,1.1903700183060983,-2.8107123927245854,-6.229692289605831
1621787033570.145,0.03,-0.298,-0.227,1.7730143593705392,-3.2417392472666813,-5.914080378885847
1621787033571.828,-0.026171565165426187,-0.2654204922040528,-0.1843096104742761,1.991,-3.403,-5.796
1621787033574.639,-0.12,-0.211,-0.113,1.8237653365198514,-3.674683659558712,-5.908006530117643
1621787033579.131,-0.258,-0.138,-0.007,1.5565152229160004,-4.108848965784203,-6.086999074338994
1621787033583.619,-0.363,-0.093,0.061,1.2895265496406751,-4.542589545079691,-6.265816517158389
1621787033586.334,-0.4053749387621795,-0.07362859942300365,0.10216422622611726,1.128,-4.805,-6.374
1621787033588.104,-0.433,-0.061,0.129,0.9960684386278543,-4.942922892704152,-6.551539042736196
1621787033592.588,-0.457,-0.049,0.18,0.6618539481229129,-5.292314871656491,-7.001288292238675
1621787033597.068,-0.454,-0.065,0.236,0.3279124194690861,-5.641421492899787,-7.450670219583769
1621787033600.81,-0.4448036327933235,-0.10262150220913108,0.27194943544428085,0.049,-5.933,-7.826
1621787033601.544,-0.443,-0.11,0.279,-0.06811622325141137,-5.938995537676211,-7.848407051823806
1621787033606.018,-0.421,-0.183,0.295,-0.7821122003989046,-5.975547175551874,-7.985011054393022
1621787033610.489,-0.403,-0.3,0.291,-1.4956016868936142,-6.012072884621886,-8.121518153544505
1621787033614.957,-0.394,-0.415,0.279,-2.2086236435549846,-6.0485746594097565,-8.257935803387308
1621787033615.254,-0.394132976105856,-0.42351047077478265,0.2774042867297283,-2.256,-6.051,-8.267
1621787033619.422,-0.396,-0.543,0.255,-2.777639658559718,-5.883577958810379,-8.456976305805838
1621787033623.884,-0.396,-0.663,0.229,-3.336035160219497,-5.704359003455051,-8.660338747374839
1621787033628.344,-0.38,-0.77,0.194,-3.8941862339949864,-5.525218498069237,-8.863612170584648
1621787033629.669,-0.37197365249780895,-0.7988353965819457,0.17586640008764243,-4.06,-5.472,-8.924
1621787033632.801,-0.353,-0.867,0.133,-4.000123640128307,-5.397317849323671,-9.015882995875833
1621787033637.254,-0.319,-0.956,0.084,-3.914997369358972,-5.2911421734186455,-9.146513127747323
1621787033641.704,-0.302,-1.023,0.04,-3.8299224385193735,-5.1850305324078,-9.277064476162998
1621787033644.054,-0.2819248037762775,-1.049414731873319,0.01886821450134475,-3.785,-5.129,-9.346
1621787033646.152,-0.264,-1.073,0.0,-3.5084625667539715,-5.073020170754107,-9.275696350215993
1621787033650.596,-0.215,-1.112,-0.028,-2.922759243511684,-4.95445549168339,-9.126793972584101
1621787033655.038,-0.166,-1.127,-0.045,-2.337281166026055,-4.835936409401681,-8.977948858804721
1621787033658.409,-0.13638428115718843,-1.140668793312067,-0.04272186778132219,-1.893,-4.746,-8.865
1621787033659.477,-0.127,-1.145,-0.042,-1.7423821900298253,-4.7343681295270565,-8.779475926714955
1621787033663.913,-0.119,-1.15,-0.051,-1.116844908393694,-4.686059309757137,-8.42428223263741
1621787033668.346,-0.119,-1.134,-0.04,-0.4917551768214743,-4.63778505325948,-8.069342667234768
1621787033672.734,-0.12692591367620307,-1.10824078055234,-0.009287084504713081,0.127,-4.59,-7.718
1621787033672.775,-0.127,-1.108,-0.009,0.1313901689183419,-4.590111906266546,-7.716677210541597
1621787033677.202,-0.141,-1.072,0.023,0.6052409605629473,-4.602190455857487,-7.573902560248681
1621787033681.626,-0.143,-1.023,0.051,1.0787781687133853,-4.6142610121436745,-7.431222394917078
1621787033686.047,-0.131,-0.967,0.077,1.5520017933696564,-4.626323575125109,-7.288636714546789
1621787033687.028,-0.12101270437472382,-0.953905545735749,0.08343625718073354,1.657,-4.629,-7.257
1621787033690.467,-0.086,-0.908,0.106,1.912355016519164,-4.6974804765736,-7.266404009106938
1621787033694.882,-0.021,-0.841,0.145,2.2401869147679614,-4.785397623979321,-7.278477138504202
1621787033699.294,0.038,-0.77,0.197,2.567783145317288,-4.873251570604448,-7.290541588921034
1621787033701.29,0.06742798604573896,-0.7460048729165513,0.2151095298743009,2.716,-4.913,-7.296
1621787033703.703,0.103,-0.717,0.237,2.593077114427861,-4.904692108423401,-7.211225596157146
1621787033708.11,0.171,-0.672,0.262,2.368549751243781,-4.889517155601304,-7.056379138788815
1621787033712.513,0.251,-0.62,0.271,2.1442462686567163,-4.874357334019558,-6.901687081832218
1621787033715.521,0.3063614578132801,-0.5851427858212681,0.26826610084872693,1.991,-4.864,-6.796
1621787033716.914,0.332,-0.569,0.267,1.8813352529610976,-4.842812535455812,-6.7055609152326765
1621787033721.312,0.405,-0.527,0.271,1.5351206099259083,-4.775923123205721,-6.420042220350346
1621787033725.707,0.457,-0.471,0.269,1.1891365972735555,-4.7090782692406865,-6.134713723332932
1621787033729.723,0.4972310172317954,-0.42802595886603667,0.26259961089494166,0.873,-4.648,-5.874
1621787033730.099,0.501,-0.424,0.262,0.8438213331954998,-4.646460088558088,-5.841449458141658
1621787033734.488,0.534,-0.372,0.229,0.5034288003308007,-4.628495787460588,-5.461721300460019
1621787033738.874,0.555,-0.312,0.208,0.1632634861563378,-4.6105434778863215,-5.08224661876949
1621787033743.256,0.541,-0.264,0.188,-0.1765988697644767,-4.5926071570097,-4.703109905067107
1621787033743.893,0.5338739687848384,-0.25934626532887406,0.18785457079152731,-0.226,-4.59,-4.648
1621787033747.636,0.492,-0.232,0.187,-0.44382327147173073,-4.6262597669400085,-4.424883331894692
1621787033752.014,0.405,-0.201,0.178,-0.698601622788088,-4.668671230038844,-4.163913526111351
1621787033756.389,0.319,-0.173,0.166,-0.9532094777729823,-4.711054311609841,-3.903118359948209
1621787033758.035,0.2960296023235031,-0.16245621090259157,0.16675312779267204,-1.049,-4.727,-3.805
1621787033760.76,0.258,-0.145,0.168,-1.1077036658996937,-4.823552082071865,-3.871234728301299
1621787033765.128,0.218,-0.126,0.178,-1.2017967752538796,-4.978310485614934,-3.9773989931318443
1621787033769.494,0.185,-0.113,0.183,-1.2958478106672664,-5.132999688597478,-4.08351578637787
1621787033772.147,0.17526853976604914,-0.11117535120613421,0.1872575138523535,-1.353,-5.227,-4.148
1621787033773.856,0.169,-0.11,0.19,-1.4086385718373446,-5.330710297904811,-4.15890516008012
1621787033778.246,0.168,-0.106,0.188,-1.5515661145200776,-5.597127237465425,-4.186918958445935
1621787033783.279,0.176,-0.103,0.194,-1.7154217085810575,-5.902554064795091,-4.219034654881887
1621787033787.505,0.20118405354284882,-0.09964212619428682,0.1948394684514283,-1.853,-6.159,-4.246
1621787033788.313,0.206,-0.099,0.195,-1.8900637327009095,-6.17797901594068,-4.276704271862148
1621787033793.346,0.246,-0.077,0.18,-2.1209002431629194,-6.296182162048573,-4.467933445408424
1621787033798.379,0.297,-0.077,0.155,-2.351736753624929,-6.414385308156465,-4.659162618954699
1621787033803.413,0.361,-0.075,0.117,-2.582629251598571,-6.532617123472727,-4.850438173576296
1621787033803.77,0.3661061848168809,-0.07379437302934756,0.11366679602231386,-2.599,-6.541,-4.864
1621787033808.446,0.433,-0.058,0.07,-2.559321348685692,-6.301202933361356,-5.066993679912329
1621787033813.479,0.496,-0.037,0.023,-2.51661391920496,-6.043101511716932,-5.285482413342741
1621787033818.512,0.539,-0.003,-0.038,-2.4739064897242278,-5.785000090072508,-5.503971146773153
1621787033820.033,0.5450441426146011,0.013319185059422752,-0.049786078098471985,-2.461,-5.707,-5.57
1621787033823.545,0.559,0.051,-0.077,-2.126520354859047,-5.5694509141673425,-5.531995856975592
1621787033828.579,0.527,0.126,-0.099,-1.647064652196103,-5.372282881503498,-5.477519289081029
1621787033833.613,0.442,0.204,-0.108,-1.1676322015071,-5.175124410819898,-5.423045363115074
1621787033836.297,0.364671355808877,0.24399757458161533,-0.0952007761338831,-0.912,-5.07,-5.394
1621787033838.646,0.297,0.279,-0.084,-0.7675860764623768,-5.180476651506282,-5.38547957851128
1621787033843.679,0.101,0.332,-0.038,-0.4581491121418172,-5.41719592921151,-5.367222797616368
1621787033848.712,-0.129,0.354,0.003,-0.14871214782125763,-5.6539152069167375,-5.348966016721454
1621787033852.562,-0.30799592549476135,0.359354578967792,0.03130277454404346,0.088,-5.835,-5.335
1621787033853.745,-0.363,0.361,0.04,0.078032848413878,-5.996948025041661,-5.53761691363029
1621787033858.778,-0.579,0.333,0.07,0.03563234698013781,-6.68587880016214,-6.399554114308877
1621787033863.812,-0.763,0.298,0.098,-0.00677638157005811,-7.374943250912039,-7.261658559654101
1621787033868.824,-0.896440989570701,0.22729619209313606,0.13086233325248606,-0.049,-8.061,-8.12
1621787033868.845,-0.897,0.227,0.131,-0.05122803278196392,-8.06440530155204,-8.125923778931883
1621787033873.878,-0.96,0.115,0.199,-0.5853082165050584,-8.880687760799736,-9.545908693824861
1621787033878.912,-0.918,-0.007,0.279,-1.119517937017802,-9.697168202695806,-10.966238014469695
1621787033883.945,-0.754,-0.131,0.326,-1.6535981207408963,-10.513450661943502,-12.386222929362674
1621787033885.089,-0.6905804511278195,-0.15509488236720834,0.3200899345137036,-1.775,-10.699,-12.709
1621787033888.978,-0.475,-0.237,0.3,-2.1659131684362576,-10.764231262936875,-13.423223028010662
1621787033894.012,-0.091,-0.304,0.227,-2.6719235030452846,-10.848668667073698,-14.347735842032375
1621787033899.136,0.328,-0.332,0.166,-3.186989456911828,-10.934617172724971,-15.288793843908687
1621787033901.484,0.5007467600533638,-0.3352074995235373,0.15546107299409187,-3.423,-10.974,-15.72
1621787033904.26,0.705,-0.339,0.143,-2.666698929803355,-10.722402503021906,-15.700220849671275
1621787033909.385,0.981,-0.387,0.134,-1.2704917302986525,-10.257928432441995,-15.663706565641677
1621787033914.51,1.148,-0.443,0.134,0.12571546920605003,-9.793454361862084,-15.627192281612077
1621787033918.046,1.2135308153934083,-0.47542050866831775,0.17262869117927224,1.089,-9.473,-15.602
1621787033919.636,1.243,-0.49,0.19,1.3591310595899597,-9.390155968576357,-15.203811074918567
1621787033924.763,1.281,-0.538,0.297,2.230120196913644,-9.123040252332455,-13.919922325231772
1621787033929.889,1.311,-0.571,0.429,3.1009434315445046,-8.8559754152726,-12.636278125783011
1621787033934.61,1.356119851435646,-0.5673167468215798,0.5431808485310223,3.903,-8.61,-11.454
1621787033935.016,1.36,-0.567,0.553,3.854209321859067,-8.587650879726503,-11.348748386431287
1621787033940.144,1.463,-0.487,0.642,3.2379739618637826,-8.305377324570452,-10.019400887094397
1621787033945.272,1.62,-0.367,0.702,2.621738601868498,-8.0231037694144,-8.690053387757509
1621787033950.4,1.798,-0.213,0.742,2.005503241873213,-7.740830214258348,-7.360705888420618
1621787033951.178,1.8212096244466658,-0.19236922271407492,0.7456407254033985,1.912,-7.698,-7.159
1621787033955.529,1.951,-0.077,0.766,1.198899453439208,-6.637276064762298,-6.736810869341033
1621787033960.658,2.037,0.009,0.763,0.35831948025162386,-5.386928829240266,-6.239147910252067
1621787033965.788,2.042,0.086,0.757,-0.4824605548107668,-4.136284005362484,-5.741366505104672
1621787033967.75,2.0033800913589643,0.11123677198325085,0.7646475066615912,-0.804,-3.658,-5.551
1621787033970.919,1.941,0.152,0.777,-0.5302498711321227,-2.975536340741395,-5.415845432186042
1621787033976.05,1.733,0.222,0.784,-0.0869982179413541,-1.8705025405381521,-5.197005405086967
1621787033981.181,1.456,0.293,0.789,0.35623234510081137,-0.765521318428843,-4.978175790512379
1621787033984.327,1.2536695056382927,0.3402104486843983,0.8073936813056097,0.628,-0.088,-4.844
1621787033986.312,1.126,0.37,0.819,0.80407909845719,-0.27820373042044516,-4.712569102579201
1621787033991.444,0.78,0.463,0.862,1.2592947827111058,-0.7699356966199504,-4.372782004475327
1621787033996.577,0.435,0.55,0.899,1.7145754328112122,-1.2617378400659522,-4.032946413849959
1621787034000.911,0.1470840903686088,0.6234565517241379,0.9125092508917955,2.099,-1.677,-3.746
1621787034001.71,0.094,0.637,0.915,2.054099047647085,-1.8026937603956608,-3.792298084990506
1621787034006.844,-0.197,0.714,0.923,1.7656107717444105,-2.6102752108571172,-4.089762927418049
1621787034011.978,-0.431,0.754,0.918,1.4771224958417357,-3.4178566613185746,-4.387227769845592
1621787034017.112,-0.604,0.757,0.874,1.1886342199390612,-4.225438111780031,-4.684692612273135
1621787034017.497,-0.6127723577235772,0.7564001806684734,0.8694263775971093,1.167,-4.286,-4.707
1621787034022.247,-0.721,0.749,0.813,0.762716505768778,-4.291440075347303,-5.580275253119849
1621787034027.382,-0.78,0.74,0.745,0.32566393925123627,-4.29732109430186,-6.5243335589828115
1621787034032.518,-0.794,0.735,0.667,-0.11147174476100763,-4.30320323169296,-7.468571403343537
1621787034034.087,-0.789112611113752,0.7337781527784379,0.6385920520986833,-0.245,-4.305,-7.757
1621787034037.654,-0.778,0.731,0.574,-0.4790390521577972,-4.4567277968993615,-8.012100417733063
1621787034042.79,-0.735,0.731,0.454,-0.8160097961344983,-4.675186332480217,-8.379395434354132
1621787034047.928,-0.672,0.756,0.342,-1.1531086841408524,-4.893727943988468,-8.74683012679081
1621787034050.685,-0.6419440140677725,0.7828357017252032,0.29906287723967495,-1.334,-5.011,-8.944
1621787034053.065,-0.616,0.806,0.262,-1.3071937884179878,-5.1572156995382485,-8.855410487926827
1621787034058.203,-0.581,0.862,0.188,-1.2493217405370431,-5.472881415252493,-8.66415420134702
1621787034063.342,-0.548,0.937,0.138,-1.1914359430604982,-5.7886221287609185,-8.472852474927208
1621787034067.287,-0.5334112140650986,0.9799985269660252,0.1126615823235923,-1.147,-6.031,-8.326
1621787034068.48,-0.529,0.993,0.105,-1.1815541506160496,-6.044361896080218,-8.331603375775575
1621787034073.62,-0.517,1.031,0.063,-1.3304495839091952,-6.101938924339106,-8.355748581174465
1621787034078.76,-0.504,1.059,0.014,-1.479337945128944,-6.159513217866909,-8.37989263975064
1621787034083.892,-0.5169802403457939,1.064990880159597,-0.023942241010782316,-1.628,-6.217,-8.404
1621787034083.9,-0.517,1.065,-0.024,-1.627972252432321,-6.217083242703036,-8.404341436171777
1621787034089.041,-0.55,1.066,-0.051,-1.6097126186766997,-6.2718621439699005,-8.629027776961289
1621787034094.182,-0.562,1.068,-0.07,-1.591453852032568,-6.326638443902295,-8.853703447870434
1621787034099.323,-0.508,1.04,-0.084,-1.5731942182769465,-6.381417345169161,-9.078389788659946
1621787034100.504,-0.481589640110151,1.0308137878644004,-0.09157862501186972,-1.569,-6.394,-9.13
1621787034104.465,-0.393,1.0,-0.117,-1.664833823097267,-6.3215286511901265,-9.249196297384662
1621787034109.608,-0.22,0.935,-0.159,-1.789255362915075,-6.227438730531883,-9.403949456362035
1621787034114.751,-0.028,0.86,-0.201,-1.9136828092859242,-6.133344343226565,-9.558709961798414
1621787034117.12,0.05259800664451826,0.8222340768865686,-0.22264632178452776,-1.971,-6.09,-9.63
1621787034119.895,0.147,0.778,-0.248,-1.9775115534337129,-5.9671152993022405,-9.38122526625046
1621787034125.039,0.291,0.703,-0.29,-1.989582504590525,-5.7393147851634225,-8.920053029746605
1621787034130.183,0.408,0.637,-0.323,-2.0016534557473373,-5.5115142710246054,-8.458880793242749
1621787034133.74,0.4591702501305235,0.598276567468793,-0.33406383786605914,-2.01,-5.354,-8.14
1621787034135.327,0.482,0.581,-0.339,-1.931451016093034,-5.284804358040644,-7.980802302361095
1621787034140.472,0.531,0.548,-0.342,-1.6767831258075883,-5.060461441325032,-7.464658874662282
1621787034145.619,0.569,0.517,-0.353,-1.4220185598496418,-4.836033360742394,-6.948319511335605
1621787034150.367,0.6142107410570263,0.48562928171553277,-0.3493093272606509,-1.187,-4.629,-6.472
1621787034150.765,0.618,0.483,-0.349,-1.1682143056391585,-4.616555973162245,-6.427416880771659
1621787034155.911,0.648,0.464,-0.332,-0.9252910751251597,-4.4556386739682585,-5.850899710774742
1621787034161.058,0.599,0.447,-0.319,-0.6823102197818331,-4.294683202912807,-5.274245782743383
1621787034166.206,0.513,0.414,-0.314,-0.43929478954090995,-4.133704828740475,-4.697509799891357
1621787034166.996,0.496885990704733,0.41200493218249074,-0.3132326662240349,-0.402,-4.109,-4.609
1621787034171.354,0.408,0.401,-0.309,-0.07824036979969184,-4.01915408320493,-4.287859784283513
1621787034176.502,0.281,0.377,-0.3,0.30421316310807833,-3.9130201335387778,-3.9085005356225695
1621787034181.65,0.147,0.363,-0.272,0.6866666960158486,-3.8068861838726247,-3.529141286961626
1621787034183.633,0.09425574671785392,0.3564550926584198,-0.2627601308118868,0.834,-3.766,-3.383
1621787034186.801,0.01,0.346,-0.248,1.1047260002640962,-3.8686169579060112,-3.2636292530481095
1621787034191.95,-0.127,0.332,-0.197,1.5447392050706457,-4.035401147350969,-3.069614991857036
1621787034197.1,-0.265,0.339,-0.159,1.9848567278489369,-4.2022248778555396,-2.8755547339231478
1621787034200.273,-0.3481576452744336,0.3408479476727652,-0.1386725755995829,2.256,-4.305,-2.756
1621787034202.251,-0.4,0.342,-0.126,2.296758352644393,-4.386635534305242,-2.7897474406734912
1621787034207.402,-0.541,0.346,-0.087,2.402900105599718,-4.599228491390689,-2.8776315743158016
1621787034212.553,-0.67,0.344,-0.065,2.5090368279017925,-4.811811372503007,-2.9655115426358862
1621787034216.919,-0.7665870090491307,0.33637470981191075,-0.04720765622779173,2.599,-4.992,-3.04
1621787034217.706,-0.784,0.335,-0.044,2.5762641517732785,-5.037424428577712,-3.110476402715264
1621787034222.858,-0.867,0.321,-0.017,2.427451537232249,-5.334740275924759,-3.5717645696189537
1621787034228.011,-0.93,0.293,-0.005,2.2786036623806942,-5.632126570586597,-4.033162036154646
1621787034233.165,-0.955,0.281,0.0,2.129727579280719,-5.929569223100269,-4.494646942395941
1621787034233.571,-0.9531878523712513,0.27879390723456676,-0.0007091012460321219,2.118,-5.953,-4.531
1621787034238.318,-0.932,0.253,-0.009,1.96153141902291,-6.400175234158569,-5.08419766061299
1621787034243.472,-0.871,0.232,-0.023,1.79165630359263,-6.885665318147839,-5.684794380194362
1621787034248.628,-0.761,0.239,-0.021,1.6217087639066003,-7.371362385119388,-6.2856471571171015
1621787034250.227,-0.7209834241060857,0.2445837082642671,-0.015416291735732892,1.569,-7.522,-6.472
1621787034253.783,-0.632,0.257,-0.003,1.3973833809628489,-7.697672235656189,-6.7945282479665865
1621787034258.938,-0.48,0.244,0.017,1.1485893602989667,-7.952345717007401,-7.262100095259031
1621787034264.094,-0.328,0.192,0.026,0.89974820839745,-8.207067443394154,-7.72976051879534
1621787034266.886,-0.24895554608720352,0.15626757562846189,0.028165601477062915,0.765,-8.345,-7.983
1621787034269.251,-0.182,0.126,0.03,0.48523975794162466,-8.310225134802485,-7.971786880201617
1621787034274.408,-0.017,0.047,0.01,-0.1247917887703669,-8.234396758879381,-7.947336097761107
1621787034279.566,0.148,-0.042,-0.033,-0.7349388553510726,-8.15855402356113,-7.922880685148282
1621787034283.548,0.27615344566452105,-0.0906365486558122,-0.08318056607345703,-1.206,-8.1,-7.904
1621787034284.724,0.314,-0.105,-0.098,-1.103641219026419,-8.047445009079725,-7.8216756048269
1621787034289.882,0.466,-0.152,-0.15,-0.6547032979907444,-7.816942768437701,-7.460606994317849
1621787034295.041,0.597,-0.178,-0.171,-0.20568037900533054,-7.586396886532716,-7.099470022259973
1621787034300.2,0.705,-0.18,-0.162,0.24334253998008348,-7.3558510046277314,-6.7383330502020975
1621787034300.219,0.7052768444465477,-0.17985604088779517,-0.1618855709620936,0.245,-7.355,-6.737
1621787034305.359,0.78,-0.141,-0.131,0.7348197138966572,-6.608402550624478,-6.92750256965899
1621787034310.52,0.833,-0.112,-0.07,1.2266635723384627,-5.858719841281462,-7.118792377410428
1621787034315.681,0.819,-0.068,0.0,1.7184841647510138,-5.109072594696692,-7.31007313644816
1621787034316.893,0.801620151371807,-0.06071925260170294,0.013856906338694418,1.834,-4.933,-7.355
1621787034320.842,0.745,-0.037,0.059,1.806063494386792,-4.3943936417792475,-7.830867595614818
1621787034326.003,0.59,-0.012,0.084,1.769553460868547,-3.6904925718300374,-8.452775793679836
1621787034331.165,0.384,0.009,0.056,1.7330347916453213,-2.9864250084161528,-9.074831091465288
1621787034333.573,0.26737747717920823,0.03558993520314052,0.043871257626637655,1.716,-2.658,-9.365
1621787034336.327,0.134,0.066,0.03,1.2950367194017183,-3.224567050593452,-9.405610575304776
1621787034341.49,-0.073,0.154,-0.016,0.5058052071594785,-4.286779815305361,-9.481748203544615
1621787034346.653,-0.18,0.206,-0.162,-0.28342630508276123,-5.348992580017269,-9.557885831784455
1621787034350.255,-0.13467266969181318,0.23389374172811495,-0.3070474569861978,-0.834,-6.09,-9.611
1621787034351.818,-0.115,0.246,-0.37,-0.8578851504556825,-6.389454219634576,-9.930592679822702
1621787034356.982,0.133,0.365,-0.524,-0.9367848564197837,-7.378639944996269,-10.98630168668354
1621787034362.146,0.525,0.536,-0.578,-1.0156882926900628,-8.367872438157375,-12.042060606503899
1621787034366.944,0.927238088485536,0.6010269427112875,-0.5584919171866137,-1.089,-9.287,-13.023
1621787034367.311,0.958,0.606,-0.557,-1.1875130474212328,-9.185453076090456,-13.038103428604861
1621787034372.477,1.306,0.466,-0.606,-2.574429935933066,-7.7558237281689735,-13.250737193926806
1621787034377.643,1.506,0.145,-0.826,-3.9613468244448993,-6.326194380247491,-13.46337095924875
1621787034382.81,1.62,-0.141,-1.091,-5.3485258900623105,-4.896294781031507,-13.676044919989469
1621787034383.635,1.6223948686448688,-0.16303279153279152,-1.1123941598941598,-5.57,-4.668,-13.71
1621787034387.977,1.635,-0.279,-1.225,-4.6520812924921415,-4.7725335185320565,-12.210386066232912
1621787034393.144,1.552,-0.34,-1.204,-3.5597657723517804,-4.896927523941809,-10.425858132904452
1621787034398.312,1.332,-0.363,-1.138,-2.4672438043716647,-5.021345039842094,-8.640992923459317
1621787034400.333,1.2178099017384731,-0.371994425547997,-1.1231396447467876,-2.04,-5.07,-7.943
1621787034403.48,1.04,-0.386,-1.1,-1.962366424488722,-5.179101553934539,-7.488504407443682
1621787034408.648,0.737,-0.459,-1.091,-1.8348763138275324,-5.358268481295774,-6.742130264446621
1621787034413.819,0.449,-0.55,-1.084,-1.7073079070855322,-5.537545441256012,-5.995297747306562
1621787034417.034,0.28293840921972413,-0.5636829775174759,-1.0591218590591347,-1.628,-5.649,-5.531
1621787034418.988,0.182,-0.572,-1.044,-1.3550247238295632,-5.599644573031738,-5.801636156408907
1621787034424.158,-0.073,-0.565,-0.977,-0.6328202700333158,-5.469066047109709,-6.517652054474253
1621787034429.328,-0.309,-0.6,-0.902,0.08938418376293167,-5.338487521187679,-7.233667952539599
1621787034433.742,-0.50276611113734,-0.6520693073981398,-0.8260300269109107,0.706,-5.227,-7.845
1621787034434.499,-0.536,-0.661,-0.813,0.7206775743941098,-5.276287657224666,-7.923189794457511
1621787034439.671,-0.709,-0.693,-0.696,0.8209451448439075,-5.612988634537566,-8.457331234569704
1621787034444.843,-0.827,-0.698,-0.578,0.9212174484682921,-5.949705505967598,-8.991497889062568
1621787034450.016,-0.885,-0.693,-0.473,1.0215086847910246,-6.286485953866157,-9.525765401078111
1621787034450.454,-0.8851693731117825,-0.693,-0.46546289652567974,1.03,-6.315,-9.571
1621787034455.188,-0.887,-0.693,-0.384,0.8464984227129337,-6.609508704287885,-10.03201939478911
1621787034460.362,-0.834,-0.723,-0.321,0.6459337539432177,-6.931402617128169,-10.53590717373525
1621787034465.535,-0.766,-0.798,-0.269,0.44541640378548897,-7.253220586517116,-11.039676071971025
1621787034467.171,-0.741337233992356,-0.8321484452413533,-0.25445529184164584,0.382,-7.355,-11.199
1621787034470.709,-0.688,-0.906,-0.223,0.34475964374361223,-7.272055570156228,-11.227988231858665
1621787034475.884,-0.595,-0.995,-0.182,0.2902893269090378,-7.150735319024675,-11.270388421667397
1621787034481.06,-0.492,-1.061,-0.138,0.23580873120163529,-7.029392174040006,-11.312796612644181
1621787034483.892,-0.4328972967872812,-1.0785119120630278,-0.12814954946454687,0.206,-6.963,-11.336
1621787034486.235,-0.384,-1.093,-0.12,0.19227259060324317,-6.877834031497672,-11.119022886167588
1621787034491.411,-0.267,-1.098,-0.126,0.1619484185483047,-6.689700392626217,-10.639715309503307
1621787034496.587,-0.14,-1.089,-0.136,0.13162281610789195,-6.501557879526514,-10.160385123991068
1621787034500.619,-0.044204432916764916,-1.0851058712567792,-0.15001886347559537,0.108,-6.355,-9.787
1621787034501.764,-0.017,-1.084,-0.154,0.19189786240606987,-6.312708907857299,-9.640007660319545
1621787034506.941,0.082,-1.063,-0.171,0.571227110235646,-6.121497264171591,-8.975407966732327
1621787034512.12,0.182,-1.042,-0.168,0.9507173560954256,-5.930204464871963,-8.310526198292843
1621787034517.298,0.239,-1.009,-0.141,1.3301181586050923,-5.738956752024513,-7.645801138104618
1621787034517.351,0.23892837946154932,-1.0084781932198594,-0.1406623603187326,1.334,-5.737,-7.639
1621787034522.476,0.232,-0.958,-0.108,1.6641919631131992,-5.568841013219716,-6.918274870867015
1621787034527.655,0.199,-0.892,-0.08,1.9978601278197683,-5.398911678874719,-6.189962077217148
1621787034532.835,0.168,-0.813,-0.056,2.331591210202235,-5.2289503020398636,-5.4615119502728575
1621787034534.083,0.16703624452090307,-0.7903517462412216,-0.04997652825564406,2.412,-5.188,-5.286
1621787034538.015,0.164,-0.719,-0.031,2.375352344832616,-5.047517321858361,-5.055542630005105
1621787034543.196,0.169,-0.62,-0.014,2.327060724965356,-4.862399445700532,-4.751862635839836
1621787034548.377,0.168,-0.522,0.012,2.278771380643279,-4.677290292465903,-4.448196951352928
1621787034550.82,0.15526844783715013,-0.4809761096974837,0.02614616906983319,2.256,-4.59,-4.305
1621787034553.558,0.141,-0.435,0.042,2.1549241807761295,-4.577079304662321,-4.147825465575826
1621787034558.74,0.11,-0.365,0.087,1.9636326727042042,-4.552626183080311,-3.8503640751921364
1621787034563.922,0.047,-0.302,0.124,1.7723321520759503,-4.528171909407767,-3.5528886701375217
1621787034567.561,-0.010572660040510627,-0.26127787460549246,0.14225474586650336,1.638,-4.511,-3.344
1621787034569.105,-0.035,-0.244,0.15,1.513179358600583,-4.492009562682216,-3.3494390087463555
1621787034574.288,-0.127,-0.188,0.175,1.0941499125364431,-4.4282576676384835,-3.3676980466472304
1621787034579.472,-0.195,-0.161,0.197,0.6750612536443149,-4.364496763848396,-3.385959664723032
1621787034584.309,-0.24911858340397475,-0.13580686634642555,0.2119292643873034,0.284,-4.305,-3.403
1621787034584.656,-0.253,-0.134,0.213,0.25353461493616275,-4.310488325657319,-3.41254761557745
1621787034589.841,-0.307,-0.11,0.222,-0.20179532734798578,-4.39251581356031,-3.555244490759634
1621787034595.026,-0.344,-0.093,0.22,-0.6571038302337784,-4.47453943916516,-3.6979346470005248
1621787034600.211,-0.367,-0.075,0.222,-1.1124337725179267,-4.556566927068151,-3.8406315221827083
1621787034601.06,-0.3683098578288297,-0.07188908765652952,0.22330985782882967,-1.187,-4.57,-3.864
1621787034605.397,-0.375,-0.056,0.23,-1.3544311020467623,-4.82878068322529,-3.8539075533542135
1621787034610.584,-0.365,-0.019,0.227,-1.55468111297254,-5.138286109694807,-3.8418368417219027
1621787034615.771,-0.358,0.0,0.232,-1.7549311238983174,-5.447791536164324,-3.8297661300895913
1621787034617.819,-0.344969923750353,0.005527911136213875,0.23831761272710159,-1.834,-5.57,-3.825
1621787034620.958,-0.325,0.014,0.248,-1.8156523815764567,-5.75553561079318,-3.7937341604415127
1621787034626.146,-0.281,0.04,0.26,-1.785327508627845,-6.062188152549036,-3.7420581014372463
1621787034631.333,-0.246,0.063,0.267,-1.755008343890612,-6.368782971473505,-3.690391769691145
1621787034634.585,-0.21654483861861298,0.06926705561306107,0.2738937611743672,-1.736,-6.561,-3.658
1621787034636.522,-0.199,0.073,0.278,-1.8866528817310773,-6.497457756938579,-3.761053965110522
1621787034641.711,-0.145,0.051,0.264,-2.2902294318082532,-6.327237586277194,-4.037120132801351
1621787034646.901,-0.079,0.026,0.227,-2.693881934938987,-6.156985380202115,-4.313238256108571
1621787034651.351,-0.013835693118208758,-0.004867303259795848,0.17641191965755681,-3.04,-6.011,-4.55
1621787034652.091,-0.003,-0.01,0.168,-3.009729713204251,-5.982891876546804,-4.577269733585674
1621787034657.281,0.07,-0.037,0.098,-2.7974282428301063,-5.78575479691367,-4.768526743339642
1621787034662.472,0.131,-0.035,0.04,-2.585086824865337,-5.588580623089241,-4.959819740864755
1621787034667.664,0.176,-0.002,0.0,-2.3726954724122873,-5.391360081525695,-5.1511577231037995
1621787034668.121,0.17820110996143354,0.0029304863136111374,-0.0018489323676041764,-2.354,-5.374,-5.168
1621787034672.855,0.201,0.054,-0.021,-1.5293198207374212,-5.48741821144836,-4.930160317783663
1621787034678.048,0.195,0.152,-0.01,-0.62463843378052,-5.611838983790705,-4.669248101155312
1621787034683.241,0.178,0.237,0.024,0.2800004219654859,-5.73625390681838,-4.408348150627128
1621787034684.9,0.16298589629072446,0.2481807155281839,0.039653001739457475,0.569,-5.776,-4.325
1621787034688.434,0.131,0.272,0.073,0.07952328643552398,-5.534420916325966,-4.5459384993670975
1621787034693.627,0.056,0.241,0.099,-0.6396788203285271,-5.179461873099474,-4.870569742910768
1621787034698.821,-0.035,0.168,0.075,-1.3590499919977883,-4.824419388631039,-5.195277298453391
1621787034701.68,-0.07517247051083228,0.11902260444569765,0.03372691385873396,-1.755,-4.629,-5.374
1621787034704.016,-0.108,0.079,0.0,-2.064781762652705,-4.570272280395578,-5.812092088423502
1621787034709.212,-0.155,-0.012,-0.103,-2.7537540139616055,-4.439658493310064,-6.786433798720186
1621787034714.407,-0.194,-0.094,-0.199,-3.442629144851658,-4.309063118091913,-7.760638161721932
1621787034718.467,-0.2143157449607668,-0.17604435464925058,-0.24275698914626698,-3.981,-4.207,-8.522
1621787034719.603,-0.22,-0.199,-0.255,-3.931944843531875,-4.404100235574686,-8.579039306072593
1621787034724.799,-0.227,-0.332,-0.239,-3.7075646812470917,-5.305644253140995,-8.839939274080969
1621787034729.995,-0.192,-0.483,-0.199,-3.483184518962308,-6.207188270707306,-9.100839242089345
1621787034735.193,-0.089,-0.63,-0.152,-3.258720015123313,-7.109071166821778,-9.361837278966961
1621787034735.256,-0.08672185430463576,-0.6311875440326898,-0.15160011272368606,-3.256,-7.12,-9.365
1621787034740.391,0.099,-0.728,-0.119,-2.869206591265918,-7.278692315520149,-9.45795272431238
1621787034745.589,0.367,-0.782,-0.108,-2.4776686049892422,-7.439331220561726,-9.552045647496657
1621787034750.788,0.651,-0.791,-0.042,-2.0860570593708205,-7.600000305285806,-9.646156248182823
1621787034752.05,0.7119259920169054,-0.787844470532989,-0.015784832120216013,-1.991,-7.639,-9.669
1621787034755.987,0.902,-0.778,0.066,-1.032527908970689,-6.8806587563396455,-10.12644193684333
1621787034761.186,1.115,-0.815,0.129,0.23317115951927647,-5.8792401290453835,-10.730511516719226
1621787034766.387,1.264,-0.838,0.12,1.499345719558804,-4.877445293767165,-11.334808030459362
1621787034768.85,1.2810526315789474,-0.838,0.14084210526315788,2.099,-4.403,-11.621
1621787034771.587,1.3,-0.838,0.164,2.894235279589732,-4.350396888120523,-11.3990246393445
1621787034776.788,1.22,-0.82,0.337,4.405537009864455,-4.250427512966164,-10.977172446355672
1621787034781.989,1.084,-0.812,0.565,5.916767800328332,-4.150462830328476,-10.55534005491552
1621787034785.655,1.007873257287706,-0.7929683143219265,0.7264168896399569,6.982,-4.08,-10.258
1621787034787.19,0.976,-0.785,0.794,6.837001074737851,-4.268005533447585,-10.231976893136201
1621787034792.393,0.908,-0.691,0.944,6.345476166961978,-4.905316481250182,-10.143762410317484
1621787034797.596,0.845,-0.518,1.051,5.853974322479449,-5.542597525198246,-10.055552066691842
1621787034802.465,0.7710709459459459,-0.3242871621621622,1.1539391891891893,5.394,-6.139,-9.973
1621787034802.799,0.766,-0.311,1.161,5.3675036152975,-6.147381914800941,-10.046053750326685
1621787034808.002,0.665,-0.148,1.239,4.95473720126608,-6.277957197200686,-11.184100879867584
1621787034813.206,0.56,-0.084,1.26,4.541873943723321,-6.408563115253942,-12.322415018729854
1621787034818.411,0.499,-0.016,1.218,4.128952580073758,-6.539187414699306,-13.460889363184947
1621787034819.28,0.5036762994933384,0.007882529555263654,1.2144927753799963,4.06,-6.561,-13.651
1621787034823.615,0.527,0.127,1.197,4.226770200040646,-7.698491333507534,-13.489127224690067
1621787034828.821,0.649,0.314,1.22,4.427052231222599,-9.064557181430189,-13.294726736927677
1621787034834.027,0.845,0.525,1.222,4.627334262404553,-10.430623029352844,-13.100326249165287
1621787034836.098,0.9400531251465278,0.5902247385942702,1.19614873165471,4.707,-10.974,-13.023
1621787034839.234,1.084,0.689,1.157,4.153214084629672,-10.977541545739495,-12.322892326445322
1621787034844.44,1.297,0.757,1.044,3.2338734182725792,-10.983420870095195,-11.160642732760621
1621787034849.647,1.408,0.766,0.946,2.3143603000928716,-10.98930129730671,-9.99817512189459
1621787034852.922,1.406113397712357,0.7949279017438591,0.9183298331145696,1.736,-10.993,-9.267
1621787034854.855,1.405,0.812,0.902,1.4205743510874453,-10.39821703930473,-8.877255197829461
1621787034860.063,1.25,0.925,0.887,0.5706741436095353,-8.795601134599481,-7.8271053784658235
1621787034865.272,0.946,1.072,0.84,-0.2793854301176679,-7.192684720630268,-6.776758643703843
1621787034869.749,0.61337879640045,1.2017824334458194,0.7798359580052494,-1.01,-5.815,-5.874
1621787034870.481,0.559,1.223,0.77,-1.071831467192667,-5.769387335383188,-5.888914341242676
1621787034875.69,0.143,1.344,0.71,-1.5118702210361432,-5.4447736555085,-5.995055897197888
1621787034880.9,-0.246,1.443,0.653,-1.9519914718338458,-5.120099118176017,-6.101217352207461
1621787034886.11,-0.585,1.538,0.599,-2.392133346870105,-4.7954093664790856,-6.207383781980623
1621787034886.582,-0.6075504591454273,1.5473281015742129,0.5943812312593703,-2.432,-4.766,-6.217
1621787034891.321,-0.834,1.641,0.548,-2.426371012643545,-5.180012020067277,-6.918090375246491
1621787034896.533,-0.97,1.7,0.497,-2.4201803155086417,-5.635337794339404,-7.689141703398677
1621787034901.745,-1.002,1.709,0.442,-2.413989328384178,-6.090684897343696,-8.46022914975061
1621787034903.42,-0.9930024358253701,1.691647554806071,0.41661401536443693,-2.412,-6.237,-8.708
1621787034906.957,-0.974,1.655,0.363,-2.5953232936674735,-6.370765106605018,-8.940671488411867
1621787034912.169,-0.897,1.553,0.288,-2.8654493064513793,-6.5678673633557025,-9.28351183453394
1621787034917.382,-0.789,1.433,0.209,-3.1356385865232705,-6.765015784209992,-9.626432478657255
1621787034920.264,-0.717685088047958,1.3699775196702886,0.16200955414012738,-3.285,-6.874,-9.816
1621787034922.595,-0.66,1.319,0.124,-3.360833504927195,-6.776259038093837,-9.699019797028976
1621787034927.803,-0.517,1.201,0.033,-3.5302595969995587,-6.557887630533902,-9.437664362406236
1621787034932.882,-0.38,1.093,-0.061,-3.6954921311957643,-6.3449212531254595,-9.182777879099868
1621787034936.863,-0.27888602605393453,1.0130494159496226,-0.13232846224102293,-3.825,-6.178,-8.983
1621787034937.961,-0.251,0.991,-0.152,-3.836776630410523,-6.0999129108575,-8.841881173092089
1621787034943.039,-0.119,0.878,-0.234,-3.8912471468745817,-5.738736247712292,-8.189163450235839
1621787034948.117,-0.002,0.771,-0.318,-3.9457150445638107,-5.377576948829735,-7.536477108039341
1621787034953.196,0.063,0.668,-0.391,-4.000196036127189,-5.016330828633922,-6.88363386254408
1621787034953.271,0.06307380162507813,0.6668782152988125,-0.39187085917592196,-4.001,-5.011,-6.874
1621787034958.274,0.068,0.592,-0.45,-3.725988707205666,-4.813735802175239,-6.14470176012855
1621787034963.353,0.047,0.529,-0.485,-3.446790242668611,-4.613468167413072,-5.404299623573523
1621787034968.432,0.021,0.442,-0.504,-3.1676051985538085,-4.413210159051346,-4.663933076430942
1621787034969.68,0.012398076923076923,0.42135538461538463,-0.5062119230769231,-3.099,-4.364,-4.482
1621787034973.51,-0.014,0.358,-0.513,-2.6914345975865612,-4.345792610888746,-4.088206853452766
1621787034978.588,-0.101,0.26,-0.522,-2.151088294374098,-4.321653428958292,-3.5661196750338506
1621787034983.667,-0.22,0.162,-0.499,-1.6106120939783057,-4.297508444060886,-3.0439069888553276
1621787034986.088,-0.2800680769230769,0.12910557692307692,-0.48422134615384615,-1.353,-4.286,-2.795
1621787034988.745,-0.346,0.093,-0.468,-1.1426369747899159,-4.202686264323911,-2.768891703590527
1621787034993.666,-0.485,0.054,-0.457,-0.7530672268907563,-4.048398166539343,-2.7205419404125286
1621787034998.586,-0.6,0.007,-0.457,-0.3635747899159665,-3.8941406875477464,-2.6722017723453018
1621787035002.067,-0.6622867355043685,-0.034760424940428906,-0.44992196187450356,-0.088,-3.785,-2.638
1621787035003.504,-0.688,-0.052,-0.447,0.011296745843960301,-3.7735148572657717,-2.7249072611621545
1621787035008.423,-0.744,-0.082,-0.459,0.3512101219924407,-3.7341988292413117,-3.0224088590480287
1621787035013.34,-0.77,-0.089,-0.483,0.6909716682543098,-3.694900362597179,-3.3197775712134714
1621787035017.957,-0.781265488482923,-0.1152861397934869,-0.486755162827641,1.01,-3.658,-3.599
1621787035018.258,-0.782,-0.117,-0.487,1.042335142114891,-3.68978548260649,-3.594166787081303
1621787035023.175,-0.794,-0.136,-0.463,1.5705020214286813,-4.208974144159377,-3.5152203895285385
1621787035028.09,-0.815,-0.133,-0.433,2.0984591025778982,-4.727956573870536,-3.436305351021475
1621787035033.005,-0.834,-0.138,-0.389,2.626389958956543,-5.246913224601479,-3.357394232395124
1621787035033.839,-0.8351881084840055,-0.1340962149811246,-0.3805135108285317,2.716,-5.335,-3.344
1621787035037.92,-0.841,-0.115,-0.339,2.9581197256735146,-5.675304157953008,-3.4676301359330792
1621787035042.834,-0.827,-0.08,-0.29,3.2496773588387255,-6.085094292040841,-3.6165040441628737
1621787035047.748,-0.778,-0.017,-0.25,3.5412349920039365,-6.4948844261286744,-3.7653779523926683
1621787035049.716,-0.7495583660487999,0.008637529195447993,-0.23317537146548725,3.658,-6.659,-3.825
1621787035052.661,-0.707,0.047,-0.208,3.6470525943359946,-6.740827218607227,-4.1343105973202885
1621787035057.573,-0.614,0.103,-0.162,3.6287917916532066,-6.877318981032811,-4.650255649391604
1621787035062.484,-0.503,0.115,-0.117,3.610535526943252,-7.013776824034334,-5.166072484501669
1621787035065.587,-0.4246524159872738,0.11057715251541061,-0.0948857625770531,3.599,-7.1,-5.492
1621787035067.395,-0.379,0.108,-0.082,3.3866509734513275,-7.16371610619469,-5.564606725663717
1621787035072.305,-0.25,0.066,-0.058,2.8100169911504427,-7.3367372527895345,-5.761770357829935
1621787035077.215,-0.101,0.04,-0.054,2.2333543362831856,-7.509767002693343,-5.958943793766833
1621787035081.45,0.04479370368528374,0.019295568707415327,-0.07384174665539364,1.736,-7.659,-6.129
1621787035082.124,0.068,0.016,-0.077,1.6734606418034554,-7.664399387145453,-6.090651596809461
1621787035087.032,0.253,-0.005,-0.126,1.218107973268455,-7.703712635890486,-5.811434664777802
1621787035091.94,0.426,-0.042,-0.195,0.7627553047334544,-7.743025884635521,-5.532217732746143
1621787035096.847,0.565,-0.072,-0.251,0.307493240121955,-7.782331311015983,-5.253056357980968
1621787035097.305,0.5764782868228622,-0.072,-0.2539862209620455,0.265,-7.786,-5.227
1621787035101.755,0.688,-0.072,-0.283,0.28156336444567664,-7.513687059113452,-5.036942411360626
1621787035106.66,0.787,-0.084,-0.307,0.29982059575516745,-7.213525798601484,-4.827448418199181
1621787035111.565,0.869,-0.126,-0.307,0.31807782706465826,-6.9133645380895175,-4.617954425037735
1621787035113.156,0.8764606042506595,-0.15032805733910706,-0.30018814394505,0.324,-6.816,-4.55
1621787035116.47,0.892,-0.201,-0.286,0.25832306578116093,-6.491798573123565,-4.562340570442394
1621787035121.374,0.895,-0.271,-0.239,0.1611333959967333,-6.01204064902846,-4.580602323682142
1621787035126.278,0.864,-0.339,-0.197,0.06394372621230565,-5.532282724933356,-4.598864076921892
1621787035129.0,0.8251378348770043,-0.36953455831092524,-0.16591026790160343,0.01,-5.266,-4.609
1621787035131.181,0.794,-0.394,-0.141,0.15308113399519024,-5.210640408213603,-4.580631651970155
1621787035136.083,0.654,-0.435,-0.072,0.47468933834864646,-5.086206820003699,-4.516867176419806
1621787035140.984,0.464,-0.456,0.003,0.7962174569895788,-4.96180421779614,-4.4531185792686685
1621787035144.837,0.2926188792029888,-0.4638615193026152,0.05409987546699876,1.049,-4.864,-4.403
1621787035145.885,0.246,-0.466,0.068,1.122364242087729,-4.957493059411438,-4.528341615769017
1621787035150.785,0.045,-0.464,0.119,1.4653459189339255,-5.394578012215436,-5.114320238756246
1621787035155.686,-0.08,-0.438,0.15,1.8084130421370843,-5.831771855142205,-5.700444845456229
1621787035160.585,-0.129,-0.429,0.15,2.151326361897711,-6.268769695847985,-6.286306681473256
1621787035160.666,-0.128966902601934,-0.4284042468348121,0.1491891137473831,2.157,-6.276,-6.296
1621787035165.483,-0.127,-0.393,0.101,2.431911506473066,-6.007481784375145,-8.529085160553644
1621787035170.381,-0.094,-0.293,0.042,2.7114629283873657,-5.734431558319318,-10.799859999691392
1621787035175.278,-0.037,-0.094,0.016,2.9909446819016465,-5.461449380468159,-13.070068927739287
1621787035176.488,-0.036505734516804625,-0.033699611050164564,0.0026548319537249426,3.06,-5.394,-13.631
1621787035180.174,-0.035,0.15,-0.038,1.6472575724827865,-5.380247846358107,-14.287140889863217
1621787035185.07,-0.119,0.325,-0.159,-0.22922518294377348,-5.361981474048229,-15.158663568715843
1621787035189.966,-0.101,0.38,-0.319,-2.1057079383703337,-5.3437151017383515,-16.03018624756847
1621787035192.302,0.01877895261845386,0.405291970074813,-0.40346563591022444,-3.001,-5.335,-16.446
1621787035194.861,0.15,0.433,-0.496,-2.9088992865746315,-5.9873126100250165,-15.91573297507644
1621787035199.754,0.567,0.517,-0.667,-2.732807853855894,-7.234497977083913,-14.90189196701566
1621787035204.648,1.051,0.602,-0.801,-2.5566724883412086,-8.481994502609716,-13.887798017233393
1621787035208.112,1.3448047600039916,0.5807611016864584,-0.867548548049097,-2.432,-9.365,-13.17
1621787035209.541,1.466,0.572,-0.895,-2.381453459809359,-8.989020547204499,-12.971430765190254
1621787035214.434,1.738,0.459,-0.956,-2.2083706375813006,-7.701581594030497,-12.29148465139273
1621787035219.325,1.84,0.321,-1.009,-2.035365539402741,-6.41472077430518,-11.611843872143861
1621787035223.915,1.7705543575920935,0.18867789757412398,-1.074691823899371,-1.873,-5.207,-10.974
1621787035224.216,1.766,0.18,-1.079,-1.89861285935085,-5.201206615146831,-10.877189489953633
1621787035229.106,1.56,0.042,-1.136,-2.3146712210200926,-5.107098176197836,-9.304587944358579
1621787035233.996,1.269,-0.075,-1.162,-2.7307503554868626,-5.012985038639876,-7.731907882534776
1621787035238.885,0.953,-0.154,-1.143,-3.1467256259659973,-4.918895394126738,-6.159620401854714
1621787035239.711,0.8992774531835206,-0.15805453183520599,-1.1377628963795257,-3.217,-4.903,-5.894
1621787035243.774,0.635,-0.178,-1.112,-2.6946215363681345,-5.395270936417615,-5.775371196190005
1621787035248.662,0.293,-0.188,-1.066,-2.066147699158832,-5.987522389905987,-5.632648812469075
1621787035253.549,-0.038,-0.19,-1.004,-1.4378308077684314,-6.579625943221178,-5.489962070138545
1621787035255.5,-0.16697081896767102,-0.19718722830160396,-0.9684631489531804,-1.187,-6.816,-5.433
1621787035258.435,-0.361,-0.208,-0.915,-0.8988096475355326,-7.051200513462936,-6.176902967877635
1621787035263.321,-0.654,-0.295,-0.831,-0.41905972873072583,-7.442738350422988,-7.415276790547333
1621787035268.207,-0.824,-0.421,-0.737,0.06069019007408083,-7.83427618738304,-8.65365061321703
1621787035271.286,-0.8328237293218052,-0.5199518216802439,-0.6594772352441401,0.363,-8.081,-9.434
1621787035273.092,-0.838,-0.578,-0.614,0.3798295083489376,-8.278603615035825,-9.706821213574955
1621787035277.976,-0.738,-0.705,-0.476,0.42533833702161905,-8.81294537210418,-10.444559572262028
1621787035282.859,-0.585,-0.796,-0.346,0.4708357913307232,-9.347153577121281,-11.182113542456554
1621787035287.062,-0.4257599620018999,-0.8846579671016449,-0.2762786860656967,0.51,-9.807,-11.817
1621787035287.742,-0.4,-0.899,-0.265,0.47235554144861114,-9.757066113399189,-11.80600419595578
1621787035292.624,-0.218,-0.998,-0.229,0.20205886724677175,-9.39852825689778,-11.727051559161428
1621787035297.506,-0.072,-1.119,-0.187,-0.06823780695506765,-9.03999040039637,-11.648098922367076
1621787035302.387,0.021,-1.229,-0.162,-0.33846689685071063,-8.681542191806273,-11.569166026693091
1621787035302.83,0.026720396217919856,-1.233903196758217,-0.15963920156085848,-0.363,-8.649,-11.562
1621787035307.267,0.084,-1.283,-0.136,-0.2360665448407229,-8.0832877053877,-10.905098260883031
1621787035312.147,0.122,-1.304,-0.086,-0.09646349093274281,-7.461110015021758,-10.182629241323772
1621787035317.026,0.126,-1.306,-0.045,0.0431116256020318,-6.839056834900036,-9.460304802316758
1621787035318.595,0.11956817613209908,-1.2941011258443833,-0.03792499374530898,0.088,-6.639,-9.228
1621787035321.905,0.106,-1.269,-0.023,0.06741078208048595,-6.274276711140037,-8.83659476546883
1621787035326.783,0.087,-1.215,-0.016,0.03706909643128322,-5.736795422497017,-8.25979312909674
1621787035331.66,0.12,-1.176,-0.045,0.006733485193621866,-5.199421737715587,-7.68310696852773
1621787035334.35,0.13654752965910796,-1.1589008860189218,-0.06926971016669169,-0.01,-4.903,-7.365
1621787035336.537,0.15,-1.145,-0.089,0.17384784226190475,-4.836348214285714,-7.073537295386905
1621787035341.413,0.143,-1.112,-0.126,0.5837394593253968,-4.687747023809524,-6.423716672867064
1621787035346.288,0.106,-1.059,-0.126,0.9935489831349207,-4.539175595238095,-5.774026196676587
1621787035350.1,0.04188000801282052,-1.0238121995192309,-0.09472195512820512,1.314,-4.423,-5.266
1621787035351.163,0.024,-1.014,-0.086,1.3623425186471692,-4.382624544481834,-5.183223564439344
1621787035356.038,-0.042,-0.949,-0.066,1.5840474824383208,-4.197457549583637,-4.803600260517624
1621787035360.911,-0.08,-0.895,-0.086,1.8056525191123791,-4.012374013367035,-4.424148060849474
1621787035365.784,-0.113,-0.826,-0.087,2.0272686587994477,-3.8272812039635897,-4.044676849597593
1621787035365.844,-0.11308628983764282,-0.8249152134696331,-0.08653156945279615,2.03,-3.825,-4.04
1621787035370.656,-0.12,-0.738,-0.049,2.3629691450909824,-3.983687774382204,-3.7281280734685014
1621787035375.528,-0.12,-0.644,0.002,2.7000940694662052,-4.144356126770396,-3.4123636814917084
1621787035380.399,-0.141,-0.539,0.068,3.037134526782806,-4.304984223508059,-3.0966784046662426
1621787035381.582,-0.15848757016840415,-0.5171405372894948,0.08330162389735365,3.119,-4.344,-3.02
1621787035385.27,-0.213,-0.449,0.131,2.9028315691448086,-4.406130839670961,-2.8889390966940867
1621787035390.139,-0.318,-0.347,0.182,2.6174451652956696,-4.4881562160484245,-2.7159119819959647
1621787035395.008,-0.422,-0.262,0.209,2.3320444513425422,-4.570185705416732,-2.542876191215272
1621787035397.312,-0.4570237223531772,-0.22981603891870206,0.22177892572345653,2.197,-4.609,-2.461
1621787035399.876,-0.496,-0.194,0.236,1.8850626348885957,-4.5930199363403466,-2.646564412700877
1621787035404.745,-0.543,-0.14,0.251,1.2926727272727274,-4.562672727272727,-2.9989636363636363
1621787035409.612,-0.574,-0.099,0.253,0.7005501436223895,-4.532339212794038,-3.35120383510597
1621787035413.036,-0.5824418359668924,-0.08704073238023577,0.2466686230248307,0.284,-4.511,-3.599
1621787035414.479,-0.586,-0.082,0.244,0.1526240428671274,-4.525413714374467,-3.652982573580803
1621787035419.345,-0.585,-0.059,0.239,-0.2903558592839947,-4.57401458414227,-3.8350036654500275
1621787035424.21,-0.559,-0.04,0.234,-0.7332468587403898,-4.6226057000854235,-4.016988227071523
1621787035428.755,-0.5197631856275405,-0.03346053093792342,0.23026316053595625,-1.147,-4.668,-4.187
1621787035429.075,-0.517,-0.033,0.23,-1.1528053013470891,-4.685171470300337,-4.169828529699663
1621787035433.94,-0.468,-0.024,0.227,-1.241044996193347,-4.946175199266637,-3.9088248007333637
1621787035438.803,-0.436,-0.037,0.234,-1.3292492658597597,-5.207074144279921,-3.647925855720079
1621787035443.666,-0.431,-0.035,0.236,-1.4174535355261726,-5.4679730892932055,-3.3870269107067945
1621787035444.468,-0.43528872709013305,-0.03318553853878986,0.2388041677127793,-1.432,-5.511,-3.344
1621787035448.528,-0.457,-0.024,0.253,-1.3787517408604824,-5.7239930365580705,-3.1868400895299676
1621787035453.39,-0.482,-0.005,0.286,-1.314988311365332,-5.979046754538672,-2.9986451131559315
1621787035458.251,-0.515,0.007,0.319,-1.2512344876896293,-6.234062049241482,-2.810478487938324
1621787035460.175,-0.521728793129426,0.008187434081663402,0.3288952840138617,-1.226,-6.335,-2.736
1621787035463.112,-0.532,0.01,0.344,-1.4370296564701492,-6.3129242026033,-2.9653637932911376
1621787035467.972,-0.536,0.005,0.354,-1.7862197098113617,-6.276395455888528,-3.3448912803446187
1621787035472.831,-0.522,-0.007,0.34,-2.135357137303081,-6.239872214360139,-3.724361569444661
1621787035475.874,-0.5057137400743793,-0.007,0.3224609508493316,-2.354,-6.217,-3.962
1621787035477.689,-0.496,-0.007,0.312,-2.29154301895012,-6.219313221520365,-4.105998039642779
1621787035482.547,-0.456,0.005,0.274,-2.12436095466285,-6.225505149827302,-4.491445576749541
1621787035487.405,-0.398,0.054,0.251,-1.9571872919065254,-6.231696766966425,-4.876873743659956
1621787035491.566,-0.3440285010555947,0.09854790389062029,0.23643626218960492,-1.814,-6.237,-5.207
1621787035492.262,-0.335,0.106,0.234,-1.7792133096772187,-6.261803265166371,-5.2204887166557725
1621787035497.118,-0.264,0.169,0.227,-1.5365239829426962,-6.434843231549787,-5.314592741307934
1621787035501.973,-0.182,0.213,0.227,-1.2938834625081705,-6.607848398543282,-5.40867784106826
1621787035506.828,-0.099,0.248,0.22,-1.051242942073645,-6.780853565536776,-5.502762940828586
1621787035507.253,-0.09260763504677598,0.2464238004224927,0.21711030077456997,-1.03,-6.796,-5.511
1621787035511.682,-0.026,0.23,0.187,-1.9717806325033866,-6.507872751903583,-5.873983837062643
1621787035516.536,0.026,0.161,0.136,-3.0039443795643166,-6.1920938010931,-6.271803397642516
1621787035521.389,0.049,0.047,0.044,-4.035900468694041,-5.876378380903443,-6.669542922097134
1621787035522.932,0.04168592130421657,0.004705544933078391,0.0032955620408574027,-4.364,-5.776,-6.796
1621787035526.241,0.026,-0.086,-0.084,-4.440645459785335,-5.672539186515664,-7.276353776891561
1621787035531.093,-0.044,-0.204,-0.218,-4.553029395728506,-5.520836352873366,-7.980688361659371
1621787035535.944,-0.176,-0.311,-0.297,-4.665390712382971,-5.369164052155219,-8.684881186422196
1621787035538.604,-0.24015597161407215,-0.3789943630781619,-0.29206492526045597,-4.727,-5.286,-9.071
1621787035540.795,-0.293,-0.435,-0.288,-4.440286266442242,-5.759147590549217,-9.205405803877564
1621787035545.645,-0.335,-0.557,-0.234,-3.8055798890343495,-6.8065679197057545,-9.502943769091702
1621787035550.494,-0.267,-0.667,-0.178,-3.1710332585250294,-7.853724627516987,-9.800406848076804
1621787035554.269,-0.12060841978044115,-0.72150750327324,-0.16476246349078458,-2.677,-8.669,-10.032
1621787035555.342,-0.079,-0.737,-0.161,-2.4902178102053227,-8.712714980590244,-10.088459473364201
1621787035560.19,0.173,-0.75,-0.159,-1.6463193021841822,-8.910223142042,-10.343548384079323
1621787035565.038,0.408,-0.717,-0.089,-0.8023782953712797,-9.107741250019489,-10.598650141091
1621787035569.885,0.555,-0.663,0.051,0.04135021748281176,-9.305209625368319,-10.853687666619896
1621787035569.929,0.55563479268477,-0.6627188775253162,0.05207007909718373,0.049,-9.307,-10.856
1621787035574.731,0.625,-0.632,0.169,1.6375898207795854,-8.184740138197814,-12.089626819110606
1621787035579.576,0.654,-0.623,0.225,3.2403944876854207,-7.052438193133783,-13.334292243140803
1621787035584.421,0.642,-0.661,0.323,4.8431991545912565,-5.920136248069754,-14.578957667171
1621787035585.581,0.6350561322180792,-0.6878176962612114,0.36681820014108635,5.227,-5.649,-14.877
1621787035589.266,0.613,-0.773,0.506,5.02843812615087,-6.071562279579289,-14.456557598077463
1621787035594.11,0.695,-0.972,0.67,4.767429371742455,-6.627018632377267,-13.903887815611249
1621787035598.953,0.923,-1.112,0.733,4.506486392434693,-7.182335008270653,-13.351357307824351
1621787035601.226,1.062432612312812,-1.1087137094741089,0.741919931427419,4.384,-7.443,-13.092
1621787035603.795,1.22,-1.105,0.752,4.140731005198496,-7.33672380848307,-12.450893391822909
1621787035608.636,1.494,-0.949,0.799,3.6822838565652467,-7.136443386359024,-11.242710258051423
1621787035613.478,1.667,-0.733,0.909,3.223744227797118,-6.93612256271758,-10.034283403843453
1621787035616.865,1.7082782792879116,-0.6098647939886026,0.9873587674617983,2.903,-6.796,-9.189
1621787035618.319,1.726,-0.557,1.021,2.7570601877157093,-6.605320194274827,-9.001947761310575
1621787035623.158,1.691,-0.422,1.066,2.271410913122921,-5.970787999937532,-8.379487155060671
1621787035627.998,1.59,-0.302,1.059,1.7856391235769058,-5.336095731888245,-7.7568695204035425
1621787035632.498,1.4458255954784014,-0.17549858700040372,1.0394666935809447,1.334,-4.746,-7.178
1621787035632.836,1.435,-0.166,1.038,1.3999480064991876,-4.762973503312087,-7.170172728408949
1621787035637.674,1.241,0.019,1.033,2.3442338770153732,-5.0060110142482195,-7.058096831646044
1621787035642.512,1.049,0.264,1.075,3.2884720972378454,-5.249036261092363,-6.946026590426197
1621787035647.349,0.885,0.504,1.119,4.232567366579178,-5.492024715660542,-6.833973315835521
1621787035648.125,0.8614152867528272,0.5370506865912763,1.1167538368336025,4.384,-5.531,-6.816
1621787035652.185,0.738,0.71,1.105,4.478092841512973,-5.885277743044702,-6.899955767427321
1621787035657.02,0.595,0.887,1.075,4.59014423257268,-6.307172897780556,-6.9999353235386055
1621787035661.855,0.436,1.002,1.075,4.702195623632385,-6.7290680525164115,-7.099914879649891
1621787035663.745,0.36874626262626264,1.0223325252525253,1.082429191919192,4.746,-6.894,-7.139
1621787035666.689,0.264,1.054,1.094,3.987967284896632,-6.943969818284177,-7.033591968223188
1621787035671.524,0.098,1.079,1.096,2.7429780752509934,-7.0260400025021115,-6.860470334344603
1621787035676.357,-0.047,1.133,1.037,1.4984917899477685,-7.108077033747224,-6.687418634472836
1621787035679.357,-0.12522797089733223,1.1845311236863378,0.9935400161681487,0.726,-7.159,-6.58
1621787035681.189,-0.173,1.216,0.967,0.33801589437126495,-6.970231938925566,-6.768885454147242
1621787035686.021,-0.291,1.332,0.89,-0.6853025249522857,-6.472351146710053,-7.267075873721097
1621787035690.852,-0.415,1.421,0.791,-1.7084141297205973,-5.9745709771283755,-7.765165608084853
1621787035694.963,-0.5145827730880048,1.4635567406358996,0.705886518728201,-2.579,-5.551,-8.189
1621787035695.682,-0.532,1.471,0.691,-2.63190363972084,-5.539663505774106,-8.235958892748725
1621787035700.513,-0.614,1.513,0.597,-2.987372985322192,-5.463491503145245,-8.55148438331299
1621787035705.342,-0.668,1.557,0.515,-3.3426986198479014,-5.387350295746878,-8.866882311520046
1621787035710.17,-0.717,1.587,0.442,-3.6979344349513346,-5.311228335367571,-9.182200513253841
1621787035710.565,-0.7181451971688574,1.5847096056622851,0.4368466127401416,-3.727,-5.305,-9.208
1621787035714.999,-0.731,1.559,0.379,-3.885949133436663,-5.528211216006763,-9.11046949415246
1621787035719.826,-0.724,1.471,0.312,-4.0589798193289806,-5.771197062921735,-9.0042986081756
1621787035724.653,-0.703,1.367,0.239,-4.232019256963036,-6.014195199849701,-8.898122352167583
1621787035726.159,-0.7042481408407952,1.332988162088329,0.21715753528608286,-4.286,-6.09,-8.865
1621787035729.479,-0.707,1.258,0.169,-4.225294933040958,-6.117051029837889,-8.69374781110502
1621787035734.305,-0.702,1.18,0.099,-4.137056308246534,-6.156371399483123,-8.444822006421802
1621787035739.13,-0.682,1.11,0.028,-4.048835539196491,-6.195683812358054,-8.195946573733261
1621787035741.746,-0.6559692307692307,1.0628192307692308,-0.007250000000000003,-4.001,-6.217,-8.061
1621787035743.954,-0.634,1.023,-0.037,-3.916250144950247,-6.219834443312701,-8.017916461646948
1621787035748.777,-0.557,0.944,-0.099,-3.7311292486092613,-6.226025777638486,-7.923808179895008
1621787035753.601,-0.436,0.873,-0.159,-3.545970868917966,-6.232218365588028,-7.8296808430619755
1621787035757.326,-0.3456396355353075,0.8367013920526448,-0.19143705391040244,-3.403,-6.237,-7.757
1621787035758.424,-0.319,0.826,-0.201,-3.3179684458029626,-6.256389450583901,-7.685082765106983
1621787035763.245,-0.22,0.78,-0.22,-2.9446651775217494,-6.3415125009797,-7.369353632729838
1621787035768.066,-0.12,0.738,-0.227,-2.571380813543381,-6.426631240692844,-7.053640489066542
1621787035772.887,-0.037,0.707,-0.248,-2.198077545262168,-6.511754291088643,-6.737911356689396
1621787035772.901,-0.0368383551931939,0.7068441282220084,-0.24801443257203626,-2.197,-6.512,-6.737
1621787035777.708,0.019,0.653,-0.253,-1.9790010350181129,-6.433260997067448,-6.382828877005347
1621787035782.527,0.075,0.583,-0.262,-1.7604595637241833,-6.354326046387629,-6.027776373359261
1621787035787.345,0.15,0.511,-0.274,-1.5419734502171971,-6.2754110903759,-5.672813806514341
1621787035788.469,0.16306430200152014,0.49770240689130985,-0.2809987332151001,-1.491,-6.257,-5.59
1621787035792.163,0.206,0.454,-0.304,-1.0881934395883666,-6.098678270009098,-5.238464044802811
1621787035796.981,0.225,0.407,-0.316,-0.5628491356320398,-5.892193502337402,-4.779987371756659
1621787035801.798,0.237,0.365,-0.318,-0.03758469551030674,-5.68574012487058,-4.321580397201393
1621787035804.032,0.2397825646224024,0.35108717688798785,-0.3115073492143943,0.206,-5.59,-4.109
1621787035806.615,0.243,0.335,-0.304,0.4062900871203202,-5.469427360489758,-3.8711762812966017
1621787035811.43,0.222,0.33,-0.295,0.7796474688015068,-5.244669931716506,-3.4278530884545955
1621787035816.245,0.187,0.326,-0.286,1.1530237814928184,-5.019901106663527,-2.9845074170002355
1621787035819.585,0.15647357744193122,0.3350191703012476,-0.27906217669134803,1.412,-4.864,-2.677
1621787035821.059,0.143,0.339,-0.276,1.4789319348710137,-4.825888614988459,-2.589590306018308
1621787035825.874,0.077,0.34,-0.265,1.6975526072006155,-4.701404889384352,-2.3040828557521706
1621787035830.687,0.01,0.353,-0.253,1.9160845985963038,-4.576971659156212,-2.01869121826375
1621787035835.134,-0.0639320142059868,0.3724071537290715,-0.24191019786910198,2.118,-4.462,-1.755
1621787035835.499,-0.07,0.374,-0.241,2.1175538014451774,-4.465452167766258,-1.7455593779453344
1621787035840.311,-0.159,0.393,-0.216,2.1116711435752435,-4.510965362865221,-1.6210947219604146
1621787035845.122,-0.274,0.403,-0.195,2.1057896795475965,-4.556469321394911,-1.4966553251649386
1621787035849.932,-0.41,0.405,-0.182,2.099909707822809,-4.601961734213006,-1.3722475023562677
1621787035850.676,-0.4342837714401705,0.40469065259311887,-0.18169065259311884,2.099,-4.609,-1.353
1621787035854.743,-0.567,0.403,-0.18,2.0194206490139077,-4.90166353421859,-1.6535167596448495
1621787035859.552,-0.709,0.401,-0.164,1.9253184725386974,-5.247736670071502,-2.008876294492025
1621787035864.361,-0.815,0.408,-0.15,1.831216296063487,-5.593809805924413,-2.3642358293392
1621787035866.212,-0.8346329152490732,0.40761504087746914,-0.137296348956482,1.795,-5.727,-2.501
1621787035869.169,-0.866,0.407,-0.117,1.6119955505243464,-5.930571026523906,-3.0275424586890556
1621787035873.976,-0.864,0.382,-0.084,1.314492445324906,-6.26150840369165,-3.883521736396082
1621787035878.784,-0.822,0.326,-0.063,1.016944012074902,-6.592496203009293,-4.7396314324796
1621787035881.74,-0.778946053032612,0.2694148125571472,-0.0703806766229808,0.834,-6.796,-5.266
1621787035883.59,-0.752,0.234,-0.075,0.5546311220156648,-6.894208172124186,-5.462416344248372
1621787035888.396,-0.651,0.124,-0.124,-0.17107174986631424,-7.149318738007612,-5.972637476015224
1621787035893.2,-0.52,0.031,-0.185,-0.896479695511308,-7.404325626749709,-6.482651253499418
1621787035897.263,-0.38555164879833337,-0.044257253188354245,-0.25011020781464355,-1.51,-7.62,-6.914
1621787035898.005,-0.361,-0.058,-0.262,-1.4448369096686908,-7.654661218261335,-6.950573561337822
1621787035902.809,-0.188,-0.119,-0.335,-1.022895714690243,-7.8790980241009345,-7.187393087499607
1621787035907.612,-0.005,-0.143,-0.382,-0.6010617311141175,-8.103477802598874,-7.424152439983639
1621787035912.415,0.169,-0.136,-0.368,-0.17922774753799198,-8.327857581096813,-7.6609117924676715
1621787035912.782,0.18344237124408969,-0.13164436422797296,-0.3642556815293101,-0.147,-8.345,-7.679
1621787035917.217,0.358,-0.079,-0.319,0.7109683354054862,-7.913299837899939,-7.8219470735430665
1621787035922.019,0.532,-0.017,-0.253,1.6399223808249792,-7.445882107615556,-7.976721156418691
1621787035926.819,0.66,0.024,-0.161,2.568498591460632,-6.978654490801215,-8.131432287814167
1621787035928.295,0.679678535096643,0.03968133265513733,-0.13793921668362158,2.854,-6.835,-8.179
1621787035931.619,0.724,0.075,-0.086,3.1903183872034258,-6.757190201048538,-7.701852307256326
1621787035936.418,0.702,0.15,-0.028,3.675886550057465,-6.644850339279248,-7.012958278885968
1621787035941.217,0.604,0.225,0.026,4.161454712911504,-6.532510477509958,-6.32406425051561
1621787035943.802,0.5258975428600499,0.2767092130030015,0.0513159688660528,4.423,-6.472,-5.953
1621787035946.016,0.459,0.321,0.073,4.268849858223063,-6.4664283081285445,-6.1504379017013235
1621787035950.813,0.361,0.422,0.127,3.9348833805923125,-6.454357230623819,-6.578187366099559
1621787035955.61,0.353,0.496,0.168,3.6008999054820414,-6.442285538752363,-7.005958601134216
1621787035959.3,0.4167138503733049,0.5213320127990249,0.1595559957336584,3.344,-6.433,-7.335
1621787035960.417,0.436,0.529,0.157,3.1358613790366885,-6.305645137659483,-7.59180437702216
1621787035965.377,0.586,0.541,0.096,2.2115894176179722,-5.740106037482449,-8.73218420731335
1621787035970.338,0.775,0.562,-0.002,1.2871354770771015,-5.174455588791893,-9.87278856602161
1621787035975.297,0.9649252005314699,0.5789933074159735,-0.11895393927464198,0.363,-4.609,-11.013
1621787035975.299,0.965,0.579,-0.119,0.36262224592412007,-4.608918695718422,-11.012863720859363
1621787035980.259,1.059,0.597,-0.279,-0.5966842297729698,-4.402446472649703,-10.666782843211946
1621787035985.219,1.049,0.611,-0.426,-1.5559907054700595,-4.195974249580985,-10.320701965564528
1621787035990.179,1.016,0.632,-0.56,-2.515297181167149,-3.989502026512266,-9.97462108791711
1621787035991.32,1.0183006497341998,0.6262483756645009,-0.5846169521559362,-2.736,-3.942,-9.895
1621787035995.139,1.026,0.607,-0.667,-2.4578617400579006,-4.512338351363706,-9.694082645131799
1621787036000.099,1.066,0.595,-0.719,-2.0965949565747373,-5.253136477220783,-9.433116151150388
1621787036005.059,1.105,0.606,-0.75,-1.7353459545939356,-5.993898141094012,-9.172162501904616
1621787036007.343,1.1082239562820009,0.5986309570697125,-0.7628958251280031,-1.569,-6.335,-9.052
1621787036010.018,1.112,0.59,-0.778,-1.988239737299241,-6.267881571328437,-9.299102672721178
1621787036014.977,1.089,0.475,-0.82,-2.7654230487916376,-6.143457958735866,-9.757179654405267
1621787036019.936,1.051,0.297,-0.874,-3.542606360284034,-6.019034346143297,-10.215256636089356
1621787036023.365,1.0157423213230952,0.16979582594999015,-0.899579100216578,-4.08,-5.933,-10.532
1621787036024.896,1.0,0.113,-0.911,-4.187692332307317,-6.111977585103465,-10.399940724712767
1621787036029.855,0.93,-0.058,-0.958,-4.536511763630268,-6.691692576113126,-9.972195867491543
1621787036034.813,0.852,-0.188,-1.009,-4.885262502666626,-7.271293405052876,-9.544535245177217
1621787036039.387,0.8003376009454403,-0.28947971242859954,-1.0477467992909197,-5.207,-7.806,-9.15
1621787036039.771,0.796,-0.298,-1.051,-5.1329412132296905,-7.8438565310166135,-9.139403048315806
1621787036044.729,0.764,-0.38,-1.026,-4.1768154397195545,-8.332598064319463,-9.002592562109434
1621787036049.689,0.749,-0.457,-0.974,-3.2203130163084897,-8.82153212924859,-8.865728181679621
1621787036054.646,0.712,-0.531,-0.953,-2.264375567748819,-9.310177396738302,-8.728944642584972
1621787036055.405,0.7008242564506598,-0.5426350206815048,-0.9487134134331298,-2.118,-9.385,-8.708
1621787036059.604,0.639,-0.607,-0.925,-1.54466504587995,-9.032662469896046,-8.980642136389964
1621787036064.562,0.522,-0.709,-0.885,-0.8676904398987899,-8.616634179800627,-9.30256878943999
1621787036069.519,0.417,-0.784,-0.799,-0.19084917538030077,-8.20068783342987,-9.624432033655458
1621787036071.422,0.3789999507583218,-0.8074141717549734,-0.7521716564900532,0.069,-8.041,-9.748
1621787036074.477,0.318,-0.845,-0.677,0.13442121789497752,-8.069228397225821,-9.506723496684703
1621787036079.434,0.208,-0.874,-0.55,0.24057580977059673,-8.115032710921424,-9.115220410029723
1621787036084.391,0.094,-0.908,-0.45,0.34673040164621594,-8.160837024617026,-8.723717323374743
1621787036087.439,0.014679899522238082,-0.941203762990691,-0.4180260060089642,0.412,-8.189,-8.483
1621787036089.348,-0.035,-0.962,-0.398,0.39912588233500523,-8.0954242373424,-8.483
1621787036094.305,-0.178,-1.016,-0.36,0.36569499794185356,-7.852431235040324,-8.483
1621787036099.261,-0.311,-1.077,-0.297,0.3322706996173372,-7.60948610370009,-8.483
1621787036103.453,-0.4335945440220603,-1.1108191845578097,-0.22767067165649005,0.304,-7.404,-8.483
1621787036104.219,-0.456,-1.117,-0.215,0.3011771109688043,-7.37117793431525,-8.517688043179948
1621787036109.175,-0.592,-1.147,-0.126,0.2829155917421401,-7.1588490836459,-8.742088067575398
1621787036114.131,-0.738,-1.164,-0.068,0.26465407251547585,-6.94652023297655,-8.966488091970847
1621787036119.086,-0.857,-1.15,-0.047,0.2463970511999512,-6.73424368005367,-9.190832845424328
1621787036119.465,-0.8595245812807881,-1.148393448275862,-0.047841527093596056,0.245,-6.718,-9.208
1621787036124.042,-0.89,-1.129,-0.058,0.3767815678321465,-6.936397218706638,-9.508153245604673
1621787036128.999,-0.806,-1.084,-0.077,0.5195080282398865,-7.172933044631829,-9.833235205318614
1621787036133.954,-0.623,-1.018,-0.086,0.6621782528476234,-7.409375672832071,-10.158189079154022
1621787036135.476,-0.5683238728750923,-1.002948706577975,-0.08384981522542498,0.706,-7.482,-10.258
1621787036138.909,-0.445,-0.969,-0.079,0.9732036054172767,-7.438037930087848,-9.984577370058565
1621787036143.865,-0.305,-0.915,-0.066,1.3589680026842363,-7.374569469863348,-9.589834507686676
1621787036148.819,-0.223,-0.88,-0.052,1.7445803745729624,-7.311126021839922,-9.195247209004393
1621787036151.484,-0.20901950835016503,-0.8536521503522341,-0.03694408591556234,1.952,-7.277,-8.983
1621787036153.775,-0.197,-0.831,-0.024,2.1133118774881408,-7.199707707326002,-8.672828892176751
1621787036158.73,-0.19,-0.785,0.014,2.4622021018593374,-7.032537590945837,-8.001981406628941
1621787036163.684,-0.169,-0.723,0.066,2.8110235658394473,-6.865400420981986,-7.331266133829564
1621787036167.49,-0.1359643191562762,-0.6676844413779508,0.09980395249125229,3.079,-6.737,-6.816
1621787036168.638,-0.126,-0.651,0.11,3.071970098248612,-6.722940196497223,-6.719589918838103
1621787036173.594,-0.077,-0.572,0.14,3.0416198205894918,-6.662239641178983,-6.303357539513029
1621787036178.548,-0.024,-0.494,0.169,3.011281503630927,-6.601563007261854,-5.887289192652712
1621787036183.493,0.018930053728989003,-0.41712525262483363,0.2079365603588505,2.981,-6.541,-5.472
1621787036183.501,0.019,-0.417,0.208,2.980521228394026,-6.540595234099682,-5.471535828159087
1621787036188.455,0.063,-0.353,0.248,2.6861202154113717,-6.29170100230362,-5.186112343437734
1621787036193.409,0.098,-0.283,0.29,2.391733710659201,-6.042819036140902,-4.900702924529741
1621787036198.363,0.143,-0.223,0.307,2.0973326976765474,-5.793924804344841,-4.615279439808387
1621787036199.496,0.1494054813427318,-0.2120191748410312,0.30814383595405925,2.03,-5.737,-4.55
1621787036203.316,0.171,-0.175,0.312,1.7232016419459195,-5.559128578404444,-4.28092470853934
1621787036208.269,0.159,-0.122,0.309,1.3253795092473903,-5.328484618201794,-3.932017670756272
1621787036213.222,0.131,-0.052,0.332,0.9275769852896294,-5.097852026490875,-3.583127830678142
1621787036215.495,0.11356023264984227,-0.02721717271293375,0.3352125887223975,0.745,-4.992,-3.423
1621787036218.175,0.093,0.002,0.339,0.5446475956475957,-4.873731774688296,-3.3112650052650054
1621787036223.127,0.056,0.051,0.346,0.1744419094419094,-4.655198986677247,-3.104804141804142
1621787036228.081,0.028,0.099,0.337,-0.19592804492804494,-4.436569231004014,-2.8982516672516674
1621787036231.493,-0.0023160282009564645,0.11967001922792486,0.3342439974362767,-0.451,-4.286,-2.756
1621787036233.033,-0.016,0.129,0.333,-0.5397555853986082,-4.27271554144793,-2.674753021609083
