time,gyro_x,gyro_y,gyro_z,acc_x,acc_y,acc_z
1621785065523.292,,,,0.667,-4.629,-8.404
1621785065542.027,,,,0.49,-5.031,-8.189
1621785065560.823,0.75,-0.518,0.124,0.26787081799879464,-5.486118012900247,-8.604628380544478
1621785065561.066,0.7495920124651468,-0.5181631950139413,0.12363281121863211,0.265,-5.492,-8.61
1621785065566.777,0.74,-0.522,0.115,0.0739583969706532,-5.764241666140738,-8.769447396655096
1621785065572.759,0.738,-0.508,0.099,-0.12613998106658253,-6.049389586620385,-8.936453770905649
1621785065578.771,0.731,-0.494,0.101,-0.3272428526349006,-6.33596894919533,-9.104298516882297
1621785065580.408,0.7377743695441319,-0.49210317652764307,0.09774830261881669,-0.382,-6.414,-9.15
1621785065584.812,0.756,-0.487,0.089,-0.5095403340043242,-6.635906732274659,-9.244366398270335
1621785065590.883,0.784,-0.48,0.075,-0.6853563706851562,-6.94180809662268,-9.374451725937524
1621785065596.983,0.819,-0.464,0.059,-0.8620066974825418,-7.2491610377991496,-9.505154340316608
1621785065600.056,0.8425456850681742,-0.4488261140671766,0.05376762554040572,-0.951,-7.404,-9.571
1621785065602.856,0.864,-0.435,0.049,-0.9902399806791804,-7.4598592666138925,-9.574077645543465
1621785065608.483,0.902,-0.417,0.042,-1.0690962955012009,-7.572113550066415,-9.580262454549114
1621785065614.117,0.941,-0.4,0.028,-1.1480518307818222,-7.684509076760006,-9.586455045551515
1621785065618.252,0.9563986059399082,-0.4058661355961555,0.008935059312494588,-1.206,-7.767,-9.591
1621785065619.756,0.962,-0.408,0.002,-1.2512257551244166,-7.7468172859645135,-9.511834333926112
1621785065625.401,0.962,-0.436,-0.026,-1.4209489630828063,-7.6710755993528466,-9.214741432563612
1621785065631.054,0.944,-0.476,-0.049,-1.5909217531989999,-7.595222532725401,-8.917211648771879
1621785065636.511,0.9054138362608433,-0.5251973587674248,-0.07408100643045186,-1.755,-7.522,-8.63
1621785065636.711,0.904,-0.527,-0.075,-1.7591799634876004,-7.521781725144251,-8.615659341977267
1621785065642.374,0.874,-0.567,-0.093,-1.8775663286382474,-7.515599669522807,-8.209498287648415
1621785065648.043,0.84,-0.613,-0.099,-1.9960751835614248,-7.509411217568594,-7.802916994256626
1621785065653.718,0.808,-0.656,-0.105,-2.1147116319976544,-7.503216102767746,-7.3958979518409445
1621785065654.832,0.800548283123469,-0.6636478146890713,-0.10637268468778202,-2.138,-7.502,-7.316
1621785065659.399,0.77,-0.695,-0.112,-2.162344802857864,-7.426481427869484,-7.033302187221949
1621785065665.086,0.703,-0.707,-0.11,-2.19266062867691,-7.332440498798157,-6.68126739352731
1621785065670.78,0.658,-0.709,-0.113,-2.2230141963586143,-7.238282492928381,-6.328794332080583
1621785065673.216,0.636199974296363,-0.7081450970312299,-0.113,-2.236,-7.198,-6.178
1621785065676.479,0.607,-0.707,-0.113,-2.1717843150231637,-7.177125479814692,-6.049568630046327
1621785065682.184,0.564,-0.674,-0.113,-2.059506565188617,-7.140627478491066,-5.825013130377234
1621785065687.895,0.531,-0.632,-0.105,-1.94711350099272,-7.1040919920582395,-5.60022700198544
1621785065691.661,0.5066235851877162,-0.6201412036048349,-0.09709413573655662,-1.873,-7.08,-5.452
1621785065693.611,0.494,-0.614,-0.093,-1.8285291354995317,-7.060399097637235,-5.45621524781995
1621785065699.334,0.45,-0.571,-0.084,-1.6980281922402078,-7.002879724541892,-5.4685850054748615
1621785065705.062,0.396,-0.52,-0.072,-1.5674103375944908,-6.945308821783354,-5.480965844777773
1621785065710.167,0.3292517556927006,-0.4781711002340923,-0.04975058523090019,-1.451,-6.894,-5.492
1621785065710.798,0.321,-0.473,-0.047,-1.440666798159106,-6.899676462853386,-5.507669756738988
1621785065716.539,0.234,-0.431,-0.024,-1.3466686390532545,-6.951313609467456,-5.650213017751479
1621785065722.285,0.131,-0.398,0.0,-1.2525905325443787,-7.002994674556213,-5.7928775147929
1621785065728.037,0.021,-0.372,0.031,-1.1584084944115713,-7.054732833662064,-5.935699618671927
1621785065728.734,0.010231558419535356,-0.3694591317619128,0.03317788706121757,-1.147,-7.061,-5.953
1621785065733.796,-0.068,-0.351,0.049,-1.1258076474519414,-7.25798019996593,-6.301858726560351
1621785065739.56,-0.129,-0.339,0.075,-1.1016757171124185,-7.4822833986345705,-6.699107425995571
1621785065745.331,-0.166,-0.339,0.087,-1.0775151677957884,-7.706852607026326,-7.096827237823176
1621785065747.365,-0.16916928734466144,-0.3425214303829571,0.09333857468932284,-1.069,-7.786,-7.237
1621785065751.107,-0.175,-0.349,0.105,-1.0846148742195867,-7.886295538256576,-7.390145881769024
1621785065756.889,-0.138,-0.354,0.106,-1.1087426921971735,-8.041270369112615,-7.626784096549202
1621785065762.677,-0.086,-0.368,0.113,-1.1328959797288471,-8.19640879287375,-7.863672108879079
1621785065766.057,-0.04516568346536322,-0.37733355806505986,0.11416669475813249,-1.147,-8.287,-8.002
1621785065768.471,-0.016,-0.384,0.115,-1.1217705846362134,-8.222510525013995,-7.932619107749587
1621785065774.271,0.049,-0.396,0.129,-1.0611541585846882,-8.06756751760678,-7.765923936107893
1621785065780.078,0.098,-0.398,0.126,-1.0004662900139292,-7.912441894372339,-7.599032297538305
1621785065784.811,0.12488339356248425,-0.3963707034204555,0.12681464828977226,-0.951,-7.786,-7.463
1621785065785.888,0.131,-0.396,0.127,-0.9381162358989005,-7.738874053976867,-7.384380408396401
1621785065791.703,0.147,-0.391,0.145,-0.8685479989095582,-7.484408902678073,-6.959859566679215
1621785065797.524,0.141,-0.391,0.152,-0.7989067412667298,-7.229676658055638,-6.534893136707645
1621785065803.351,0.119,-0.382,0.164,-0.7291924629704153,-6.9746773201095635,-6.109481118481689
1621785065803.618,0.11749007870060281,-0.381222161754856,0.1647320830542532,-0.726,-6.963,-6.09
1621785065809.183,0.086,-0.365,0.18,-0.7490073757763975,-6.7718618012422365,-5.818041019668737
1621785065815.022,0.049,-0.351,0.188,-0.7731461956521739,-6.571323913043479,-5.532707789855072
1621785065820.867,-0.003,-0.333,0.206,-0.797310248447205,-6.370576397515528,-5.2470762939958595
1621785065822.485,-0.017657598264207628,-0.3249798047233581,0.20931870149378284,-0.804,-6.315,-5.168
1621785065826.718,-0.056,-0.304,0.218,-0.845595635181674,-6.247015736047157,-5.069378090778934
1621785065832.574,-0.11,-0.267,0.236,-0.903140502263669,-6.152963910278735,-4.932941067213559
1621785065838.436,-0.168,-0.241,0.251,-0.9607453469024494,-6.058814056675566,-4.796361838795805
1621785065841.413,-0.19793824643169242,-0.22679201864258666,0.26267084182930384,-0.99,-6.011,-4.727
1621785065844.303,-0.227,-0.213,0.274,-1.0691375564098278,-5.993194049807789,-4.738870633461475
1621785065850.177,-0.288,-0.18,0.286,-1.2299933143907738,-5.957001504262076,-4.762998997158616
1621785065856.056,-0.344,-0.15,0.298,-1.3909827845562428,-5.920778873474846,-4.787147417683436
1621785065860.402,-0.3838651405822344,-0.12932918636476737,0.3009529733764618,-1.51,-5.894,-4.805
1621785065861.943,-0.398,-0.122,0.302,-1.562338442610345,-5.892382119239247,-4.84625595939919
1621785065867.834,-0.44,-0.105,0.293,-1.7624135823037883,-5.886197416312093,-5.003965884041626
1621785065873.731,-0.469,-0.079,0.286,-1.9626960193776593,-5.88000630542882,-5.16183921156508
1621785065879.452,-0.4912903759460689,-0.06349365151577815,0.27146279829604203,-2.157,-5.874,-5.315
1621785065879.634,-0.492,-0.063,0.271,-2.1600878824656657,-5.877459572021718,-5.319212481635261
1621785065885.542,-0.49,-0.051,0.248,-2.260253656978601,-5.98968233791121,-5.455858383902907
1621785065891.457,-0.483,-0.035,0.229,-2.3605394698179496,-6.102039591184925,-5.592668042159055
1621785065897.378,-0.461,-0.03,0.209,-2.4609246247205365,-6.214508144362823,-5.729613222612583
1621785065898.562,-0.45600473777448197,-0.028801137065875664,0.20520360070860627,-2.481,-6.237,-5.757
1621785065903.304,-0.436,-0.024,0.19,-2.5198341271458404,-6.2807811497121895,-5.810180492588253
1621785065909.236,-0.403,-0.028,0.171,-2.5684152743110387,-6.335550978044929,-5.87670881513932
1621785065915.174,-0.375,-0.028,0.147,-2.6170444068055625,-6.3903749044878,-5.943302850084051
1621785065917.733,-0.3607934362934363,-0.02498648648648649,0.13795945945945945,-2.638,-6.414,-5.972
1621785065921.118,-0.342,-0.021,0.126,-2.610368207263357,-6.400096104291753,-5.989247870625421
1621785065927.067,-0.307,-0.028,0.106,-2.561806801304916,-6.375660747153429,-6.019560085809671
1621785065933.024,-0.281,-0.019,0.079,-2.5131796290889703,-6.351192297439673,-6.049913352543191
1621785065936.966,-0.2624835565384773,-0.024951713969775156,0.06841917516484416,-2.481,-6.335,-6.07
1621785065938.985,-0.253,-0.028,0.063,-2.4696981829225084,-6.330918788277573,-6.07
1621785065944.952,-0.227,-0.028,0.037,-2.4362983752594016,-6.31885774662145,-6.07
1621785065950.925,-0.202,-0.035,0.009,-2.402863035886015,-6.30678387406995,-6.07
1621785065956.26,-0.18058521845651285,-0.03678456512862393,-0.01776847692935892,-2.373,-6.296,-6.07
1621785065956.904,-0.178,-0.037,-0.021,-2.365696267432322,-6.296642457957343,-6.07
1621785065962.888,-0.161,-0.051,-0.045,-2.2978363412633307,-6.302611618129615,-6.07
1621785065968.879,-0.159,-0.058,-0.063,-2.2298961238720265,-6.308587840955702,-6.07
1621785065974.601,-0.157,-0.07,-0.077,-2.1650042042657915,-6.31429592647662,-6.07
1621785065975.307,-0.157,-0.0708636111466735,-0.07761686510476679,-2.157,-6.315,-6.07
1621785065980.322,-0.157,-0.077,-0.082,-2.13583694575425,-6.363023853865356,-6.1153106417825684
1621785065986.043,-0.162,-0.082,-0.093,-2.1116954867852757,-6.4178063953718745,-6.16699812444691
1621785065991.764,-0.166,-0.079,-0.098,-2.0875540278163016,-6.472588936878393,-6.218685607111252
1621785065993.791,-0.1645827430229581,-0.08077157122130238,-0.09906294273278143,-2.079,-6.492,-6.237
1621785065997.485,-0.162,-0.084,-0.101,-2.082997305365493,-6.50579070351095,-6.2879656434100335
1621785066003.207,-0.152,-0.087,-0.112,-2.089188888595356,-6.527151665653977,-6.366908329590785
1621785066008.927,-0.138,-0.087,-0.124,-2.0953783583863896,-6.548505336433044,-6.4458240694264655
1621785066012.274,-0.12980958477360988,-0.09109520761319506,-0.12926526693125082,-2.099,-6.561,-6.492
1621785066014.648,-0.124,-0.094,-0.133,-2.062391939553254,-6.561,-6.484421489240849
1621785066020.368,-0.106,-0.099,-0.147,-1.9741884997952526,-6.561,-6.466161829782175
1621785066026.088,-0.086,-0.106,-0.155,-1.885985060037251,-6.561,-6.447902170323501
1621785066030.756,-0.06886209987195903,-0.106,-0.155,-1.814,-6.561,-6.433
1621785066031.808,-0.065,-0.106,-0.155,-1.7956127169921,-6.553713398684176,-6.416263587602716
1621785066037.528,-0.056,-0.103,-0.162,-1.6956369329141017,-6.514094512114567,-6.325263957513145
1621785066043.249,-0.049,-0.106,-0.166,-1.5956440801120302,-6.474468861468544,-6.234248791185563
1621785066048.968,-0.04,-0.098,-0.161,-1.495685364758105,-6.434856738975348,-6.143264697334003
1621785066049.236,-0.04032805497460412,-0.09743762004353579,-0.1607188100217679,-1.491,-6.433,-6.139
1621785066054.688,-0.047,-0.086,-0.155,-1.4012994939284629,-6.363659148267068,-6.089723735151491
1621785066060.407,-0.059,-0.065,-0.147,-1.3072045427518135,-6.290921274824593,-6.038033416577477
1621785066066.126,-0.084,-0.052,-0.138,-1.2131095915751642,-6.218183401382118,-5.986343098003462
1621785066067.713,-0.09010354688633745,-0.0486707926074523,-0.13411592470869435,-1.187,-6.198,-5.972
1621785066071.846,-0.106,-0.04,-0.124,-1.1604887591240876,-6.173735474452555,-5.972
1621785066077.565,-0.129,-0.024,-0.108,-1.123804618447246,-6.140160159256801,-5.972
1621785066083.284,-0.159,-0.005,-0.096,-1.0871204777704047,-6.106584844061048,-5.972
1621785066086.109,-0.17577840759293437,8.436593725283381e-05,-0.09091563406274716,-1.069,-6.09,-5.972
1621785066088.84,-0.192,0.005,-0.086,-1.0600138461538462,-6.097463076923077,-6.012361538461539
1621785066094.394,-0.213,0.021,-0.077,-1.0417403131381893,-6.11263940095303,-6.09443757658271
1621785066099.944,-0.241,0.04,-0.065,-1.0234796324029953,-6.12780505105514,-6.1764558883594285
1621785066104.041,-0.25798780809859156,0.04886320422535211,-0.05022799295774648,-1.01,-6.139,-6.237
1621785066105.491,-0.264,0.052,-0.045,-1.017937890401244,-6.15171682441832,-6.271181528054336
1621785066111.035,-0.278,0.059,-0.033,-1.0482887264395406,-6.200340102561305,-6.401875944464145
1621785066116.575,-0.29,0.075,-0.023,-1.0786181773546821,-6.248929120864134,-6.53247827391506
1621785066121.942,-0.2783687830687831,0.09244682539682539,-0.010399514991181658,-1.108,-6.296,-6.659
1621785066122.112,-0.278,0.093,-0.01,-1.1094000191298645,-6.296561912439878,-6.662828623742895
1621785066127.646,-0.269,0.105,-0.002,-1.1549297660690863,-6.314835756449497,-6.787338543944031
1621785066133.177,-0.25,0.127,0.007,-1.2004354093790992,-6.3330999262133805,-6.9117825480979445
1621785066138.705,-0.23,0.134,0.012,-1.2459169490599038,-6.351354421731527,-7.0361606362046345
1621785066139.809,-0.22520339432511272,0.13759745425616549,0.011600282860426058,-1.255,-6.355,-7.061
1621785066144.229,-0.206,0.152,0.01,-1.3085328003504544,-6.340377614719089,-7.089996933523163
1621785066149.75,-0.175,0.162,0.005,-1.3754014894316067,-6.322112556127478,-7.12621747344212
1621785066155.268,-0.152,0.175,0.0,-1.4422346949950717,-6.303857189793013,-7.16241879312233
1621785066157.643,-0.1408010626522028,0.1771536417976533,0.0,-1.471,-6.296,-7.178
1621785066160.782,-0.126,0.18,0.0,-1.4918084872923782,-6.289122618606757,-7.157367855820269
1621785066166.294,-0.098,0.197,0.002,-1.5283483657710297,-6.277045879109575,-7.121137637328725
1621785066171.802,-0.086,0.215,0.0,-1.5648623489555473,-6.264977698226557,-7.084933094679669
1621785066175.443,-0.06946416533617172,0.2229372006386376,0.0,-1.589,-6.257,-7.061
1621785066177.307,-0.061,0.227,0.0,-1.6044213744863884,-6.244620937487117,-7.049670010581429
1621785066182.808,-0.054,0.241,-0.002,-1.649940084376589,-6.208082109139881,-7.016227693111078
1621785066188.307,-0.042,0.25,0.0,-1.6954385933570613,-6.171559496488889,-6.982800217125424
1621785066193.209,-0.035755420295006224,0.26248915940998757,-0.004460414074995557,-1.736,-6.139,-6.953
1621785066193.802,-0.035,0.264,-0.005,-1.7373185652246534,-6.137343341128,-6.955332846166695
1621785066199.234,-0.017,0.269,-0.007,-1.7493962752630698,-6.122168782361784,-6.976701102388509
1621785066204.66,-0.019,0.278,-0.009,-1.7614609570736595,-6.107010592394633,-6.9980463086687825
1621785066210.083,-0.017,0.278,-0.007,-1.7735191247703357,-6.091860586827014,-7.019379989978287
1621785066210.749,-0.017,0.278,-0.006754145638067773,-1.775,-6.09,-7.022
1621785066215.501,-0.017,0.278,-0.005,-1.780434215118308,-6.09,-7.0858520276401205
1621785066220.915,-0.019,0.265,0.0,-1.7866256020101905,-6.09,-7.1586008236197385
1621785066226.326,-0.03,0.246,0.0,-1.7928133593913589,-6.09,-7.231306972848468
1621785066228.238,-0.03176882424680428,0.23998599756086544,0.0,-1.795,-6.09,-7.257
1621785066231.731,-0.035,0.229,0.0,-1.795,-6.11543021693492,-7.321877088873338
1621785066237.132,-0.035,0.208,-0.009,-1.795,-6.15475311406578,-7.422196920923723
1621785066242.529,-0.03,0.183,-0.009,-1.795,-6.194045794261721,-7.52243966410077
1621785066245.682,-0.023569307378904482,0.1678001810774106,-0.009,-1.795,-6.217,-7.581
1621785066247.922,-0.019,0.157,-0.009,-1.7747854266350485,-6.232193118834804,-7.64280251729412
1621785066253.311,-0.019,0.141,-0.005,-1.726158979611882,-6.268740384750305,-7.791469361696157
1621785066258.695,-0.01,0.112,0.003,-1.6775765922516732,-6.305254535759889,-7.940001501396158
1621785066263.081,0.0038593664911962255,0.0891728081321474,0.010337311671809768,-1.638,-6.335,-8.061
1621785066264.075,0.007,0.084,0.012,-1.63628174681336,-6.331620768732941,-8.079557134415712
1621785066269.45,0.021,0.051,0.017,-1.6269894200737218,-6.31334585947832,-8.179914263203804
1621785066274.821,0.024,0.017,0.016,-1.6177038464785165,-6.295084231407749,-8.280198458032022
1621785066280.189,0.044,-0.017,0.01,-1.608423759813163,-6.276833394299221,-8.38042339401784
1621785066280.434,0.0444570492101789,-0.018234032867483044,0.009542950789821095,-1.608,-6.276,-8.385
1621785066285.552,0.054,-0.044,0.0,-1.608,-6.1920261788227995,-8.300730496353864
1621785066290.91,0.073,-0.075,0.0,-1.608,-6.1041146451895,-8.212509415066927
1621785066296.264,0.098,-0.101,-0.012,-1.608,-6.016267204536158,-8.124352652439454
1621785066297.743,0.10463466277265675,-0.10929332846582095,-0.013935109975358219,-1.608,-5.992,-8.1
1621785066301.614,0.122,-0.131,-0.019,-1.5947321334865052,-5.892828319788963,-7.91492450609142
1621785066306.941,0.141,-0.145,-0.035,-1.57647459189607,-5.7563609326468965,-7.660247273397722
1621785066312.262,0.154,-0.145,-0.042,-1.558237132848289,-5.620043654001617,-7.405850175154945
1621785066314.957,0.1616047120418848,-0.145,-0.048083769633507856,-1.549,-5.551,-7.277
1621785066317.578,0.169,-0.145,-0.054,-1.4516591459074732,-5.480553950177936,-7.1570430604982205
1621785066322.89,0.164,-0.131,-0.056,-1.2543659644128113,-5.337771914590747,-6.913910960854093
1621785066328.198,0.152,-0.108,-0.059,-1.0572178647686834,-5.195094875444839,-6.670957651245551
1621785066332.108,0.13282654141916472,-0.07997725284339458,-0.05826255928535249,-0.912,-5.09,-6.492
1621785066333.5,0.126,-0.07,-0.058,-0.8625178841597443,-5.086744597642088,-6.457655505124033
1621785066338.799,0.098,-0.031,-0.051,-0.6741612857183636,-5.074352716165682,-6.326921155547943
1621785066344.093,0.059,0.012,-0.044,-0.4859869258656618,-5.061972824070109,-6.196313293939654
1621785066349.213,0.020279542097488924,0.056528526587887734,-0.037223919867060556,-0.304,-5.05,-6.07
1621785066349.382,0.019,0.058,-0.037,-0.2993284242164019,-5.0528267496779735,-6.071854744525548
1621785066354.666,-0.019,0.115,-0.026,-0.15343100042936883,-5.141108630313439,-6.1297800486618
1621785066359.946,-0.056,0.162,-0.014,-0.007641434091884947,-5.2293252468870755,-6.1876625304136255
1621785066365.22,-0.094,0.208,0.0,0.1379796049806784,-5.317439888364104,-6.2454781021897805
1621785066366.271,-0.09918338427340928,0.21657252014448458,0.0019936093359266462,0.167,-5.335,-6.257
1621785066370.492,-0.12,0.251,0.01,0.22779550184432995,-5.459072452743531,-6.405390653481263
1621785066375.758,-0.14,0.284,0.033,0.303644826546869,-5.613866992952794,-6.590524923571541
1621785066381.019,-0.15,0.323,0.052,0.3794203062879451,-5.768510829159071,-6.77547895167425
1621785066383.281,-0.1521514490061304,0.33117550622329556,0.06060579602452164,0.412,-5.835,-6.855
1621785066386.276,-0.155,0.342,0.072,0.39292773235057005,-5.895572109294023,-6.969257010825752
1621785066391.528,-0.154,0.365,0.086,0.3594801335943798,-6.001799205343775,-7.16963290337441
1621785066396.776,-0.133,0.374,0.101,0.326060520557411,-6.107937420822297,-7.369841140734769
1621785066400.24,-0.11780410691003912,0.3773034550195567,0.1115710560625815,0.304,-6.178,-7.502
1621785066402.019,-0.11,0.379,0.117,0.2936933668167648,-6.194511647038448,-7.542280005195705
1621785066407.257,-0.079,0.387,0.129,0.2633477081168456,-6.243126630874033,-7.660875793788246
1621785066412.494,-0.047,0.398,0.141,0.23300912134857404,-6.291730285186468,-7.7794439441173076
1621785066417.156,-0.007793990014465027,0.40423731977042604,0.147237319770426,0.206,-6.335,-7.885
1621785066417.726,-0.003,0.405,0.148,0.20400652601724836,-6.3260462609249295,-7.887635440180587
1621785066422.954,0.035,0.408,0.154,0.18572461943624471,-6.243932612722116,-7.91180474040632
1621785066428.177,0.07,0.421,0.161,0.16746064131504312,-6.161899490652313,-7.935950338600452
1621785066433.395,0.099,0.419,0.164,0.1492137379174625,-6.079943060137755,-7.960073363431151
1621785066434.028,0.10118593106032223,0.419,0.164,0.147,-6.07,-7.963
1621785066438.608,0.117,0.419,0.164,0.11487795852621496,-6.022089158479779,-7.914816937789323
1621785066443.818,0.14,0.428,0.157,0.07833462001712353,-5.96758384002554,-7.860001930025685
1621785066449.023,0.159,0.428,0.148,0.04182895328757383,-5.913134709988245,-7.805243429931361
1621785066450.852,0.16322183611176333,0.4265927212960789,0.14377816388823667,0.029,-5.894,-7.786
1621785066454.222,0.171,0.424,0.136,0.029,-5.886165832290363,-7.721117021276595
1621785066459.417,0.175,0.433,0.12,0.029,-5.874088511802544,-7.621092033646709
1621785066464.608,0.178,0.426,0.106,0.029,-5.862020840003493,-7.521146956952004
1621785066467.628,0.17625331827167465,0.42192440930057423,0.09901327308669867,0.029,-5.855,-7.463
1621785066469.795,0.175,0.419,0.094,0.02653869056306372,-5.857461309436936,-7.415976035494323
1621785066474.976,0.164,0.419,0.086,0.020653842785837297,-5.8633461572141625,-7.30354447006626
1621785066480.153,0.161,0.419,0.075,0.014773709098339123,-5.86922629090166,-7.1912029685630054
1621785066484.356,0.1520609422205438,0.4076230173716012,0.05955980929003021,0.01,-5.874,-7.1
1621785066485.325,0.15,0.405,0.056,0.0020402705195204426,-5.880855825391945,-7.086869351367968
1621785066490.492,0.126,0.403,0.035,-0.04040359814383793,-5.917413318109291,-7.016852458536442
1621785066495.655,0.11,0.401,0.021,-0.0828153792103992,-5.953943173334505,-6.94688849852883
1621785066500.815,0.096,0.394,0.009,-0.12520108910456282,-5.990450573097361,-6.876967546440648
1621785066501.034,0.0951075472592031,0.39327753825745015,0.008617520253944189,-0.127,-5.992,-6.874
1621785066505.968,0.075,0.377,0.0,-0.15040526277211758,-6.0151089936231035,-6.891479879791834
1621785066511.117,0.059,0.368,-0.009,-0.17482965623396612,-6.03922421754746,-6.909720882503848
1621785066516.278,0.045,0.36,-0.016,-0.19931195484864034,-6.063396613648025,-6.928005130836326
1621785066517.688,0.04035046175704475,0.35617096850580154,-0.01928202699502723,-0.206,-6.07,-6.933
1621785066521.433,0.028,0.346,-0.028,-0.206,-6.056719394268441,-7.001428883769387
1621785066526.586,0.021,0.34,-0.04,-0.206,-6.038446873761904,-7.095578819938664
1621785066531.733,0.003,0.325,-0.049,-0.206,-6.020195131256512,-7.189621696576619
1621785066534.326,0.00047863450764409855,0.325,-0.05252991168929826,-0.206,-6.011,-7.237
1621785066536.875,-0.002,0.325,-0.056,-0.13671594202898552,-6.054782608695652,-7.289846376811594
1621785066542.013,0.0,0.33,-0.063,0.0029338041639078993,-6.143031339660119,-7.396364143309056
1621785066547.146,0.003,0.34,-0.065,0.1424508349885971,-6.2311962039284925,-7.502780681232988
1621785066550.919,0.01476999238385377,0.34662062071591776,-0.0686781226199543,0.245,-6.296,-7.581
1621785066552.275,0.019,0.349,-0.07,0.2699161206540346,-6.304032170473998,-7.6106698541998705
1621785066557.401,0.038,0.354,-0.07,0.36410749070302817,-6.334396493713476,-7.722831946166106
1621785066562.521,0.066,0.358,-0.077,0.4581911929638156,-6.364726108258072,-7.8348658284634904
1621785066567.463,0.08821741827726079,0.358,-0.07989792412312098,0.549,-6.394,-7.943
1621785066567.637,0.089,0.358,-0.08,0.5504454984017995,-6.395034006156032,-7.943622513910263
1621785066572.748,0.112,0.351,-0.087,0.5928880075766545,-6.42539434118622,-7.9619006747957854
1621785066577.856,0.138,0.34,-0.093,0.6353041612406772,-6.455735823369244,-7.98016748549781
1621785066582.958,0.157,0.326,-0.098,0.6776716585770096,-6.486042500295963,-7.998413342014917
1621785066583.961,0.16427915329725587,0.3230489919065179,-0.09819673387289882,0.686,-6.492,-8.002
1621785066588.056,0.194,0.311,-0.099,0.686,-6.504196916181883,-7.948234002137006
1621785066593.15,0.223,0.295,-0.11,0.686,-6.519369434880684,-7.8813510625667815
1621785066598.239,0.239,0.278,-0.11,0.686,-6.534527410067672,-7.814532233171079
1621785066600.412,0.2471197906664106,0.2720169963510659,-0.11128207221048589,0.686,-6.541,-7.786
1621785066603.324,0.258,0.264,-0.113,0.7399530675713882,-6.518460396113269,-7.725125321786229
1621785066608.404,0.267,0.25,-0.11,0.8340802940344925,-6.479137508742169,-7.618922562980819
1621785066613.48,0.269,0.244,-0.11,0.9281306191687871,-6.439846747913039,-7.512806571135217
1621785066616.819,0.2676854094579008,0.24794377162629758,-0.09948327566320646,0.99,-6.414,-7.443
1621785066618.56,0.267,0.25,-0.094,1.0368016214771478,-6.393140453776022,-7.41081064948178
1621785066623.653,0.255,0.25,-0.089,1.1737149051168592,-6.332118017402666,-7.316644047159445
1621785066628.742,0.244,0.255,-0.077,1.310516615686158,-6.271145309298251,-7.222554182876489
1621785066633.261,0.23688897426046868,0.2612221475220899,-0.0645557049558202,1.432,-6.217,-7.139
1621785066633.826,0.236,0.262,-0.063,1.4272465502612424,-6.209904270679825,-7.136313267538963
1621785066638.906,0.225,0.269,-0.044,1.384502478453088,-6.1460979026183775,-7.112153574777833
1621785066643.982,0.218,0.276,-0.031,1.3417933282722279,-6.082343663942601,-7.088013620327781
1621785066649.055,0.215,0.272,-0.026,1.2991088286518109,-6.01862622248024,-7.0638875988031975
1621785066649.662,0.21476034690436038,0.2711612141652614,-0.024801734521801976,1.294,-6.011,-7.061
1621785066654.122,0.213,0.265,-0.016,1.16312086927968,-5.989732141257948,-6.988743813248156
1621785066659.186,0.208,0.253,-0.016,1.0145170303591151,-5.965584017433356,-6.9067021105107615
1621785066664.244,0.213,0.234,-0.009,0.8660923012627242,-5.941464998955192,-6.824759291322129
1621785066666.019,0.21475577127402684,0.22767922341350333,-0.0040838404327248135,0.814,-5.933,-6.796
1621785066669.299,0.218,0.216,0.005,0.7804195378214146,-5.937021612236956,-6.727029350136199
1621785066674.35,0.23,0.202,0.016,0.7287078755949352,-5.943214625677253,-6.620819169635107
1621785066679.397,0.234,0.195,0.035,0.6770387044631365,-5.949402550363696,-6.51469626126261
1621785066682.331,0.234,0.1862710633352702,0.043147007553747826,0.647,-5.953,-6.453
1621785066684.439,0.234,0.18,0.049,0.6546448359696251,-5.932656961911337,-6.435118858240538
1621785066689.477,0.237,0.169,0.07,0.6729166491580875,-5.884035357325089,-6.392381396884474
1621785066694.511,0.229,0.161,0.087,0.6911734099708857,-5.835453807365609,-6.349679142779962
1621785066698.599,0.2184343056836383,0.15205979711692472,0.10406766004950735,0.706,-5.796,-6.315
1621785066699.541,0.216,0.15,0.108,0.7082641867184325,-5.7885688230779655,-6.311632747957203
1621785066704.567,0.213,0.131,0.124,0.7203457180262742,-5.748916617759921,-6.2936653424224644
1621785066709.588,0.199,0.108,0.141,0.7324155117150467,-5.709302935909591,-6.275715392834033
1621785066714.605,0.194,0.086,0.164,0.7444759153085639,-5.669720072833432,-6.257779408002648
1621785066714.823,0.19347810841085084,0.08513018068475137,0.16452189158914918,0.745,-5.668,-6.257
1621785066719.618,0.182,0.066,0.176,0.7393946403893529,-5.627582407017965,-6.239593883314306
1621785066724.658,0.161,0.037,0.19,0.7335027338821126,-5.585098660097338,-6.221297963107613
1621785066729.694,0.141,0.012,0.204,0.7276153938592802,-5.542647839932704,-6.2030162230367125
1621785066731.076,0.1338601232351657,0.004036291300761729,0.20784454902721847,0.726,-5.531,-6.198
1621785066734.726,0.115,-0.017,0.218,0.5783308077391421,-5.544261008133014,-6.211261008133015
1621785066739.753,0.08,-0.044,0.223,0.37496590447841965,-5.562523609795697,-6.229523609795698
1621785066744.777,0.035,-0.068,0.22,0.1717096468678121,-5.580776454847487,-6.247776454847487
1621785066747.316,0.017302586793737237,-0.08114664981036662,0.21544923660410387,0.069,-5.59,-6.257
1621785066749.798,0.0,-0.094,0.211,0.029926210607225216,-5.6456226884297145,-6.327639282000271
1621785066754.814,-0.03,-0.122,0.192,-0.04903228285933897,-5.758022426188,-6.470383852541785
1621785066759.826,-0.049,-0.129,0.188,-0.1279292851652575,-5.870334629470543,-6.613017256710524
1621785066763.515,-0.0593124847657583,-0.1356294544922732,0.18063393945302977,-0.186,-5.953,-6.718
1621785066764.834,-0.063,-0.138,0.178,-0.17963277331238292,-5.985815706774642,-6.777182555750287
1621785066769.838,-0.068,-0.141,0.173,-0.15547902943131686,-6.11030038677706,-7.001688508490965
1621785066774.839,-0.066,-0.141,0.169,-0.1313382486251284,-6.234718257085877,-7.226073971112588
1621785066779.674,-0.058259148873796844,-0.14487042556310156,0.1506154785752675,-0.108,-6.355,-7.443
1621785066779.836,-0.058,-0.145,0.15,-0.11105312428993411,-6.3568680299931835,-7.449206680299931
1621785066784.828,-0.056,-0.155,0.133,-0.2052118457926229,-6.414478300386277,-7.64062144967053
1621785066789.816,-0.035,-0.169,0.11,-0.2992968870711202,-6.472043490115883,-7.8318864349011585
1621785066794.802,-0.016,-0.19,0.079,-0.39334508823752173,-6.529586139513747,-8.023076528061804
1621785066795.791,-0.01103505245612315,-0.19139018531228552,0.07165187763506226,-0.412,-6.541,-8.061
1621785066799.782,0.009,-0.197,0.042,-0.42168144751028835,-6.533800974928247,-8.160793382029127
1621785066804.759,0.045,-0.216,0.01,-0.43375497714537364,-6.524823222122671,-8.285243610575389
1621785066809.731,0.08,-0.229,-0.014,-0.4458160696116992,-6.5158547174682235,-8.409565640612898
1621785066811.868,0.09806249692919963,-0.23115029725347616,-0.02389136736599027,-0.451,-6.512,-8.463
1621785066814.7,0.122,-0.234,-0.037,-0.4751105699937797,-6.441252196076646,-8.406155371474519
1621785066819.665,0.155,-0.246,-0.063,-0.5173809718871846,-6.317217878112057,-8.306495956791528
1621785066824.661,0.178,-0.255,-0.08,-0.5599132644546599,-6.192415092622093,-8.206219091833175
1621785066827.96,0.18857562120915672,-0.26557562120915673,-0.09255855018587361,-0.588,-6.11,-8.14
1621785066829.652,0.194,-0.271,-0.099,-0.5962988375089043,-6.057370663392898,-8.062684248018309
1621785066834.64,0.195,-0.281,-0.117,-0.6207607117416147,-5.902239030600646,-7.8347862804831845
1621785066839.624,0.19,-0.278,-0.124,-0.6452046257142424,-5.747221297685627,-7.607055638915413
1621785066844.068,0.1712597803706246,-0.27889239141092265,-0.1302467398764585,-0.667,-5.609,-7.404
1621785066844.604,0.169,-0.279,-0.131,-0.6689676228387371,-5.598861739949558,-7.385024111945061
1621785066849.582,0.129,-0.281,-0.138,-0.6872454495730651,-5.5046844632167495,-7.208751511744508
1621785066854.555,0.082,-0.278,-0.145,-0.705504451669756,-5.410604181227019,-7.032660457625574
1621785066859.524,0.033,-0.272,-0.15,-0.72374911118539,-5.3165977999939225,-6.856707724330731
1621785066860.137,0.027198072857774938,-0.2718765547416548,-0.15,-0.726,-5.305,-6.835
1621785066864.49,-0.014,-0.271,-0.15,-0.6939565634566472,-5.313146636409327,-6.835
1621785066869.452,-0.051,-0.262,-0.159,-0.6574309995583241,-5.32243279672246,-6.835
1621785066874.411,-0.084,-0.265,-0.162,-0.6209270016296319,-5.331713474161958,-6.835
1621785066876.167,-0.09073369136775719,-0.2646455951911707,-0.1644808336618053,-0.608,-5.335,-6.835
1621785066879.366,-0.103,-0.264,-0.169,-0.5627944799792388,-5.362403346207276,-6.8998079136580825
1621785066884.317,-0.119,-0.265,-0.18,-0.49283166684476465,-5.4048144320454306,-7.00010858381547
1621785066889.265,-0.127,-0.265,-0.185,-0.42291025386599906,-5.447200421329018,-7.10034990153724
1621785066892.16,-0.1252429989628093,-0.2673426680495876,-0.19319933817355658,-0.382,-5.472,-7.159
1621785066894.208,-0.124,-0.269,-0.199,-0.3568371082272282,-5.494723631856024,-7.171581445886385
1621785066899.149,-0.126,-0.276,-0.208,-0.29613301909892265,-5.549543140915769,-7.201933490450538
1621785066904.086,-0.112,-0.283,-0.215,-0.2354769221351616,-5.6043193101126345,-7.232261538932419
1621785066908.113,-0.10710194991586658,-0.28871439176482233,-0.22642878352964466,-0.186,-5.649,-7.257
1621785066909.019,-0.106,-0.29,-0.229,-0.1682249988522809,-5.659562780234747,-7.249219887676557
1621785066913.948,-0.099,-0.293,-0.236,-0.07152343642401333,-5.717027606470075,-7.206893644696772
1621785066918.873,-0.105,-0.291,-0.236,0.02510148897424519,-5.774446891211532,-7.164600945720538
1621785066923.833,-0.096,-0.29,-0.236,0.12241135782820944,-5.832273203054463,-7.122008447212573
1621785066924.067,-0.09609440283799764,-0.28966959006700826,-0.2358111943240047,0.127,-5.835,-7.12
1621785066928.788,-0.098,-0.283,-0.232,0.19074775654721934,-5.910257768146023,-7.125607441548135
1621785066933.739,-0.099,-0.278,-0.232,0.2575975215188328,-5.989177629570844,-7.131487744948416
1621785066938.687,-0.096,-0.258,-0.223,0.3244077284659056,-6.068050790550028,-7.13736456870765
1621785066940.064,-0.096,-0.2552155023451,-0.22160775117255,0.343,-6.09,-7.139
1621785066943.632,-0.096,-0.248,-0.218,0.33875223337208593,-6.136054732913173,-7.174099966346448
1621785066948.574,-0.096,-0.227,-0.208,0.3328690111974546,-6.199841247017072,-7.222713960105244
1621785066953.512,-0.082,-0.223,-0.201,0.32699043933182403,-6.263577341981277,-7.271289527626507
1621785066956.024,-0.07385594142673395,-0.2194369743741961,-0.19794597803502523,0.324,-6.296,-7.296
1621785066958.447,-0.066,-0.216,-0.195,0.30011293363788266,-6.307867459721307,-7.309388928916347
1621785066963.378,-0.051,-0.204,-0.19,0.25150365612496745,-6.332017291861481,-7.336634893382184
1621785066968.307,-0.026,-0.195,-0.185,0.20291363267058088,-6.356157558291049,-7.363870065764261
1621785066971.95,-0.008986863629603922,-0.18390447628017648,-0.1827808952560353,0.167,-6.374,-7.384
1621785066973.232,-0.003,-0.18,-0.182,0.1543343524350899,-6.3660940543862345,-7.370608296205255
1621785066978.153,0.012,-0.176,-0.173,0.10571476417268398,-6.335745521585497,-7.3192015977876785
1621785066983.071,0.03,-0.171,-0.168,0.05712653249347058,-6.305416561683822,-7.2678280534644335
1621785066987.841,0.03679346314325452,-0.15935406318299225,-0.16217703159149613,0.01,-6.276,-7.218
1621785066987.986,0.037,-0.159,-0.162,0.009643237749099086,-6.2739417562448025,-7.215036128992516
1621785066992.897,0.045,-0.155,-0.157,-0.0024380293836818914,-6.2042421381710655,-7.114668678966335
1621785066997.804,0.044,-0.138,-0.15,-0.014509686758862843,-6.134597961006561,-7.014381063849447
1621785067002.709,0.03,-0.122,-0.147,-0.02657653925524378,-6.064981504296671,-6.9141333661872055
1621785067003.694,0.028794022415940222,-0.12099501867995019,-0.14619601494396015,-0.029,-6.051,-6.894
1621785067007.61,0.024,-0.117,-0.143,-0.02430184374421903,-6.012178393044336,-6.855178393044336
1621785067012.508,0.005,-0.11,-0.131,-0.01842563359437627,-5.96362234075353,-6.80662234075353
1621785067017.402,-0.017,-0.099,-0.129,-0.012554109884688906,-5.915105013257692,-6.758105013257692
1621785067019.531,-0.02607028579919758,-0.0925212244291446,-0.12468081628609638,-0.01,-5.894,-6.737
1621785067022.331,-0.038,-0.084,-0.119,-0.013343885709024507,-5.900863765402734,-6.768150935289333
1621785067027.256,-0.058,-0.068,-0.11,-0.01922549756778738,-5.912936547639142,-6.822942793131493
1621785067032.179,-0.082,-0.07,-0.106,-0.02510448539905167,-5.925003943713842,-6.8777102060859026
1621785067035.441,-0.09327062968292563,-0.06734808713342927,-0.10069617426685853,-0.029,-5.933,-6.914
1621785067037.099,-0.099,-0.066,-0.098,-0.035162391585163315,-5.9493982284554345,-6.941574091160731
1621785067042.015,-0.112,-0.049,-0.096,-0.05343090668635049,-5.9980110567755425,-7.023317955342314
1621785067046.928,-0.113,-0.052,-0.087,-0.07168944147136617,-6.046597327305161,-7.105017161837977
1621785067051.317,-0.113,-0.04931833325045995,-0.08431833325045995,-0.088,-6.09,-7.178
1621785067051.838,-0.113,-0.049,-0.084,-0.08737522535710433,-6.096116214925189,-7.183162611522874
1621785067056.745,-0.103,-0.049,-0.079,-0.08149051574032698,-6.1537244248578515,-7.231788896250983
1621785067061.65,-0.094,-0.047,-0.079,-0.07560873383977688,-6.211303973989552,-7.280390988797633
1621785067066.551,-0.075,-0.042,-0.072,-0.06973134351356766,-6.268840531919811,-7.3289567930720985
1621785067067.161,-0.07238468441519592,-0.043743543723202716,-0.07125276697577027,-0.069,-6.276,-7.335
1621785067071.448,-0.054,-0.056,-0.066,-0.06357706679843118,-6.2708482134585095,-7.335
1621785067076.343,-0.033,-0.049,-0.063,-0.057385164139464505,-6.264965905932491,-7.335
1621785067081.235,-0.021,-0.045,-0.061,-0.05119696735740095,-6.25908711898953,-7.335
1621785067082.972,-0.015314769492033366,-0.045,-0.05993401927975626,-0.049,-6.257,-7.335
1621785067086.123,-0.005,-0.045,-0.058,-0.039216373002490604,-6.241226397289729,-7.303652460436552
1621785067091.008,0.002,-0.042,-0.054,-0.024049363426821155,-6.216773463484058,-7.255056123632876
1621785067095.89,0.005,-0.031,-0.049,-0.008892207973021052,-6.1923364169360955,-7.206491360240088
1621785067098.754,0.010282912184138104,-0.031,-0.04665203902927195,0.0,-6.178,-7.178
1621785067100.769,0.014,-0.031,-0.045,0.006269314236111111,-6.1717306857638885,-7.168020275297619
1621785067105.646,0.014,-0.028,-0.044,0.021442057291666667,-6.156557942708333,-7.143867745535714
1621785067110.519,0.016,-0.012,-0.035,0.036602647569444445,-6.141397352430555,-7.119734561011905
1621785067114.504,0.014363134934563506,-0.007907837336408765,-0.033363134934563506,0.049,-6.129,-7.1
1621785067115.388,0.014,-0.007,-0.033,0.04680623864042378,-6.126806238640423,-7.102193761359576
1621785067120.255,0.01,0.005,-0.023,0.03472873720348593,-6.114728737203485,-7.114271262796514
1621785067125.118,0.005,0.009,-0.014,0.022660929271589022,-6.102660929271589,-7.126339070728411
1621785067129.979,-0.003,0.023,-0.012,0.010597968092212577,-6.090597968092212,-7.138402031907788
1621785067130.22,-0.002851161154116819,0.023,-0.011851161154116819,0.01,-6.09,-7.139
1621785067134.836,0.0,0.023,-0.009,-0.0014794812716007102,-6.104422938007908,-7.162253308216832
1621785067139.69,-0.005,0.023,-0.009,-0.013550938755176387,-6.119589641000093,-7.186705747734845
1621785067144.541,0.0,0.03,-0.007,-0.025615110377681605,-6.134747189961702,-7.211143428713766
1621785067145.902,0.0008421026131614722,0.028877196515784704,-0.005877196515784704,-0.029,-6.139,-7.218
1621785067149.39,0.003,0.026,-0.003,-0.05084335507223765,-6.165301182638,-7.226692763753237
1621785067154.235,0.009,0.035,0.0,-0.08118797391331482,-6.2018385808344,-7.238768683496115
1621785067159.076,0.012,0.037,0.002,-0.1115050706774425,-6.238342840203451,-7.250833650575717
1621785067161.55,0.018135311033752082,0.037,0.002,-0.127,-6.257,-7.257
1621785067163.915,0.024,0.037,0.002,-0.13896355933528226,-6.268812121875341,-7.245036440664718
1621785067168.751,0.035,0.035,0.003,-0.16342667312833178,-6.292965576000125,-7.220573326871668
1621785067173.584,0.049,0.037,0.0,-0.1878749667797458,-6.317104397580002,-7.196125033220254
1621785067177.167,0.05641961577350859,0.037,0.0,-0.206,-6.335,-7.178
1621785067178.413,0.059,0.037,0.0,-0.21071704260651627,-6.32404686716792,-7.170164912280701
1621785067183.239,0.07,0.028,-0.003,-0.22898541666666666,-6.281627083333333,-7.139820833333333
1621785067188.062,0.079,0.031,-0.002,-0.24724270050125313,-6.239233051378446,-7.109495175438597
1621785067192.753,0.07705358861368586,0.026133971534214658,-5.3588613685863224e-05,-0.265,-6.198,-7.08
1621785067192.882,0.077,0.026,0.0,-0.2651577939306404,-6.197510008320643,-7.078131387663469
1621785067197.699,0.066,0.016,0.0,-0.27104300045528046,-6.179234893323077,-7.008438152503258
1621785067202.513,0.058,0.01,-0.003,-0.2769246275334788,-6.160970893448671,-6.938787305524594
1621785067207.324,0.045,0.014,-0.002,-0.2828026751652354,-6.142718008697427,-6.8691788467274755
1621785067208.304,0.04255368207211783,0.0125729812087354,-0.002,-0.284,-6.139,-6.855
1621785067212.131,0.033,0.007,-0.002,-0.28893157580142825,-6.15823314562557,-6.845383427187215
1621785067216.936,0.024,0.01,-0.003,-0.29512310063862585,-6.182380092490641,-6.8333099537546795
1621785067221.738,0.017,0.01,-0.002,-0.3013108503476264,-6.2065123163557425,-6.821243841822128
1621785067223.825,0.013520252391614085,0.006520252391614086,-0.0002601261958070425,-0.304,-6.217,-6.816
1621785067226.536,0.009,0.002,0.002,-0.304,-6.234153359920553,-6.833153359920553
1621785067231.331,0.005,0.005,-0.002,-0.304,-6.26449460111288,-6.86349460111288
1621785067236.123,0.007,0.01,0.0,-0.304,-6.2948157600214385,-6.893815760021438
1621785067239.313,0.00566809378185525,0.005338328236493374,-0.0013319062181447502,-0.304,-6.315,-6.914
1621785067240.913,0.005,0.003,-0.002,-0.29789160242638696,-6.317070643245293,-6.918037754328321
1621785067245.698,0.012,0.0,-0.007,-0.27962512637432074,-6.323262669025654,-6.930112204600025
1621785067250.481,0.017,-0.005,0.0,-0.26136610640717806,-6.329452167319601,-6.942181726273222
1621785067254.768,0.018794125159642402,-0.0005146871008939978,-0.004485312899106002,-0.245,-6.335,-6.953
1621785067255.26,0.019,0.0,-0.005,-0.24251187310030395,-6.332511873100304,-6.95111795529382
1621785067260.038,0.023,-0.005,-0.005,-0.2183455547112462,-6.308345554711246,-6.932838304204661
1621785067264.811,0.024,-0.012,-0.005,-0.19420516717325229,-6.284205167173252,-6.914578267477204
1621785067269.581,0.023,-0.014,-0.007,-0.1700795972644377,-6.260079597264437,-6.896329438956434
1621785067270.19,0.023,-0.013744532650448144,-0.006105864276568502,-0.167,-6.257,-6.894
1621785067274.348,0.023,-0.012,0.0,-0.15619387075283145,-6.2461938707528315,-6.8729280479680215
1621785067279.112,0.014,-0.012,0.0,-0.14381228387424258,-6.233812283874242,-6.848783953554773
1621785067283.874,0.005,-0.014,0.0,-0.13143640747438218,-6.221436407474382,-6.824650994575045
1621785067285.581,0.0024886346143978655,-0.008977269228795732,0.0,-0.127,-6.217,-6.816
1621785067288.632,-0.002,0.0,0.0,-0.11547836591956764,-6.217,-6.819774328405659
1621785067293.386,-0.012,0.0,0.005,-0.09752611667461453,-6.217,-6.825655237641074
1621785067298.138,-0.019,0.0,0.009,-0.07958124304562073,-6.217,-6.831533730726434
1621785067300.94,-0.024311240230357876,0.0,0.009,-0.069,-6.217,-6.835
1621785067302.886,-0.028,0.0,0.009,-0.060238705874856635,-6.22207901108704,-6.851252835478527
1621785067307.633,-0.028,-0.003,0.016,-0.0388669077354403,-6.234468459283803,-6.890899069708169
1621785067312.375,-0.035,0.009,0.016,-0.017518191665604692,-6.246844526570664,-6.930502485026125
1621785067316.266,-0.035,0.013105404152284787,0.01682108083045696,0.0,-6.257,-6.963
1621785067317.114,-0.035,0.014,0.017,0.0005544734657385529,-6.261324893032761,-6.969487339549141
1621785067321.85,-0.031,0.021,0.019,0.003651574174596079,-6.285482278561849,-7.005723417842774
1621785067326.583,-0.028,0.017,0.019,0.006746599399706239,-6.309623475317709,-7.041935212976563
1621785067331.313,-0.017,0.024,0.028,0.009839708793664985,-6.333749728590587,-7.078124592885881
1621785067331.558,-0.016948145852701168,0.02420741658919533,0.027896291705402334,0.01,-6.335,-7.08
1621785067336.04,-0.016,0.028,0.026,0.004124687960058888,-6.340875312039941,-7.074418453562056
1621785067340.764,-0.005,0.031,0.026,-0.0020677846764385853,-6.3470677846764385,-7.0685356045573835
1621785067345.484,-0.002,0.035,0.026,-0.00825513665749216,-6.353255136657492,-7.062657620175383
1621785067346.815,0.0019497024579560153,0.03556424320827943,0.026,-0.01,-6.355,-7.061
1621785067350.202,0.012,0.037,0.026,-0.01,-6.341877432904736,-7.061
1621785067354.917,0.016,0.042,0.031,-0.01,-6.323609132010133,-7.061
1621785067359.628,0.021,0.045,0.031,-0.01,-6.305356911533652,-7.061
1621785067362.043,0.02561667703795893,0.044487035884671226,0.031,-0.01,-6.296,-7.061
1621785067364.336,0.03,0.044,0.031,-0.024786511799765452,-6.284080260896108,-7.052097916365447
1621785067369.042,0.031,0.04,0.037,-0.05513412694587691,-6.259616367053834,-7.033827413369319
1621785067373.743,0.031,0.047,0.031,-0.0854486802576831,-6.235179125098398,-7.015576814946905
1621785067377.24,0.027278900607886944,0.04848843975684523,0.032488439756845226,-0.108,-6.217,-7.002
1621785067378.442,0.026,0.049,0.033,-0.11109134089006246,-6.217,-7.002
1621785067383.138,0.03,0.038,0.033,-0.12316973658787918,-6.217,-7.002
1621785067387.83,0.03,0.04,0.033,-0.13523808527081857,-6.217,-7.002
1621785067392.403,0.023175965441865308,0.04389944831893411,0.03494972415946706,-0.147,-6.217,-7.002
1621785067392.521,0.023,0.044,0.035,-0.14761571354805395,-6.217,-7.001844123152392
1621785067397.207,0.016,0.049,0.037,-0.17208363454463305,-6.217,-6.995649712773511
1621785067401.89,0.019,0.042,0.035,-0.196534983540954,-6.217,-6.989459497837733
1621785067406.57,0.019,0.037,0.033,-0.22097231007551799,-6.217,-6.983272832892274
1621785067407.533,0.01838249569437921,0.03576499138875842,0.033,-0.226,-6.217,-6.982
1621785067411.248,0.016,0.031,0.033,-0.226,-6.221921967234325,-6.977324131127392
1621785067415.922,0.014,0.03,0.033,-0.226,-6.228114453447188,-6.9714412692251715
1621785067420.593,0.019,0.035,0.035,-0.226,-6.234302734785632,-6.965562401953649
1621785067422.629,0.019,0.031946379995815025,0.033255074283322875,-0.226,-6.237,-6.963
1621785067425.26,0.019,0.028,0.031,-0.21569577195455947,-6.2404929586594715,-6.966318310726498
1621785067429.925,0.017,0.031,0.024,-0.1974260132561946,-6.24668609720129,-6.972201792341226
1621785067434.586,0.019,0.03,0.033,-0.17917250879154717,-6.252873725833374,-6.978080039541705
1621785067437.694,0.017666072925398155,0.025331255238893544,0.03166607292539816,-0.167,-6.257,-6.982
1621785067439.246,0.017,0.023,0.031,-0.1628704019488429,-6.254935200974421,-6.984064799025579
1621785067443.901,0.014,0.024,0.031,-0.15048485586682908,-6.248742427933414,-6.990257572066586
1621785067448.553,0.014,0.026,0.028,-0.13810645554202194,-6.242553227771011,-6.996446772228989
1621785067452.727,0.012204662396303686,0.024204662396303686,0.03248834400924079,-0.127,-6.237,-7.002
1621785067453.203,0.012,0.024,0.033,-0.12639728190104166,-6.237634440104166,-6.9998111816406245
1621785067457.849,0.016,0.021,0.033,-0.12051204427083334,-6.243829427083333,-6.978438476562499
1621785067462.491,0.014,0.026,0.033,-0.114632373046875,-6.2500185546875,-6.957085986328125
1621785067467.131,0.016,0.031,0.035,-0.10875486653645833,-6.256205403645833,-6.9357413574218745
1621785067467.727,0.015485915863739272,0.030614436897804454,0.035257042068130365,-0.108,-6.257,-6.933
1621785067471.768,0.012,0.028,0.037,-0.09207033684038822,-6.257,-6.927870108474023
1621785067476.401,0.014,0.037,0.031,-0.07380781339205611,-6.257,-6.921988956855069
1621785067481.032,0.014,0.04,0.035,-0.055552026751488466,-6.257,-6.916109974716581
1621785067482.694,0.01651403249630724,0.03748596750369276,0.035718294998944924,-0.049,-6.257,-6.914
1621785067485.66,0.021,0.033,0.037,-0.045028572829658206,-6.245284289847492,-6.917772855811824
1621785067490.284,0.012,0.035,0.045,-0.038836703336221134,-6.2270182748418526,-6.92365513183059
1621785067494.906,0.012,0.04,0.045,-0.032647449204766504,-6.208759975154061,-6.9295349232554715
1621785067497.63,0.014949246629659001,0.041179698651863605,0.0461796986518636,-0.029,-6.198,-6.933
1621785067499.524,0.017,0.042,0.047,-0.03649786230281586,-6.193043785935427,-6.936812472357364
1621785067504.138,0.005,0.044,0.052,-0.05476314970432618,-6.180970121381886,-6.9460999066293185
1621785067508.75,0.002,0.049,0.051,-0.07302070535816665,-6.1689015676446015,-6.955383409504153
1621785067512.534,-0.001284034325670092,0.047357982837164955,0.05182100858141752,-0.088,-6.159,-6.963
1621785067513.359,-0.002,0.047,0.052,-0.088,-6.161163039196376,-6.9640537883264395
1621785067517.964,-0.007,0.047,0.054,-0.088,-6.173238034272208,-6.969936478235178
1621785067522.568,-0.01,0.047,0.056,-0.088,-6.18530982863896,-6.975817608824109
1621785067527.167,-0.017,0.052,0.058,-0.088,-6.197368180027576,-6.981692190269845
1621785067527.408,-0.016842709163346615,0.052367011952191234,0.058,-0.088,-6.198,-6.982
1621785067531.763,-0.014,0.059,0.058,-0.10531531235089912,-6.2035761175367305,-6.97642388246327
1621785067536.357,-0.016,0.056,0.059,-0.12358093812211052,-6.209458268208815,-6.970541731791185
1621785067540.947,-0.016,0.058,0.058,-0.14183103272404204,-6.215335417317911,-6.964664582682088
1621785067542.247,-0.016,0.05828342559080264,0.05885027677240792,-0.147,-6.217,-6.963
1621785067545.534,-0.016,0.059,0.061,-0.147,-6.217,-6.963
1621785067550.118,-0.021,0.059,0.056,-0.147,-6.217,-6.963
1621785067554.698,-0.026,0.066,0.061,-0.147,-6.217,-6.963
1621785067557.053,-0.02497142247814033,0.066,0.059457133717210495,-0.147,-6.217,-6.963
1621785067559.277,-0.024,0.066,0.058,-0.14398892745000827,-6.214139481077508,-6.95562287225252
1621785067563.851,-0.024,0.068,0.056,-0.13779656255164435,-6.2082567344240625,-6.940451578251529
1621785067568.423,-0.023,0.07,0.056,-0.13160684184432325,-6.202376499752107,-6.925286762518592
1621785067571.826,-0.026724746125066808,0.07372474612506681,0.05227525387493319,-0.127,-6.198,-6.914
1621785067572.991,-0.028,0.075,0.051,-0.12549835207605292,-6.192546647013034,-6.910838635949585
1621785067577.556,-0.031,0.08,0.052,-0.11961448516868448,-6.1711789198231175,-6.898451547723546
1621785067582.119,-0.04,0.094,0.051,-0.11373313569287336,-6.149820334884645,-6.8860697593534175
1621785067586.567,-0.046829442004926634,0.08912182713933811,0.051,-0.108,-6.129,-6.874
1621785067586.678,-0.047,0.089,0.051,-0.10814349976761171,-6.129,-6.874815682889582
1621785067591.234,-0.054,0.094,0.052,-0.11402888254431977,-6.129,-6.908269437620344
1621785067595.786,-0.061,0.099,0.056,-0.11990921917535356,-6.129,-6.941694508996747
1621785067600.337,-0.061,0.087,0.052,-0.1257882942699688,-6.129,-6.975112409534559
1621785067601.275,-0.0632695880994576,0.08782530476343912,0.05323795714515869,-0.127,-6.129,-6.982
1621785067604.883,-0.072,0.091,0.058,-0.1319167456792588,-6.136375118518888,-7.020596453582182
1621785067609.427,-0.075,0.098,0.054,-0.13810867142405642,-6.1456630071360845,-7.069203070678843
1621785067613.967,-0.073,0.093,0.056,-0.1442952742152802,-6.15494291132292,-7.11776790258995
1621785067615.952,-0.0699375235430232,0.09125001345315611,0.05381251681644514,-0.147,-6.159,-7.139
1621785067618.504,-0.066,0.089,0.051,-0.147,-6.159,-7.149281867893702
1621785067623.039,-0.065,0.086,0.052,-0.147,-6.159,-7.167553749458171
1621785067627.57,-0.063,0.08,0.051,-0.147,-6.159,-7.185808909339469
1621785067630.596,-0.05832201013695676,0.07933171573385096,0.04832686293540386,-0.147,-6.159,-7.198
1621785067632.098,-0.056,0.079,0.047,-0.14093466236652574,-6.153962685694233,-7.193990709021941
1621785067636.622,-0.049,0.072,0.045,-0.12266470598064935,-6.138789332085624,-7.181913958190599
1621785067641.145,-0.038,0.066,0.047,-0.10439967916046988,-6.123620072523102,-7.169840465885734
1621785067645.206,-0.03710135062128579,0.066,0.04430405186385737,-0.088,-6.11,-7.159
1621785067645.664,-0.037,0.066,0.044,-0.0867746981293229,-6.108146338195643,-7.158371640066319
1621785067650.179,-0.035,0.068,0.038,-0.07469606940094789,-6.089873540888614,-7.152177471487666
1621785067654.691,-0.03,0.07,0.038,-0.0626252784244109,-6.0716126006933395,-7.145987322268929
1621785067659.2,-0.035,0.068,0.042,-0.05056232519971195,-6.053363517609821,-7.139801192410109
1621785067659.784,-0.03474085910839066,0.06709300687936733,0.041093006879367316,-0.049,-6.051,-7.139
1621785067663.707,-0.033,0.061,0.035,-0.03848169718534432,-6.045605998556587,-7.133875698628757
1621785067668.21,-0.037,0.059,0.037,-0.026408788036454574,-6.039414763095618,-7.127994024940837
1621785067672.71,-0.038,0.07,0.035,-0.014343733740622013,-6.033227555764421,-7.122116177976201
1621785067674.33,-0.040161563517915305,0.06927947882736157,0.03427947882736156,-0.01,-6.031,-7.12
1621785067677.207,-0.044,0.068,0.033,-0.01,-6.031,-7.135461185217582
1621785067681.701,-0.042,0.066,0.031,-0.01,-6.031,-7.159612070850645
1621785067686.192,-0.047,0.059,0.031,-0.01,-6.031,-7.183747211895911
1621785067688.844,-0.04818211001686708,0.06136422003373415,0.031,-0.01,-6.031,-7.198
1621785067690.679,-0.049,0.063,0.031,-0.005058097582358297,-6.04101052028189,-7.2005343089321245
1621785067695.164,-0.051,0.058,0.031,0.007021158579761945,-6.065478757123108,-7.206728799271673
1621785067699.646,-0.047,0.052,0.031,0.019091867012846882,-6.089929679333715,-7.212918906160434
1621785067703.325,-0.0428922145894668,0.056929342492639846,0.03017844291789336,0.029,-6.11,-7.218
1621785067704.124,-0.042,0.058,0.03,0.029,-6.111604005069709,-7.218
1621785067708.599,-0.047,0.052,0.03,0.029,-6.120587021546261,-7.218
1621785067713.071,-0.038,0.056,0.031,0.029,-6.129563667089142,-7.218
1621785067717.541,-0.035,0.051,0.026,0.029,-6.138536392057457,-7.218
1621785067717.772,-0.03453447427415387,0.051,0.02610345016129914,0.029,-6.139,-7.218
1621785067722.006,-0.026,0.051,0.028,0.03487460199173498,-6.144874601991735,-7.229455473883883
1621785067726.469,-0.023,0.042,0.028,0.04106659440417316,-6.151066594404173,-7.241529859088137
1621785067730.928,-0.012,0.04,0.023,0.04725316712959827,-6.157253167129598,-7.253593675902716
1621785067732.187,-0.009457657756354076,0.04,0.023,0.049,-6.159,-7.257
1621785067735.385,-0.003,0.04,0.023,0.053446896270772155,-6.148105104136608,-7.261446896270772
1621785067739.839,0.002,0.038,0.021,0.05964043589700067,-6.132930932052348,-7.267640435897
1621785067744.289,0.009,0.038,0.023,0.0658282043012578,-6.117770899461918,-7.273828204301258
1621785067746.57,0.011564644523744167,0.037487071095251165,0.020948284381004666,0.069,-6.11,-7.277
1621785067748.736,0.014,0.037,0.019,0.07775412122964905,-6.101094945645702,-7.273981337507018
1621785067753.18,0.017,0.037,0.019,0.09571427842330005,-6.082825130569402,-7.267788179854034
1621785067757.622,0.024,0.026,0.017,0.11366752862319457,-6.064562341572957,-7.261597403923036
1621785067760.921,0.02920321267466168,0.026,0.01625668390361976,0.127,-6.051,-7.257
1621785067762.06,0.031,0.026,0.016,0.13018221343199604,-6.047817786568004,-7.250715128471808
1621785067766.494,0.033,0.019,0.017,0.14256802100560945,-6.03543197899439,-7.226253158513921
1621785067770.926,0.031,0.023,0.012,0.15494905457707456,-6.023050945422925,-7.201800617210278
1621785067775.24,0.023207706300644948,0.019103853150322474,0.012,0.167,-6.011,-7.178
1621785067775.355,0.023,0.019,0.012,0.16747490387080236,-6.011160984362984,-7.176897257113561
1621785067779.78,0.026,0.01,0.014,0.1857501324446723,-6.017355977099889,-7.134461556865761
1621785067784.203,0.014,0.016,0.016,0.2040162864222849,-6.023547893702469,-7.0920469281380845
1621785067788.622,0.009,0.019,0.017,0.22226731607280187,-6.0297346834145085,-7.049667418610613
1621785067789.526,0.007158005307386112,0.018590667846085804,0.017409332153914197,0.226,-6.031,-7.041
1621785067793.038,0.0,0.017,0.019,0.22107202192343925,-6.031,-7.036318420827268
1621785067797.451,-0.009,0.014,0.021,0.2148803631069624,-6.031,-7.030436344951615
1621785067801.861,-0.016,0.012,0.019,0.20869247238160485,-6.031,-7.024557848762525
1621785067803.78,-0.019048030580023266,0.012,0.02117716470001662,0.206,-6.031,-7.022
1621785067806.268,-0.023,0.012,0.024,0.19917625547257276,-6.04482245686325,-7.0321481328869435
1621785067810.671,-0.028,0.014,0.03,0.18710095287149112,-6.069282685209031,-7.050106275216757
1621785067815.073,-0.028,0.014,0.028,0.1750276590265259,-6.093738844536012,-7.068061430165679
1621785067818.0,-0.02933137146029983,0.014,0.02933137146029983,0.167,-6.11,-7.08
1621785067819.47,-0.03,0.014,0.03,0.16285630226076186,-6.111968256426138,-7.0942957572003715
1621785067823.864,-0.024,0.012,0.024,0.15046994253466847,-6.117851777296033,-7.137028698255394
1621785067828.255,-0.017,0.017,0.024,0.1380925295068993,-6.123731048484222,-7.1797307732011975
1621785067832.19,-0.010724218489264657,0.009827678273445321,0.021310379352541996,0.127,-6.129,-7.218
1621785067832.644,-0.01,0.009,0.021,0.12764152310000518,-6.127107506854984,-7.217358476899995
1621785067837.029,-0.002,0.009,0.024,0.1338363598737648,-6.108832738372394,-7.211163640126236
1621785067841.411,-0.002,0.01,0.021,0.14002671288392227,-6.090571196992429,-7.204973287116078
1621785067845.79,0.0,0.012,0.019,0.14621327194026246,-6.072320847776226,-7.198786728059738
1621785067846.347,-0.0003817786208435617,0.011363702298594064,0.01861822137915644,0.147,-6.07,-7.198
1621785067850.166,-0.003,0.007,0.016,0.15754547811657332,-6.075407937495679,-7.155547690658923
1621785067854.538,-0.005,0.009,0.016,0.16961786973656917,-6.081598907557215,-7.106948575675863
1621785067858.908,-0.005,0.012,0.017,0.18168419415059117,-6.087786766231073,-7.058373885086082
1621785067860.471,-0.006431974500922664,0.012715987250461332,0.019147961751383995,0.186,-6.09,-7.041
1621785067863.274,-0.009,0.014,0.023,0.17824270196289047,-6.09,-7.041
1621785067867.638,-0.016,0.017,0.023,0.16616520850297117,-6.09,-7.041
1621785067871.998,-0.019,0.012,0.026,0.15409852566656848,-6.09,-7.041
1621785067874.563,-0.02194351675445478,0.014354813403563824,0.023056483245545222,0.147,-6.09,-7.041
1621785067876.355,-0.024,0.016,0.021,0.14202900010419198,-6.085029000104192,-7.058462230403223
1621785067880.709,-0.021,0.019,0.021,0.1299509603028514,-6.072950960302851,-7.100890216372035
1621785067885.06,-0.017,0.012,0.023,0.11788104747681728,-6.060881047476817,-7.143289653735283
1621785067888.622,-0.017,0.021011735639283508,0.023,0.108,-6.051,-7.178
1621785067889.408,-0.017,0.023,0.023,0.10581477806788511,-6.051,-7.179120626631854
1621785067893.753,-0.019,0.026,0.019,0.0937332637075718,-6.051,-7.1853162750217585
1621785067898.094,-0.014,0.021,0.021,0.08166261096605745,-6.051,-7.19150635335074
1621785067902.433,-0.023,0.024,0.021,0.06959738903394257,-6.051,-7.1976936466492605
1621785067902.648,-0.023,0.02385131786438387,0.020900878576255916,0.069,-6.051,-7.198
1621785067906.768,-0.023,0.021,0.019,0.05722495115824728,-6.056593148199832,-7.198
1621785067911.101,-0.019,0.012,0.017,0.04484147362545353,-6.06247530002791,-7.198
1621785067915.43,-0.016,0.019,0.017,0.03246985766117778,-6.068351817610941,-7.198
1621785067916.644,-0.016280643340857787,0.017035496613995484,0.016719356659142214,0.029,-6.07,-7.198
1621785067919.756,-0.017,0.012,0.016,0.029,-6.07,-7.189307647922787
1621785067924.079,-0.01,0.017,0.017,0.029,-6.07,-7.17723300461603
1621785067928.398,-0.009,0.01,0.012,0.029,-6.07,-7.165169953839698
1621785067930.607,-0.007976875671397071,0.008465313507095607,0.014557810821507321,0.029,-6.07,-7.159
1621785067932.716,-0.007,0.007,0.017,0.02623309677528109,-6.067233096775281,-7.156087470289769
1621785067937.029,-0.01,0.007,0.012,0.020575021492507124,-6.061575021492508,-7.1501316015710605
1621785067941.375,-0.005,0.003,0.009,0.014873708342464136,-6.055873708342465,-7.144130219307857
1621785067945.09,-0.00871218774395004,0.0022575624512099924,0.012712187743950039,0.01,-6.051,-7.139
1621785067946.379,-0.01,0.002,0.014,0.0037025700652331484,-6.051,-7.137485428243537
1621785067951.383,-0.012,0.014,0.007,-0.020748731577675768,-6.051,-7.131604735443344
1621785067956.387,-0.014,0.017,0.009,-0.04519884029958927,-6.051,-7.1257243295482
1621785067961.258,-0.01594682148607113,0.007265892569644338,0.005106357027857735,-0.069,-6.051,-7.12
1621785067961.391,-0.016,0.007,0.005,-0.06932093676390651,-6.051,-7.120156353808057
1621785067966.395,-0.017,0.002,0.005,-0.08139051458597572,-6.051,-7.126036404541885
1621785067971.398,-0.017,0.003,0.002,-0.0934577369088603,-6.051,-7.13191530772483
1621785067976.402,-0.017,0.0,0.0,-0.10552790360572567,-6.051,-7.13779564534638
1621785067977.427,-0.01740972086667968,-0.0006145813000195199,0.0,-0.108,-6.051,-7.139
1621785067981.405,-0.019,-0.003,0.0,-0.11267567812481122,-6.051,-7.139
1621785067986.408,-0.028,0.007,0.0,-0.11855600193318432,-6.051,-7.139
1621785067991.411,-0.026,-0.002,-0.005,-0.12443632574155743,-6.051,-7.139
1621785067993.592,-0.026871737327413766,-0.00417934331853442,-0.005871737327413768,-0.127,-6.051,-7.139
1621785067996.415,-0.028,-0.007,-0.007,-0.127,-6.0543178838951315,-7.149302902621723
1621785068001.417,-0.026,-0.005,-0.009,-0.127,-6.060196704723934,-7.167558188353269
1621785068006.42,-0.026,-0.014,-0.009,-0.127,-6.066076673311587,-7.185817038178084
1621785068009.758,-0.021329575952764357,-0.017336017176596885,-0.009,-0.127,-6.07,-7.198
1621785068011.423,-0.019,-0.019,-0.009,-0.127,-6.068042686887302,-7.198
1621785068016.425,-0.023,-0.017,-0.012,-0.127,-6.062162711659592,-7.198
1621785068021.427,-0.021,-0.017,-0.016,-0.127,-6.056282736431884,-7.198
1621785068025.921,-0.019203143303397112,-0.017,-0.014203143303397111,-0.127,-6.051,-7.198
1621785068026.429,-0.019,-0.017,-0.014,-0.12640277022536403,-6.051597229774636,-7.198
1621785068031.431,-0.016,-0.026,-0.019,-0.12052288381366685,-6.057477116186333,-7.198
1621785068036.433,-0.019,-0.028,-0.021,-0.11464271041024711,-6.063357289589753,-7.198
1621785068041.435,-0.014,-0.028,-0.017,-0.10876282399854993,-6.06923717600145,-7.198
1621785068042.084,-0.014,-0.0289083186877563,-0.01725951962507323,-0.108,-6.07,-7.198
1621785068046.436,-0.014,-0.035,-0.019,-0.10261376924355274,-6.075386230756448,-7.208503149975073
1621785068051.437,-0.012,-0.031,-0.019,-0.0964244081521657,-6.081575591847835,-7.220572404103277
1621785068056.438,-0.009,-0.033,-0.023,-0.09023504706077864,-6.087764952939221,-7.232641658231482
1621785068058.244,-0.009,-0.033,-0.02227791878172589,-0.088,-6.09,-7.237
1621785068061.44,-0.009,-0.033,-0.021,-0.08424253731343283,-6.09,-7.229287313432836
1621785068066.441,0.0,-0.038,-0.024,-0.07836308840413318,-6.09,-7.2172189709348
1621785068071.442,0.003,-0.04,-0.023,-0.07248363949483352,-6.09,-7.205150628436764
1621785068074.405,0.003,-0.037036865234375,-0.025963134765625,-0.069,-6.09,-7.198
1621785068076.442,0.003,-0.035,-0.028,-0.06647865637135648,-6.092521343628643,-7.195478656371357
1621785068081.444,0.007,-0.045,-0.028,-0.060286661932032824,-6.0987133380679674,-7.189286661932033
1621785068086.444,0.012,-0.038,-0.026,-0.0540973873887487,-6.1049026126112516,-7.183097387388749
1621785068090.562,0.012,-0.0412943359375,-0.0292943359375,-0.049,-6.11,-7.178
1621785068091.444,0.012,-0.042,-0.03,-0.051129308651303364,-6.108908046845486,-7.174833335851908
1621785068096.445,0.014,-0.045,-0.031,-0.06320148092179825,-6.102717189270873,-7.156879848885531
1621785068101.445,0.016,-0.042,-0.03,-0.07527129580657348,-6.096527540612014,-7.13892986777484
1621785068106.445,0.014,-0.042,-0.037,-0.08734111069134869,-6.090337891953155,-7.1209798866641485
1621785068106.718,0.014,-0.04227300253955851,-0.036617796444618086,-0.088,-6.09,-7.12
1621785068111.444,0.014,-0.047,-0.03,-0.08244130760046549,-6.0841487448425955,-7.114148744842595
1621785068116.444,0.014,-0.047,-0.035,-0.0765604304260432,-6.077958347816888,-7.107958347816887
1621785068121.443,0.016,-0.044,-0.028,-0.07068070186044403,-6.071769159853099,-7.101769159853099
1621785068122.872,0.013427880859375,-0.044,-0.030572119140625,-0.069,-6.07,-7.1
1621785068126.443,0.007,-0.044,-0.037,-0.07320100069534723,-6.07,-7.104422105995102
1621785068131.443,0.005,-0.051,-0.033,-0.079083033527829,-6.07,-7.110613719502978
1621785068136.441,0.002,-0.042,-0.033,-0.0849624814826012,-6.07,-7.116802612086949
1621785068139.023,0.0035492187500000003,-0.04458203125,-0.0340328125,-0.088,-6.07,-7.12
1621785068141.441,0.005,-0.047,-0.035,-0.09383794567960944,-6.07,-7.117006181702765
1621785068146.44,0.003,-0.049,-0.038,-0.10590759185647566,-6.07,-7.110816619560782
1621785068151.438,0.002,-0.052,-0.04,-0.11797488022006257,-6.07,-7.104628266553814
1621785068155.176,0.0042432604024223485,-0.056486520804844696,-0.04149550693494823,-0.127,-6.07,-7.1
1621785068156.437,0.005,-0.058,-0.042,-0.127,-6.07,-7.101561696852417
1621785068161.435,0.0,-0.051,-0.044,-0.127,-6.07,-7.107751640310827
1621785068166.434,0.0,-0.059,-0.044,-0.127,-6.07,-7.113942793215009
1621785068171.325,0.0,-0.05802139612134239,-0.04497860387865761,-0.127,-6.07,-7.12
1621785068171.432,0.0,-0.058,-0.045,-0.12674175699578213,-6.0701324323098556,-7.12
1621785068176.43,0.0,-0.056,-0.051,-0.1146715497301465,-6.076322282189668,-7.12
1621785068181.428,0.0,-0.058,-0.047,-0.10260134246451086,-6.082512132069482,-7.12
1621785068186.427,0.0,-0.063,-0.044,-0.09052877681527506,-6.088703191376782,-7.12
1621785068187.474,-0.0010477330467070548,-0.06341909321868282,-0.04462863982802423,-0.088,-6.09,-7.12
1621785068191.424,-0.005,-0.065,-0.047,-0.0784590528321287,-6.085107206580579,-7.12464815374845
1621785068196.421,-0.005,-0.065,-0.049,-0.06638942147760607,-6.078917652039798,-7.130528230562192
1621785068201.418,-0.007,-0.056,-0.042,-0.054319200411286184,-6.072727795082711,-7.136408594671425
1621785068203.62,-0.0061189685485446375,-0.056881031451455365,-0.04332154717718304,-0.049,-6.07,-7.139
1621785068206.417,-0.005,-0.058,-0.045,-0.04224334215500945,-6.0667082948960305,-7.13570829489603
1621785068211.413,-0.007,-0.058,-0.042,-0.030173837429111533,-6.060828279773157,-7.129828279773157
1621785068216.41,-0.007,-0.058,-0.044,-0.01810256332703214,-6.054947402646503,-7.123947402646503
1621785068219.764,-0.007,-0.06336955247215166,-0.044,-0.01,-6.051,-7.12
1621785068221.407,-0.007,-0.066,-0.044,-0.008982246015183135,-6.051,-7.1219337325711525
1621785068226.404,-0.01,-0.063,-0.044,-0.005886943108610834,-6.051,-7.12781480809364
1621785068231.401,-0.009,-0.056,-0.044,-0.002791791428485014,-6.051,-7.133695596285879
1621785068235.908,-0.009,-0.05870636239249413,-0.04039151681000782,0.0,-6.051,-7.139
1621785068236.397,-0.009,-0.059,-0.04,0.0003028882504158476,-6.051,-7.13842451232421
1621785068241.393,-0.007,-0.056,-0.044,0.003397399062452745,-6.051,-7.13254494178134
1621785068246.39,-0.012,-0.056,-0.037,0.006492363526387419,-6.051,-7.126664509299864
1621785068251.386,-0.014,-0.056,-0.04,0.009586874338424317,-6.051,-7.1207849387569935
1621785068252.053,-0.014400508209538702,-0.056,-0.0395994917904613,0.01,-6.051,-7.12
1621785068256.382,-0.017,-0.056,-0.037,0.015095864718516504,-6.056095864718516,-7.135555797561787
1621785068261.377,-0.014,-0.045,-0.04,0.020975421242096986,-6.0619754212420975,-7.153503917475875
1621785068266.373,-0.01,-0.049,-0.037,0.02685641467767795,-6.067856414677678,-7.171456423752912
1621785068268.194,-0.012552079769294688,-0.049,-0.03627083435163009,0.029,-6.07,-7.178
1621785068271.368,-0.017,-0.049,-0.035,0.029,-6.073933374684196,-7.170329919365819
1621785068276.364,-0.014,-0.051,-0.037,0.029,-6.080125111571686,-7.1582560324352125
1621785068281.359,-0.016,-0.047,-0.038,0.029,-6.086315335622759,-7.14618509553562
1621785068284.332,-0.016,-0.045809579667644186,-0.033238318670576736,0.029,-6.09,-7.139
1621785068286.354,-0.016,-0.045,-0.03,0.029,-6.092506165554597,-7.141506165554597
1621785068291.349,-0.017,-0.044,-0.033,0.029,-6.09869744148397,-7.147697441483969
1621785068296.345,-0.012,-0.052,-0.031,0.029,-6.104889625225062,-7.153889625225061
1621785068300.468,-0.009523269456394211,-0.037965193586233875,-0.02687211576065702,0.029,-6.11,-7.159
1621785068301.339,-0.009,-0.035,-0.026,0.029,-6.10892043993283,-7.15792043993283
1621785068306.333,-0.005,-0.038,-0.031,0.029,-6.10273142615089,-7.15173142615089
1621785068311.328,-0.007,-0.037,-0.028,0.029,-6.096541202099817,-7.1455412020998175
1621785068316.323,-0.005,-0.038,-0.028,0.029,-6.09035067548146,-7.13935067548146
1621785068316.606,-0.005226643852358837,-0.03794333903691029,-0.027716695184551454,0.029,-6.09,-7.139
1621785068321.317,-0.009,-0.037,-0.023,0.02053287233881584,-6.09,-7.133452571532328
1621785068326.311,-0.009,-0.038,-0.026,0.011556734100985035,-6.09,-7.127571653376507
1621785068331.304,-0.005,-0.042,-0.017,0.002582789874260468,-6.09,-7.12169217267624
1621785068332.741,-0.005,-0.038835483870967746,-0.019013782991202346,0.0,-6.09,-7.12
1621785068336.299,-0.005,-0.031,-0.024,0.0,-6.09,-7.12
1621785068341.292,-0.005,-0.031,-0.023,0.0,-6.09,-7.12
1621785068346.286,-0.01,-0.033,-0.021,0.0,-6.09,-7.12
1621785068348.877,-0.007405388226090358,-0.0293675435165265,-0.021,0.0,-6.09,-7.12
1621785068351.279,-0.005,-0.026,-0.021,0.004316591276985219,-6.09,-7.12
1621785068356.273,-0.009,-0.019,-0.024,0.01329066126079787,-6.09,-7.12
1621785068361.266,-0.01,-0.023,-0.017,0.022263415076927733,-6.09,-7.12
1621785068365.015,-0.00774754290743729,-0.028255733215979656,-0.016249180969145762,0.029,-6.09,-7.12
1621785068366.259,-0.007,-0.03,-0.016,0.029,-6.09,-7.12
1621785068371.251,-0.012,-0.026,-0.017,0.029,-6.09,-7.12
1621785068376.245,-0.012,-0.024,-0.014,0.029,-6.09,-7.12
1621785068381.148,-0.005124957206436152,-0.017124957206436153,-0.016946446911527364,0.029,-6.09,-7.12
1621785068381.237,-0.005,-0.017,-0.017,0.028895053040964878,-6.09,-7.119889529516805
1621785068386.229,-0.012,-0.016,-0.012,0.023016010653591806,-6.09,-7.113701063845886
1621785068391.221,-0.017,-0.012,-0.014,0.01713696826621873,-6.09,-7.107512598174967
1621785068396.214,-0.012,-0.024,-0.01,0.011256488249269836,-6.09,-7.101322619209758
1621785068397.281,-0.012854893138357706,-0.023358830146231722,-0.01,0.01,-6.09,-7.1
1621785068401.206,-0.016,-0.021,-0.01,0.01,-6.085132311977715,-7.1
1621785068406.198,-0.019,-0.005,-0.014,0.01,-6.078941504178273,-7.1
1621785068411.19,-0.017,-0.012,-0.012,0.01,-6.07275069637883,-7.1
1621785068413.408,-0.020110844787946974,-0.012,-0.011111187203443722,0.01,-6.07,-7.1
1621785068416.181,-0.024,-0.012,-0.01,0.008280445709441047,-6.073439108581118,-7.103439108581117
1621785068421.173,-0.023,-0.005,-0.005,0.005184702961303216,-6.079630594077393,-7.109630594077394
1621785068426.165,-0.028,-0.005,-0.01,0.002089111609035306,-6.08582177678193,-7.11582177678193
1621785068429.534,-0.02327500856038742,-0.001625006114562442,-0.006625006114562442,0.0,-6.09,-7.12
1621785068431.156,-0.021,0.0,-0.005,-0.001005874159752922,-6.087988251680494,-7.125834070126567
1621785068436.146,-0.019,-0.005,-0.007,-0.004100254345061467,-6.081799491309877,-7.143781475201356
1621785068441.138,-0.023,-0.007,-0.005,-0.007195845697329377,-6.075608308605341,-7.161735905044511
1621785068445.66,-0.021187937191214597,-0.008812062808785402,-0.0004698429780364919,-0.01,-6.07,-7.178
1621785068446.129,-0.021,-0.009,0.0,-0.011134311409883722,-6.07,-7.178581698158915
1621785068451.119,-0.014,-0.003,-0.003,-0.023203124999999998,-6.07,-7.184770833333333
1621785068456.11,-0.012,0.003,0.0,-0.035274890988372096,-6.07,-7.19096148255814
1621785068461.101,-0.01,0.0,0.0,-0.047346066497093026,-6.07,-7.197151828972869
1621785068461.785,-0.009040706492489848,-0.0006852096482215373,-0.0004111257889329224,-0.049,-6.07,-7.198
1621785068466.091,-0.003,-0.005,-0.003,-0.05941614173228346,-6.059583858267716,-7.182242247122956
1621785068471.081,-0.005,-0.009,-0.002,-0.07148641732283464,-6.0475135826771655,-7.1639820866141735
1621785068476.071,-0.005,-0.003,-0.002,-0.08355669291338583,-6.035443307086614,-7.145721926105391
1621785068477.908,-0.006840598855129899,-0.004472479084103919,-0.0012637604579480407,-0.088,-6.031,-7.139
1621785068481.061,-0.01,-0.007,0.0,-0.088,-6.031,-7.135284072324187
1621785068486.051,-0.014,-0.005,0.0,-0.088,-6.031,-7.129403325458841
1621785068491.041,-0.021,-0.01,-0.003,-0.088,-6.031,-7.123522578593494
1621785068494.03,-0.022797357474920482,-0.002211450942011255,0.0005947149498409595,-0.088,-6.031,-7.12
1621785068496.03,-0.024,0.003,0.003,-0.09048186018329167,-6.031,-7.115036279633417
1621785068501.02,-0.028,0.0,0.003,-0.09667408922214649,-6.031,-7.102651821555707
1621785068506.009,-0.037,0.0,0.005,-0.10286510641520866,-6.031,-7.090269787169583
1621785068510.147,-0.037,0.00414705162711035,0.00665882065084414,-0.108,-6.031,-7.08
1621785068510.998,-0.037,0.005,0.007,-0.11005944103612815,-6.03205612360827,-7.082112247216542
1621785068515.987,-0.04,-0.002,0.012,-0.1221319245625994,-6.0382471408013325,-7.094494281602666
1621785068520.975,-0.045,0.007,0.009,-0.13420204498977503,-6.044436946148602,-7.106873892297205
1621785068525.965,-0.044,0.0,0.012,-0.14627689161554192,-6.050629175187457,-7.119258350374915
1621785068526.264,-0.044,-0.000718942731277533,0.012119823788546256,-0.147,-6.051,-7.12
1621785068530.953,-0.044,-0.012,0.014,-0.147,-6.039361234414532,-7.131347796445832
1621785068535.941,-0.054,-0.005,0.014,-0.147,-6.0269801233202545,-7.1434193797627525
1621785068540.929,-0.054,-0.005,0.017,-0.147,-6.014599012225976,-7.155490963079673
1621785068542.379,-0.05458125764619525,-0.006453144115488133,0.015546855884511868,-0.147,-6.011,-7.159
1621785068545.918,-0.056,-0.01,0.012,-0.15556542884414343,-6.028350484068906,-7.146042043543475
1621785068550.906,-0.063,-0.007,0.017,-0.16763774373892096,-6.052804660394225,-7.127778797933427
1621785068555.894,-0.063,-0.003,0.019,-0.17971005863369846,-6.077258836719543,-7.109515552323379
1621785068558.493,-0.06456337200763695,-0.003,0.021084496010182602,-0.186,-6.09,-7.1
1621785068560.881,-0.066,-0.003,0.023,-0.19770751586952898,-6.097261623767176,-7.102963928068235
1621785068565.87,-0.068,-0.005,0.023,-0.2221649976517642,-6.112431454239702,-7.109155695608042
1621785068570.857,-0.065,0.0,0.023,-0.24661170784916753,-6.127594603602648,-7.115344736164346
1621785068574.608,-0.060487149361139664,0.0,0.025256425319430165,-0.265,-6.139,-7.12
1621785068575.844,-0.059,0.0,0.026,-0.265,-6.139,-7.122992180751921
1621785068580.831,-0.056,-0.003,0.023,-0.265,-6.139,-7.1350643269536755
1621785068585.819,-0.047,0.003,0.024,-0.265,-6.139,-7.147138837114152
1621785068590.719,-0.04405228630177225,5.2286301772250764e-05,0.024,-0.265,-6.139,-7.159
1621785068590.806,-0.044,0.0,0.024,-0.2652103795742102,-6.13862778998409,-7.1587896204257895
1621785068595.792,-0.038,0.002,0.028,-0.2772794302598682,-6.117274854155618,-7.146720569740132
1621785068600.779,-0.037,-0.003,0.026,-0.28935084476096673,-6.095917736192136,-7.134649155239034
1621785068605.765,-0.04,-0.005,0.026,-0.3014193044927646,-6.074565845897417,-7.122580695507235
1621785068606.831,-0.040855142703284865,-0.0058551427032848685,0.026427571351642434,-0.304,-6.07,-7.12
1621785068610.752,-0.044,-0.009,0.028,-0.31349071899386316,-6.0653763163876055,-7.1007752102432
1621785068615.739,-0.047,0.0,0.021,-0.32556213349496177,-6.059495370861429,-7.076322857792257
1621785068620.725,-0.056,-0.003,0.021,-0.33763118418061977,-6.053615576937647,-7.051875293582848
1621785068622.943,-0.05688990106768538,-0.0016651483984719364,0.021,-0.343,-6.051,-7.041
1621785068625.71,-0.058,0.0,0.021,-0.33630140038192236,-6.054263420326756,-7.044435179291322
1621785068630.697,-0.059,-0.002,0.019,-0.32422760752932617,-6.0601455245369955,-7.050626867933679
1621785068635.683,-0.068,0.002,0.024,-0.3121561789578976,-6.066026476917948,-7.0568173441241555
1621785068639.052,-0.068,0.004027475756685278,0.02535165050445685,-0.304,-6.07,-7.061
1621785068640.668,-0.068,0.005,0.026,-0.30991931670051837,-6.0769225907175555,-7.068825537332889
1621785068645.653,-0.075,0.005,0.028,-0.3281798587322278,-6.098278139873283,-7.0929665929002335
1621785068650.639,-0.08,0.014,0.03,-0.3464430836390093,-6.119636826628672,-7.117111195319368
1621785068655.159,-0.07728041913528864,0.0013086226313470117,0.02637389218038486,-0.363,-6.139,-7.139
1621785068655.625,-0.077,0.0,0.026,-0.36496774291344547,-6.13957874791572,-7.141835864787025
1621785068660.609,-0.077,-0.002,0.024,-0.3860099135970896,-6.145767621646203,-7.172161346066394
1621785068665.594,-0.073,-0.003,0.023,-0.40705723813854783,-6.15195801121722,-7.202494254964378
1621785068670.58,-0.068,0.0,0.024,-0.4281086857662574,-6.1581496134606635,-7.232833105957253
1621785068671.265,-0.06635113157636917,-0.000687028509846184,0.02358778289409229,-0.431,-6.159,-7.237
1621785068675.564,-0.056,-0.005,0.021,-0.4467504472271914,-6.145919120099451,-7.242339134653285
1621785068680.548,-0.051,-0.007,0.017,-0.4650107334525939,-6.130753797641066,-7.24852906218732
1621785068685.533,-0.045,-0.005,0.01,-0.4832737030411449,-6.115586246626846,-7.254719899335981
1621785068687.369,-0.04389514667711445,-0.007577991086732945,0.0107365688819237,-0.49,-6.11,-7.257
1621785068690.518,-0.042,-0.012,0.012,-0.49,-6.09454951936198,-7.237833580980683
1621785068695.502,-0.04,-0.016,0.007,-0.49,-6.070097537677776,-7.207500742942051
1621785068700.485,-0.042,-0.016,0.005,-0.49,-6.045649149407162,-7.17717236255572
1621785068703.471,-0.04379729597335162,-0.013603605368864506,0.005,-0.49,-6.031,-7.159
1621785068705.469,-0.045,-0.012,0.005,-0.48516033358605004,-6.023678453373768,-7.151678453373767
1621785068710.454,-0.049,-0.012,0.012,-0.47308541319181197,-6.0054112661106895,-7.13341126611069
1621785068715.437,-0.061,-0.007,0.01,-0.46101581501137223,-5.98715213040182,-7.115152130401819
1621785068719.572,-0.06514919157275845,-0.0036806467417932385,0.011659676629103381,-0.451,-5.972,-7.1
1621785068720.42,-0.066,-0.003,0.012,-0.45516104766671217,-5.966838194033699,-7.098946570210958
1621785068725.403,-0.086,0.002,0.016,-0.4796157392662693,-5.936501994327919,-7.092755509046514
1621785068730.386,-0.101,0.012,0.017,-0.5040692327524758,-5.906167280889334,-7.086564751201905
1621785068735.37,-0.117,0.01,0.017,-0.5285287168054356,-5.875825136114776,-7.080372476758118
1621785068735.67,-0.1178423321901029,0.010360999510044096,0.017,-0.53,-5.874,-7.08
1621785068740.353,-0.131,0.016,0.017,-0.5241811011679054,-5.874,-7.108512604277264
1621785068745.336,-0.141,0.017,0.014,-0.5179896860306386,-5.874,-7.138850538449871
1621785068750.318,-0.15,0.024,0.016,-0.511799180949492,-5.874,-7.16918401334749
1621785068751.766,-0.15145267953365338,0.023128392279807976,0.016,-0.51,-5.874,-7.178
1621785068755.302,-0.155,0.021,0.016,-0.5014326472417298,-5.874,-7.216882600979842
1621785068760.284,-0.159,0.023,0.014,-0.4893615707806883,-5.874,-7.271666717226107
1621785068765.266,-0.155,0.035,0.012,-0.4772899027741965,-5.874,-7.326453518178647
1621785068767.862,-0.15604214446731354,0.03604214446731353,0.008352494364402626,-0.471,-5.874,-7.355
1621785068770.248,-0.157,0.037,0.005,-0.44327328448105835,-5.876965424119673,-7.373830443159924
1621785068775.23,-0.145,0.037,0.007,-0.3853799705672629,-5.883157222399223,-7.413148362235067
1621785068780.212,-0.136,0.042,0.0,-0.32748665665346743,-5.8893490206787735,-7.452466281310212
1621785068783.954,-0.12923996667810064,0.05476895183025432,0.006760033321899348,-0.284,-5.894,-7.482
1621785068785.194,-0.127,0.059,0.009,-0.2674349448582394,-5.897004823955947,-7.47753128745013
1621785068790.175,-0.113,0.072,0.002,-0.200894237041307,-5.909074998862274,-7.459580770922772
1621785068795.157,-0.105,0.072,0.005,-0.13434048330577508,-5.921147540237557,-7.441626735031326
1621785068800.048,-0.08732467405156356,0.08574747573767277,0.009909812763454564,-0.069,-5.933,-7.424
1621785068800.138,-0.087,0.086,0.01,-0.0679058418409915,-5.93234127212876,-7.4237767024165295
1621785068805.119,-0.077,0.098,0.009,-0.0072454756450903435,-5.895821255745513,-7.411397035845937
1621785068810.1,-0.058,0.108,0.012,0.05341786380667769,-5.859299449340878,-7.399016762488434
1621785068815.081,-0.045,0.115,0.016,0.11407823000257883,-5.822779432957631,-7.386637095917841
1621785068816.142,-0.042017743358494265,0.11904734829918635,0.01706509165768062,0.127,-5.815,-7.384
1621785068820.062,-0.031,0.134,0.021,0.17499453750910415,-5.784059359067735,-7.353059359067735
1621785068825.043,-0.023,0.136,0.028,0.23598012260257345,-5.744743778829813,-7.313743778829813
1621785068830.023,-0.017,0.138,0.037,0.29695375091041515,-5.705435906773489,-7.274435906773489
1621785068832.232,-0.013894989704873028,0.14021786449651927,0.04010501029512697,0.324,-5.688,-7.257
1621785068835.003,-0.01,0.143,0.044,0.3307168935221013,-5.671121652175232,-7.216526410828363
1621785068839.984,-0.009,0.155,0.058,0.3427907315518733,-5.640782264305549,-7.143773797059225
1621785068844.964,-0.012,0.159,0.07,0.3548627941912869,-5.610447337673176,-7.071031881155066
1621785068848.321,-0.019414942641435434,0.16102225708402784,0.08078537111481518,0.363,-5.59,-7.022
1621785068849.944,-0.023,0.162,0.086,0.3649168386548501,-5.580113147990773,-7.015038849095545
1621785068854.924,-0.037,0.164,0.093,0.37079825786087167,-5.549777406822872,-6.993680010926308
1621785068859.904,-0.051,0.166,0.106,0.3766796770668933,-5.519441665654972,-6.972321172757072
1621785068864.409,-0.061855181880576524,0.1786643788606726,0.1141413864104324,0.382,-5.492,-6.953
1621785068864.884,-0.063,0.18,0.115,0.38982664784713683,-5.498349921838243,-6.9512574633095054
1621785068869.863,-0.084,0.185,0.12,0.4718495955318794,-5.56489684165794,-6.932995750428752
1621785068874.842,-0.099,0.208,0.122,0.5538725432166219,-5.6314437614776365,-6.914734037547998
1621785068879.822,-0.106,0.22,0.138,0.6359115785639484,-5.698003733551882,-6.896468742885762
1621785068880.495,-0.1077574286554869,0.22094630773756987,0.13962224183583408,0.647,-5.707,-6.894
1621785068884.801,-0.119,0.227,0.15,0.6419143598615917,-5.809515798579493,-6.9097922509561105
1621785068889.78,-0.131,0.262,0.162,0.6360337370242215,-5.928056774722273,-6.92805313239847
1621785068894.758,-0.14,0.276,0.162,0.6301542675893888,-6.046574500698112,-6.9463104322224245
1621785068896.582,-0.14293009118541034,0.28405775075987844,0.1616337386018237,0.628,-6.09,-6.953
1621785068899.738,-0.148,0.298,0.161,0.583656881792241,-6.1149184779309085,-7.024223681015117
1621785068904.716,-0.157,0.323,0.162,0.5137136482302228,-6.154222861392751,-7.13656613138243
1621785068909.694,-0.166,0.349,0.154,0.44377041466820477,-6.193527244854593,-7.248908581749742
1621785068912.667,-0.17018043158410986,0.36452731731240806,0.14862515939185875,0.402,-6.217,-7.316
1621785068914.672,-0.173,0.375,0.145,0.36048368146214105,-6.236573759791122,-7.336695822454308
1621785068919.651,-0.175,0.38,0.134,0.2573980508834781,-6.285175693727609,-7.388083854514543
1621785068924.629,-0.176,0.398,0.12,0.1543275851599976,-6.333770477867509,-7.439464326917238
1621785068928.75,-0.17020386539782204,0.40048405768664774,0.1075797115667615,0.069,-6.374,-7.482
1621785068929.606,-0.169,0.401,0.105,0.0647850316532749,-6.377147887752617,-7.475757578524471
1621785068934.584,-0.15,0.408,0.089,0.0402718529340151,-6.3954551984416845,-7.439453250547845
1621785068939.564,-0.14,0.405,0.068,0.01574905648892136,-6.413769691989287,-7.4031346785975165
1621785068944.505,-0.126,0.403,0.052,-0.00858138543949355,-6.431940528366204,-7.367100986121256
1621785068944.793,-0.12535853718804052,0.40282505559673837,0.051416851989127745,-0.01,-6.433,-7.365
1621785068949.445,-0.115,0.4,0.042,-0.015538566270958268,-6.421631363970138,-7.265014303634806
1621785068954.385,-0.108,0.4,0.03,-0.02141982315506058,-6.409559310365928,-7.1588421398849595
1621785068959.325,-0.099,0.38,0.021,-0.027301080039162894,-6.3974872567617185,-7.052669976135112
1621785068960.752,-0.09871107266435987,0.37653287197231833,0.016377162629757788,-0.029,-6.394,-7.022
1621785068964.264,-0.098,0.368,0.005,-0.0635581619537275,-6.381013174807198,-6.92911118251928
1621785068969.203,-0.106,0.349,-0.01,-0.11215820479862897,-6.362749464438732,-6.798479220222793
1621785068974.141,-0.117,0.312,-0.024,-0.16075104051903538,-6.344488462480108,-6.667866629942465
1621785068976.707,-0.12583367942252546,0.2969307821615742,-0.032314051221200436,-0.186,-6.335,-6.6
1621785068979.079,-0.134,0.283,-0.04,-0.19194769141300522,-6.34079899912768,-6.572343234929526
1621785068984.017,-0.147,0.257,-0.049,-0.2043291247723551,-6.352870896653046,-6.514769569808548
1621785068988.955,-0.171,0.225,-0.066,-0.216710558131705,-6.364942794178412,-6.4571959046875715
1621785068992.66,-0.18150796320110793,0.20248293599762587,-0.07650796320110792,-0.226,-6.374,-6.414
1621785068993.891,-0.185,0.195,-0.08,-0.2199019622849446,-6.386118885079287,-6.414
1621785068998.828,-0.197,0.173,-0.106,-0.1954505602155146,-6.434712177799547,-6.414
1621785069003.765,-0.201,0.154,-0.127,-0.1709979489377334,-6.483307873630074,-6.414
1621785069008.61,-0.2127815375482339,0.14712743643019688,-0.14958128030078163,-0.147,-6.531,-6.414
1621785069008.7,-0.213,0.147,-0.15,-0.1445714591946103,-6.531828295819936,-6.414107058643393
1621785069013.636,-0.216,0.133,-0.169,-0.011146899402847965,-6.577335048231511,-6.419988883785025
1621785069018.571,-0.223,0.145,-0.188,0.1222512632062471,-6.622832797427653,-6.42586954524575
1621785069023.506,-0.234,0.136,-0.195,0.2556494258153422,-6.668330546623794,-6.431750206706477
1621785069024.555,-0.2354880498787669,0.1355748428917809,-0.19946414963630066,0.284,-6.678,-6.433
1621785069028.44,-0.241,0.134,-0.216,0.31982526992878474,-6.663621150164637,-6.464194792863159
1621785069033.374,-0.241,0.131,-0.223,0.36532446588559614,-6.645359568113944,-6.5038131403629675
1621785069038.307,-0.246,0.136,-0.239,0.4108124052377671,-6.627102504020216,-6.54342168619343
1621785069040.496,-0.24688738248391884,0.13511261751608117,-0.24388060366155367,0.431,-6.619,-6.561
1621785069043.241,-0.248,0.134,-0.25,0.47836106430562786,-6.60057224043381,-6.570988879017187
1621785069048.174,-0.239,0.127,-0.262,0.5634787077601789,-6.567453739162403,-6.58894096381851
1621785069053.106,-0.246,0.122,-0.271,0.648575288747281,-6.534343433105603,-6.606888606353972
1621785069056.434,-0.24734956934956934,0.12334956934956935,-0.27639827739827744,0.706,-6.512,-6.619
1621785069058.038,-0.248,0.124,-0.279,0.7405328470508911,-6.506059947591829,-6.619
1621785069062.971,-0.248,0.126,-0.286,0.8467331780498644,-6.487792252172181,-6.619
1621785069067.902,-0.246,0.131,-0.283,0.9528967160611121,-6.469530885575494,-6.619
1621785069072.366,-0.24418943407436747,0.131,-0.28571584888844875,1.049,-6.453,-6.619
1621785069072.833,-0.244,0.131,-0.286,1.0544825514567273,-6.452413630860243,-6.620729788962283
1621785069077.763,-0.239,0.131,-0.288,1.1123545648209168,-6.446224110714341,-6.638988873392695
1621785069082.694,-0.237,0.124,-0.281,1.1702409079066345,-6.4400330579779,-6.657252478965194
1621785069087.624,-0.229,0.138,-0.279,1.228112921270824,-6.433843537831997,-6.675511563395608
1621785069088.296,-0.2281821288820645,0.138,-0.27831844073505374,1.236,-6.433,-6.678
1621785069092.553,-0.223,0.138,-0.274,1.2464248309904495,-6.43834606717459,-6.678
1621785069097.482,-0.213,0.14,-0.265,1.2584949642052334,-6.4445358790796075,-6.678
1621785069102.412,-0.215,0.148,-0.258,1.2705680867045819,-6.450727223951068,-6.678
1621785069104.222,-0.21242922962595986,0.1461637354471142,-0.2550619767153827,1.275,-6.453,-6.678
1621785069107.34,-0.208,0.143,-0.25,1.2614854851324202,-6.474153153705777,-6.674278611848058
1621785069112.268,-0.195,0.145,-0.236,1.240127007008235,-6.507583815117545,-6.668397291784876
1621785069117.195,-0.185,0.155,-0.23,1.218772761428637,-6.541007851676916,-6.662517137204987
1621785069120.142,-0.17901863138595708,0.14901863138595708,-0.22700931569297855,1.206,-6.561,-6.659
1621785069122.122,-0.175,0.145,-0.225,1.1816123904938707,-6.568216741588548,-6.659
1621785069127.05,-0.162,0.141,-0.22,1.1209140060448917,-6.586178508415287,-6.659
1621785069131.976,-0.152,0.138,-0.211,1.0602396784240322,-6.604133156384725,-6.659
1621785069136.055,-0.1387516479159439,0.136343955989493,-0.20851593398423948,1.01,-6.619,-6.659
1621785069136.902,-0.136,0.136,-0.208,1.0027051620427203,-6.6200649398477776,-6.661076632703167
1621785069141.829,-0.12,0.127,-0.208,0.9602794776577461,-6.626258470414927,-6.673154017309109
1621785069146.754,-0.108,0.124,-0.211,0.9178727136017677,-6.632449238890253,-6.685226015835993
1621785069151.678,-0.098,0.113,-0.209,0.8754722563221213,-6.638639086668304,-6.697296219003192
1621785069151.965,-0.09636771922867199,0.112183859614336,-0.20934977445099884,0.873,-6.639,-6.698
1621785069156.603,-0.07,0.099,-0.215,0.8356818091130926,-6.627629613714145,-6.692169032673921
1621785069161.527,-0.061,0.089,-0.213,0.796061311560951,-6.615557743366227,-6.685978329931399
1621785069166.452,-0.056,0.075,-0.218,0.7564349207323624,-6.603484077410641,-6.679786706364432
1621785069167.873,-0.052535978180014875,0.07095864121001735,-0.21915467393999505,0.745,-6.6,-6.678
1621785069171.375,-0.044,0.061,-0.222,0.7062532576164531,-6.587011035223697,-6.652242222392756
1621785069176.298,-0.03,0.042,-0.232,0.651782533957486,-6.5687509630880205,-6.616031570869465
1621785069181.221,-0.03,0.033,-0.241,0.5973145115493822,-6.550491796485304,-6.579822715064078
1621785069183.78,-0.03,0.02468301512521696,-0.2425594346640218,0.569,-6.541,-6.561
1621785069186.144,-0.03,0.017,-0.244,0.569,-6.539513372432217,-6.561
1621785069191.065,-0.024,0.0,-0.264,0.569,-6.536418828875856,-6.561
1621785069195.987,-0.023,-0.016,-0.271,0.569,-6.5333235176712625,-6.561
1621785069199.682,-0.01624375,-0.022005555555555556,-0.27625486111111114,0.569,-6.531,-6.561
1621785069200.909,-0.014,-0.024,-0.278,0.5825831580240468,-6.531,-6.5685633493542985
1621785069205.83,-0.007,-0.04,-0.291,0.6370590267647375,-6.531,-6.598896503539456
1621785069210.75,0.0,-0.056,-0.3,0.6915213826144373,-6.531,-6.62922213350122
1621785069215.581,0.004909686383485511,-0.06090968638348551,-0.30687356093687973,0.745,-6.531,-6.659
1621785069215.67,0.005,-0.061,-0.307,0.7465934994316611,-6.53105591226076,-6.659
1621785069220.59,0.016,-0.058,-0.314,0.8348182083499739,-6.5341515160824555,-6.659
1621785069225.51,0.024,-0.065,-0.316,0.9230385395225953,-6.537246966299039,-6.659
1621785069230.428,0.035,-0.072,-0.321,1.0112238487296858,-6.540341187674726,-6.659
1621785069231.475,0.03691587254318047,-0.07263862418106015,-0.3214257494540401,1.03,-6.541,-6.659
1621785069235.347,0.044,-0.075,-0.323,1.03950238903655,-6.529061100954078,-6.639751570925963
1621785069240.266,0.045,-0.096,-0.326,1.0515752584922182,-6.513892623945675,-6.615296271259353
1621785069245.184,0.056,-0.096,-0.332,1.0636451320499622,-6.49872791101415,-6.590847040206486
1621785069247.366,0.05910620655412115,-0.10620610724925521,-0.33421871896722943,1.069,-6.492,-6.58
1621785069250.101,0.063,-0.119,-0.337,1.0893124414191546,-6.481843779290423,-6.586713434028365
1621785069255.019,0.075,-0.126,-0.332,1.125836035094728,-6.463581982452636,-6.598784791260122
1621785069259.935,0.091,-0.145,-0.326,1.162345123768842,-6.445327438115579,-6.610851354465973
1621785069263.255,0.09572621648460775,-0.15580278053624627,-0.326,1.187,-6.433,-6.619
1621785069264.852,0.098,-0.161,-0.326,1.2077123952970108,-6.429078721278721,-6.611157442557443
1621785069269.767,0.101,-0.176,-0.326,1.2714516099285331,-6.417011588411588,-6.587023176823177
1621785069274.684,0.108,-0.178,-0.318,1.3352161530776916,-6.40493966033966,-6.562879320679321
1621785069279.14,0.11253283330021856,-0.1870656666004371,-0.30984090005960657,1.393,-6.394,-6.541
1621785069279.599,0.113,-0.188,-0.309,1.3986683630325487,-6.395127888562599,-6.5373271321166655
1621785069284.514,0.11,-0.188,-0.302,1.4593328054611707,-6.407198874556049,-6.498019049522609
1621785069289.428,0.112,-0.194,-0.291,1.519988207438385,-6.419268061684169,-6.4587168247720665
1621785069294.342,0.108,-0.194,-0.286,1.5806436094155993,-6.431337248812287,-6.419414600021525
1621785069295.019,0.10965321939586645,-0.19441330484896663,-0.2840712440381558,1.589,-6.433,-6.414
1621785069299.256,0.12,-0.197,-0.272,1.6594619832677164,-6.438338029035433,-6.440156342273622
1621785069304.17,0.126,-0.201,-0.267,1.7411783956692912,-6.444528666338583,-6.470490465059055
1621785069309.083,0.138,-0.201,-0.26,1.822882627952756,-6.450718380905512,-6.500820066437007
1621785069310.894,0.13873737574552686,-0.2046868787276342,-0.25926262425447316,1.853,-6.453,-6.512
1621785069313.995,0.14,-0.211,-0.258,1.872344039872629,-6.470194702109004,-6.532907194609811
1621785069318.908,0.143,-0.209,-0.26,1.9029896165028382,-6.497435214669189,-6.566029181472764
1621785069323.82,0.147,-0.22,-0.269,1.933630624394296,-6.524671666128263,-6.599146230405956
1621785069326.765,0.1499982600049714,-0.22299826000497142,-0.2701993040019886,1.952,-6.541,-6.619
1621785069328.731,0.152,-0.225,-0.271,1.9275887086846801,-6.553143688065489,-6.690746891733858
1621785069333.642,0.161,-0.236,-0.269,1.8666104973225826,-6.5834780267126245,-6.869967117006216
1621785069338.553,0.182,-0.248,-0.265,1.8056353172893456,-6.613810857389057,-7.049178432941466
1621785069342.631,0.19777729170809308,-0.27291151322330487,-0.2666607675482203,1.755,-6.639,-7.198
1621785069343.464,0.201,-0.278,-0.267,1.7540020627443735,-6.6451977155875745,-7.256195498907053
1621785069348.374,0.209,-0.309,-0.265,1.7481200240140389,-6.68172827191281,-7.599211231181306
1621785069353.283,0.213,-0.356,-0.264,1.7422391551984238,-6.718251562451895,-7.942158738955081
1621785069358.193,0.208,-0.38,-0.26,1.7363568239894092,-6.754783935223669,-8.285191527354453
1621785069358.491,0.2075752722932312,-0.3792718953598249,-0.2590291938130999,1.736,-6.757,-8.306
1621785069363.102,0.201,-0.368,-0.244,1.7415239597924972,-6.873875359820205,-8.628134076320366
1621785069368.01,0.19,-0.326,-0.216,1.7474035681849667,-6.99827549528193,-8.971008081523328
1621785069372.918,0.162,-0.283,-0.199,1.7532831765774364,-7.122675630743654,-9.31388208672629
1621785069374.351,0.15382573233202368,-0.27686929924901776,-0.19345317551101607,1.755,-7.159,-9.414
1621785069377.827,0.134,-0.262,-0.18,1.679805349388685,-7.285712851467463,-9.5150633642327
1621785069382.734,0.126,-0.262,-0.161,1.573649749006806,-7.464598965230513,-9.657738967078316
1621785069387.641,0.148,-0.295,-0.143,1.4674888669890054,-7.643493979243017,-9.800421668565797
1621785069390.206,0.17100393132620054,-0.3232320975367007,-0.13777183378949986,1.412,-7.737,-9.875
1621785069392.547,0.192,-0.349,-0.133,1.397525145946612,-7.722525145946612,-9.86923959889712
1621785069397.454,0.269,-0.408,-0.127,1.3671851635064154,-7.692185163506416,-9.857165524252553
1621785069402.36,0.351,-0.456,-0.12,1.3368512191740731,-7.661851219174073,-9.845093852528457
1621785069406.056,0.4090202090592334,-0.4921684420109507,-0.11924649079143852,1.314,-7.639,-9.836
1621785069407.265,0.428,-0.504,-0.119,1.264637167596216,-7.530508581641143,-9.78060986657628
1621785069412.17,0.485,-0.555,-0.112,1.0643648198933844,-7.090342772625027,-9.555883862816996
1621785069417.076,0.513,-0.611,-0.117,0.8640525991433766,-6.650089329183743,-9.331113117431363
1621785069421.902,0.5110317618360134,-0.6572535968536865,-0.12585707173793997,0.667,-6.217,-9.11
1621785069421.98,0.511,-0.658,-0.126,0.664344944512947,-6.212953498766954,-9.103686868064118
1621785069426.884,0.482,-0.7,-0.145,0.4971596794081381,-5.958150770653514,-8.706157459926017
1621785069431.787,0.443,-0.716,-0.159,0.33000770653514183,-5.703398782367447,-8.308707213316893
1621785069436.691,0.401,-0.712,-0.162,0.16283076448828604,-5.448608739210851,-7.911197595561036
1621785069437.742,0.39392610665737193,-0.7089989543394911,-0.16135691878703382,0.127,-5.394,-7.826
1621785069441.594,0.368,-0.698,-0.159,0.04113366428219044,-5.28186294400592,-7.649402380365071
1621785069446.496,0.332,-0.686,-0.15,-0.06813938394178587,-5.1391579150222,-7.424665176369018
1621785069451.398,0.3,-0.663,-0.147,-0.17740699000986676,-4.996459993216576,-7.1999391650222
1621785069453.578,0.29021869242643034,-0.6576647413235075,-0.14611079022058457,-0.226,-4.933,-7.1
1621785069456.301,0.278,-0.651,-0.145,-0.3744081651531737,-4.8148581582152605,-6.998882965110004
1621785069461.202,0.255,-0.649,-0.155,-0.641500285225328,-4.602236737022247,-6.816901312036508
1621785069466.103,0.232,-0.646,-0.175,-0.9086057106735943,-4.3896047239481355,-6.634910593422858
1621785069469.413,0.21646268061783758,-0.6473510712506229,-0.18513303437967116,-1.089,-4.246,-6.512
1621785069471.003,0.209,-0.648,-0.19,-1.0633910676557223,-4.230232931850779,-6.447927455546473
1621785069475.905,0.185,-0.644,-0.202,-0.9844288820689974,-4.181616997979736,-6.2503671637647855
1621785069480.804,0.136,-0.642,-0.204,-0.9055178199651466,-4.133032540135404,-6.0529347809324054
1621785069485.244,0.08072891236111804,-0.642,-0.19312699915300682,-0.834,-4.089,-5.874
1621785069485.704,0.075,-0.642,-0.192,-0.8094620889629218,-4.097576639521254,-5.8728661391819355
1621785069490.603,0.019,-0.628,-0.169,-0.5482537479178233,-4.188875763464742,-5.860796085508051
1621785069495.502,-0.052,-0.595,-0.14,-0.28704540687272495,-4.28017488740823,-5.8487260318341665
1621785069500.4,-0.134,-0.578,-0.099,-0.0258891356653711,-4.371455811586156,-5.836658384230983
1621785069501.073,-0.14609270796989485,-0.5753890744155908,-0.09446523451128944,0.01,-4.384,-5.835
1621785069505.298,-0.222,-0.559,-0.066,0.07809075619879341,-4.5514231534770335,-5.989606069957261
1621785069510.196,-0.3,-0.517,-0.028,0.15702504204533183,-4.7455086327938165,-6.168833330761753
1621785069515.094,-0.367,-0.497,0.016,0.2359593278918702,-4.939594112110599,-6.348060591566246
1621785069516.896,-0.3868750373990226,-0.4874305375486187,0.0318264186695921,0.265,-5.011,-6.414
1621785069519.99,-0.421,-0.471,0.059,0.1920463924685547,-5.202869943668493,-6.661416390153561
1621785069524.887,-0.456,-0.454,0.105,0.07658016822285674,-5.506549209043908,-7.05301095763562
1621785069529.783,-0.463,-0.438,0.143,-0.03886302955474957,-5.8101679141909095,-7.444527432672274
1621785069532.715,-0.4510223396828563,-0.4296156377779994,0.16096649047571557,-0.108,-5.992,-7.679
1621785069534.679,-0.443,-0.424,0.173,-0.19815320016054833,-6.062657260180925,-7.8786781623390665
1621785069539.575,-0.4,-0.428,0.195,-0.4229085800734817,-6.238808515236655,-8.376483466609034
1621785069544.47,-0.326,-0.435,0.206,-0.6476191299515267,-6.414924634906913,-8.874189477909168
1621785069548.53,-0.24967754165419537,-0.44744387907812033,0.20268163224583458,-0.834,-6.561,-9.287
1621785069549.364,-0.234,-0.45,0.202,-0.8572614187332077,-6.566169204162935,-9.32940857292857
1621785069554.259,-0.131,-0.475,0.19,-0.993792872363423,-6.596509527191872,-9.57832305981903
1621785069559.153,-0.019,-0.51,0.175,-1.1302970877984002,-6.626843797288533,-9.827187887958988
1621785069564.046,0.096,-0.546,0.155,-1.2667672554893301,-6.657170501219851,-10.07599064266082
1621785069564.341,0.1025136186770428,-0.5478093385214008,0.15409533073929962,-1.275,-6.659,-10.091
1621785069568.94,0.204,-0.576,0.14,-1.3547130148728166,-6.5533948014641155,-9.857097576796553
1621785069573.833,0.307,-0.623,0.129,-1.4395252590773602,-6.441034054579994,-9.608232451466431
1621785069578.725,0.393,-0.653,0.113,-1.524320576379558,-6.32869573275263,-9.359416994857064
1621785069580.149,0.4122100613864351,-0.6559106153615811,0.10950726156610271,-1.549,-6.296,-9.287
1621785069583.617,0.459,-0.663,0.101,-1.5189348823556674,-6.166741939470716,-8.921171159758378
1621785069588.509,0.489,-0.67,0.091,-1.4765241236540034,-5.984406633811738,-8.40512200095784
1621785069593.401,0.494,-0.681,0.089,-1.4341154814688932,-5.802080427629038,-7.889098595683542
1621785069595.952,0.4866966550174738,-0.6742183225162257,0.08430499251123315,-1.412,-5.707,-7.62
1621785069598.291,0.48,-0.668,0.08,-1.3669944527712965,-5.585159324443346,-7.483502912681367
1621785069603.182,0.464,-0.654,0.077,-1.2728919449294622,-5.330401548279432,-7.198099911924224
1621785069608.072,0.45,-0.642,0.065,-1.178803529211799,-5.075681922833259,-6.912739651096312
1621785069611.752,0.42667067751759946,-0.6254437066253932,0.058226970892206305,-1.108,-4.884,-6.698
1621785069612.962,0.419,-0.62,0.056,-1.07422005842259,-4.861480038948394,-6.630363518338203
1621785069617.852,0.377,-0.602,0.051,-0.9376962025316457,-4.770464135021097,-6.357006228651799
1621785069622.74,0.312,-0.586,0.052,-0.8012336903602727,-4.679489126906849,-6.083771765505944
1621785069627.548,0.23332234706616728,-0.5673140574282147,0.06478511860174782,-0.667,-4.59,-5.815
1621785069627.629,0.232,-0.567,0.065,-0.6656438620902907,-4.589795299938157,-5.813648979591837
1621785069632.518,0.138,-0.539,0.073,-0.5835954700061843,-4.577410636982066,-5.7319102040816325
1621785069637.406,0.052,-0.52,0.087,-0.501567563388992,-4.565029066171923,-5.650191836734694
1621785069642.293,-0.031,-0.503,0.096,-0.41955604514533085,-4.552649969078541,-5.568489795918367
1621785069643.339,-0.04598476295149123,-0.4970060948194035,0.10156576909626817,-0.402,-4.55,-5.551
1621785069647.18,-0.101,-0.475,0.122,-0.39251219323611736,-4.578706697388157,-5.648797392796944
1621785069652.067,-0.162,-0.459,0.133,-0.380440147215736,-4.61523237509085,-5.773232328699337
1621785069656.954,-0.22,-0.435,0.145,-0.36836749810567987,-4.651759877526405,-5.897673481064531
1621785069659.127,-0.24090141408084745,-0.4269952031179733,0.1512259531304652,-0.363,-4.668,-5.953
1621785069661.84,-0.267,-0.417,0.159,-0.3949739199034758,-4.701692947855276,-6.060783052577846
1621785069666.725,-0.298,-0.407,0.173,-0.4525430878463038,-4.762357232354169,-6.254846860643186
1621785069671.612,-0.312,-0.387,0.182,-0.5101352730985197,-4.823045771652203,-6.4489882593159775
1621785069674.91,-0.3065981504623844,-0.3721449137715571,0.18537615596100976,-0.549,-4.864,-6.58
1621785069676.496,-0.304,-0.365,0.187,-0.5687003666517119,-4.872845062578319,-6.617491003883105
1621785069681.381,-0.297,-0.356,0.188,-0.6293721592227602,-4.900085459242872,-6.732953139745355
1621785069686.265,-0.291,-0.347,0.188,-0.6900287906681725,-4.927319048871424,-6.8483864230572875
1621785069690.691,-0.2964373406648338,-0.32706308422894276,0.19162489377655587,-0.745,-4.952,-6.953
1621785069691.149,-0.297,-0.325,0.192,-0.7475838220956684,-4.9588514833098625,-6.952419365821198
1621785069696.032,-0.304,-0.298,0.195,-0.7751312771785388,-5.031898667574552,-6.946228926476733
1621785069700.915,-0.318,-0.272,0.201,-0.8026787322614092,-5.1049458518392425,-6.940038487132267
1621785069705.798,-0.333,-0.236,0.206,-0.8302261873442796,-5.177993036103932,-6.933848047787802
1621785069706.467,-0.334233,-0.231342,0.20695899999999998,-0.834,-5.188,-6.933
1621785069710.681,-0.342,-0.202,0.213,-0.8390759991332074,-5.2900542983623815,-6.938343156982324
1621785069715.563,-0.36,-0.18,0.229,-0.8449569235055567,-5.408291830480141,-6.94453360369006
1621785069720.444,-0.368,-0.145,0.23,-0.8508366715165774,-5.52650571154382,-6.950722812122713
1621785069722.24,-0.3724153661464586,-0.13212184873949578,0.23404741896758705,-0.853,-5.57,-6.953
1621785069725.325,-0.38,-0.11,0.241,-0.8569126799814213,-5.66018727357176,-7.020102461681375
1621785069730.207,-0.382,-0.068,0.246,-0.8631046601641121,-5.8029124167827835,-7.126294921814523
1621785069735.087,-0.379,-0.031,0.262,-0.8692938535376993,-5.94557332404397,-7.232439588171544
1621785069738.009,-0.3664256340987543,-0.016629296112862076,0.2733768072439842,-0.873,-6.031,-7.296
1621785069739.967,-0.358,-0.007,0.281,-0.9424323901562669,-6.068759296256717,-7.336243460484133
1621785069744.846,-0.323,0.014,0.274,-1.1154419768000123,-6.16284679954777,-7.436520931096966
1621785069749.726,-0.278,0.028,0.276,-1.2884948504700398,-6.256957843547213,-7.536823491149003
1621785069753.773,-0.22989111289031225,0.04956605284227382,0.2718526821457166,-1.432,-6.335,-7.62
1621785069754.605,-0.22,0.054,0.271,-1.455280635717273,-6.329826525396162,-7.628763232492216
1621785069759.484,-0.155,0.072,0.264,-1.591794786003067,-6.299490047554874,-7.680149511284601
1621785069764.362,-0.091,0.091,0.244,-1.7282884427715042,-6.2691581238285545,-7.731528075963877
1621785069769.24,-0.026,0.115,0.22,-1.8647752683674892,-6.238827718140558,-7.782904069272115
1621785069769.534,-0.022625425425425425,0.11608468468468469,0.21885505505505506,-1.873,-6.237,-7.786
1621785069774.118,0.03,0.133,0.201,-1.7959120768456116,-6.24834501510574,-7.575099078162522
1621785069778.994,0.073,0.162,0.187,-1.7139137810829654,-6.260412688821752,-7.350764118057169
1621785069783.871,0.099,0.197,0.183,-1.6318949570067396,-6.272483383685801,-7.126372995584476
1621785069785.292,0.10220484581497798,0.20719723668402085,0.1835826992390869,-1.608,-6.276,-7.061
1621785069788.748,0.11,0.232,0.185,-1.51563056416615,-6.331948233106013,-6.839401115933044
1621785069793.624,0.105,0.255,0.194,-1.38531109733416,-6.4108828270303775,-6.5267582145071295
1621785069798.499,0.098,0.283,0.199,-1.2550177309361439,-6.489801611903285,-6.214177929324241
1621785069801.044,0.08442708333333333,0.29761698717948715,0.20422035256410256,-1.187,-6.531,-6.051
1621785069803.374,0.072,0.311,0.209,-1.1520836485397161,-6.567247907236312,-6.0480409871643825
1621785069808.249,0.058,0.316,0.22,-1.079031499968996,-6.6430859428287965,-6.0418501271160165
1621785069813.124,0.037,0.326,0.229,-1.0059793513982762,-6.718923978421281,-6.0356592670676505
1621785069816.793,0.028719695451813264,0.3380440793428171,0.23502203967140853,-0.951,-6.776,-6.031
1621785069817.998,0.026,0.342,0.237,-0.9953119573306871,-6.7835001240387,-6.091077524187546
1621785069822.872,0.035,0.333,0.239,-1.1745347928553709,-6.813834904490201,-6.334065306375589
1621785069827.746,0.049,0.323,0.232,-1.3537576283800545,-6.8441696849417015,-6.577053088563631
1621785069832.539,0.07949210882308733,0.2846389598677288,0.2093768224860965,-1.53,-6.874,-6.816
1621785069832.619,0.08,0.284,0.209,-1.5357209150833657,-6.872610345094998,-6.819479208995735
1621785069837.491,0.115,0.244,0.182,-1.8848541915471113,-6.787803148507173,-7.03180671578131
1621785069842.363,0.161,0.188,0.143,-2.2339874680108567,-6.702995951919348,-7.2441342225668865
1621785069847.236,0.215,0.127,0.105,-2.583190725087243,-6.618171756494765,-7.456504288483909
1621785069848.28,0.22700220540323793,0.11778402085108516,0.09664132123703072,-2.658,-6.6,-7.502
1621785069852.107,0.271,0.084,0.066,-2.681829948962971,-6.573738423591828,-7.451908474628857
1621785069856.978,0.321,0.037,0.031,-2.712162015419698,-6.540311248312985,-7.388149232893288
1621785069861.848,0.358,0.003,0.003,-2.7424864806167877,-6.506892449932519,-7.324405969315731
1621785069864.018,0.37047453889334403,-0.002791750200481155,-0.0036827886928628706,-2.756,-6.492,-7.296
1621785069866.719,0.386,-0.01,-0.012,-2.577459296731945,-6.520669516774774,-7.085527978647466
1621785069871.589,0.4,-0.019,-0.024,-2.255527637255206,-6.572364312094597,-6.706020080072003
1621785069876.459,0.394,-0.016,-0.021,-1.9336121163216535,-6.624056515936811,-6.326531206356104
1621785069879.751,0.3825058416486988,-0.0031535877250162964,-0.018295492152635012,-1.716,-6.659,-6.07
1621785069881.328,0.377,0.003,-0.017,-1.5626295744482726,-6.689473600893938,-5.991410187168265
1621785069886.196,0.353,0.035,-0.005,-1.0891497346121612,-6.78355064096595,-5.748790452245709
1621785069891.066,0.325,0.079,0.024,-0.615503678182326,-6.877660707080113,-5.506085544898656
1621785069895.482,0.29960060180541626,0.1307059177532598,0.04939939819458375,-0.186,-6.963,-5.286
1621785069895.934,0.297,0.136,0.052,-0.17021541900829013,-6.976254447790853,-5.313342689477443
1621785069900.801,0.269,0.215,0.098,-0.0003095755581084825,-7.118925839103301,-5.6076604620113635
1621785069905.669,0.23,0.291,0.157,0.1696303598596578,-7.261625857732791,-5.902037290030117
1621785069910.536,0.178,0.356,0.227,0.3395362033098394,-7.404297249045239,-6.196355062564039
1621785069911.208,0.16902222556692756,0.3630440999397953,0.23445845875978327,0.363,-7.424,-6.237
1621785069915.402,0.113,0.407,0.281,0.3915220679795231,-7.400495703239097,-6.98042242002183
1621785069920.274,0.038,0.44,0.319,0.424653092284278,-7.3731932850620305,-7.843976433150394
1621785069925.253,-0.012,0.469,0.328,0.45851298252086886,-7.3452902273670615,-8.726528201817091
1621785069927.089,-0.017900558987937628,0.48006354810238305,0.3331629891144454,0.471,-7.335,-9.052
1621785069930.232,-0.028,0.499,0.342,0.41921880692167574,-7.480768943533698,-9.333572449908925
1621785069935.21,-0.002,0.532,0.361,0.3372007437765634,-7.711657528840315,-9.77956501214329
1621785069940.189,0.07,0.574,0.368,0.25516659077109893,-7.942591408621736,-10.2256450667881
1621785069943.173,0.13353035206433264,0.600371089536138,0.3715960576640188,0.206,-8.081,-10.493
1621785069945.168,0.176,0.618,0.374,0.09041242183231132,-8.046894223180134,-10.521028747495599
1621785069950.147,0.305,0.639,0.394,-0.19808263007710522,-7.96176961022403,-10.590985702143161
1621785069955.125,0.429,0.641,0.398,-0.4865210976868436,-7.876661693279097,-10.66092893570518
1621785069959.258,0.5145000000000001,0.631868932038835,0.38471844660194177,-0.726,-7.806,-10.719
1621785069960.104,0.532,0.63,0.382,-0.726,-7.728641224502185,-10.651422823579408
1621785069965.083,0.616,0.611,0.365,-0.726,-7.273329574429335,-10.25368287093249
1621785069970.062,0.677,0.611,0.36,-0.726,-6.818017924356484,-9.855942918285574
1621785069975.04,0.721,0.627,0.37,-0.726,-6.362795577343371,-9.45828097680913
1621785069975.344,0.7225875429131927,0.6282822461991172,0.3710380088278568,-0.726,-6.335,-9.434
1621785069980.018,0.747,0.648,0.387,-0.6402925974262474,-5.9189559305572415,-8.83840618550443
1621785069984.998,0.744,0.672,0.401,-0.5489758255432803,-5.475682651450771,-8.203832008012625
1621785069989.976,0.724,0.684,0.415,-0.4576948676702683,-5.032583222046862,-7.569506707539153
1621785069991.432,0.7096728939884279,0.6851695596744141,0.415,-0.431,-4.903,-7.384
1621785069994.955,0.675,0.688,0.415,-0.32149006662720636,-4.595934146822686,-7.111320265901744
1621785069999.933,0.607,0.693,0.428,-0.166760142057096,-4.162071438328097,-6.72604275372217
1621785070004.913,0.536,0.709,0.429,-0.01196950932629115,-3.7280385041509203,-6.340614078222465
1621785070007.518,0.49779941147621387,0.7226056890632663,0.439465914664051,0.069,-3.501,-6.139
1621785070009.891,0.463,0.735,0.449,0.22802986886838275,-3.407027804759592,-6.023194390480816
1621785070014.869,0.41,0.759,0.466,0.5616162882467217,-3.209908556945119,-5.780276636109762
1621785070019.849,0.342,0.796,0.482,0.8953663186012628,-3.0126926299174355,-5.537239740165129
1621785070023.604,0.283162391485605,0.8276817892000589,0.4933149247143067,1.147,-2.864,-5.354
1621785070024.827,0.264,0.838,0.497,1.2051575552452647,-2.872894684919864,-5.320473879917436
1621785070029.806,0.169,0.866,0.511,1.4419443753035455,-2.909109139752307,-5.183973242472074
1621785070034.784,0.068,0.895,0.527,1.678684752914036,-2.9453164916221466,-5.047499377731909
1621785070039.69,-0.04040853359489947,0.9245659637077,0.53389872486513,1.912,-2.981,-4.913
1621785070039.762,-0.042,0.925,0.534,1.9107650717844402,-2.984156893959494,-4.917435305562926
1621785070044.89,-0.159,0.958,0.543,1.8228381828365907,-3.208927743875475,-5.23322906164323
1621785070050.016,-0.274,0.97,0.552,1.7349405972701275,-3.433623684443265,-5.548917573184752
1621785070055.143,-0.372,0.974,0.548,1.6470304531116415,-3.6583517290174226,-5.864651189528611
1621785070056.253,-0.38823262235764616,0.9716192153875453,0.5449699104932394,1.628,-3.707,-5.933
1621785070060.271,-0.447,0.963,0.534,1.3711734229256,-3.9827429821846954,-6.425311568896158
1621785070065.4,-0.504,0.932,0.508,1.043344237655276,-4.334718226426771,-7.0537282318789325
1621785070070.528,-0.527,0.878,0.478,0.7155618672914548,-4.6866432076389195,-7.682055155239232
1621785070072.821,-0.517609788611693,0.8632439535326605,0.462349647686155,0.569,-4.844,-7.963
1621785070075.656,-0.506,0.845,0.443,0.41964786740331483,-5.102500655616943,-8.202853023941069
1621785070080.785,-0.449,0.806,0.401,0.1494455248618784,-5.570170460405157,-8.636786224677717
1621785070085.916,-0.367,0.773,0.354,-0.1208725745856355,-6.038040618784531,-9.070905325966852
1621785070089.392,-0.31481388042650416,0.7492790365575019,0.31740194211728867,-0.304,-6.355,-9.365
1621785070091.045,-0.29,0.738,0.3,-0.344086904007895,-6.450829638685541,-9.393419820005597
1621785070096.176,-0.195,0.717,0.255,-0.46853394411630406,-6.748326169889971,-9.481647199186932
1621785070101.306,-0.105,0.71,0.202,-0.5929513779440574,-7.045751925881192,-9.569853588840937
1621785070105.967,-0.01871771086056799,0.707275296132439,0.16930355358926788,-0.706,-7.316,-9.65
1621785070106.438,-0.01,0.707,0.166,-0.6967957527649735,-7.307647997879328,-9.635795914760761
1621785070111.569,0.086,0.693,0.133,-0.5965128786651547,-7.216650575085048,-9.481038393001782
1621785070116.701,0.182,0.675,0.103,-0.4962156900284229,-7.125640163173939,-9.326258780908061
1621785070121.834,0.283,0.653,0.082,-0.39589464383016953,-7.034608102734784,-9.171442351589768
1621785070122.545,0.29560366230677765,0.6498144589774079,0.07964546967895363,-0.382,-7.022,-9.15
1621785070126.967,0.374,0.63,0.065,-0.2252490396644345,-6.726359158142616,-8.762921097946869
1621785070132.1,0.44,0.618,0.054,-0.04329746118183825,-6.383188578997719,-8.313612098020458
1621785070137.233,0.469,0.592,0.045,0.1386454632423283,-6.0400343218779895,-7.864324468319965
1621785070139.133,0.4671494602691521,0.5853380569689476,0.045,0.206,-5.913,-7.698
1621785070142.367,0.464,0.574,0.045,0.2613703856343833,-5.685474506917869,-7.476323491315867
1621785070147.501,0.452,0.571,0.042,0.34927494848395646,-5.324261039152193,-7.124395716808949
1621785070152.636,0.412,0.557,0.052,0.4371962319693848,-4.962978863703268,-6.772401000883132
1621785070155.72,0.3639535967289497,0.5527959397137832,0.05740522036799315,0.49,-4.746,-6.561
1621785070157.771,0.332,0.55,0.061,0.4997638621217248,-4.696315537051476,-6.493023744722169
1621785070162.907,0.223,0.538,0.068,0.5242136142291792,-4.571900342783164,-6.322803951569005
1621785070168.043,0.126,0.536,0.075,0.5486633663366336,-4.447485148514851,-6.152584158415841
1621785070172.315,0.06028996529923468,0.524355183723915,0.0841494985026382,0.569,-4.344,-6.011
1621785070173.179,0.047,0.522,0.086,0.5648874260833749,-4.370028948839399,-6.014071415963049
1621785070178.315,-0.031,0.503,0.091,0.5404409108293371,-4.524753728928246,-6.032328940013533
1621785070183.452,-0.115,0.49,0.101,0.5159897472860463,-4.679507928569327,-6.050589935571181
1621785070188.59,-0.183,0.471,0.093,0.4915327733811891,-4.834298902650702,-6.068855270512783
1621785070188.912,-0.18638446186742694,0.47012254692325967,0.09287464956046566,0.49,-4.844,-6.07
1621785070193.728,-0.237,0.457,0.091,0.4473551480212362,-4.9609107166492645,-6.203736576613674
1621785070198.866,-0.283,0.45,0.075,0.4018588025942321,-5.085638792887922,-6.346415591864347
1621785070204.004,-0.312,0.436,0.063,0.356362457167228,-5.210366869126579,-6.489094607115019
1621785070205.513,-0.31405504892182007,0.42777980431271967,0.058889902156359836,0.343,-5.247,-6.531
1621785070209.144,-0.319,0.408,0.049,0.3558986344460614,-5.291817289176993,-6.6232580294277605
1621785070214.283,-0.321,0.394,0.031,0.37415341535476476,-5.355244917758081,-6.753826123384927
1621785070219.423,-0.314,0.368,0.014,0.39241253252193853,-5.418687612999956,-6.884425232614544
1621785070222.122,-0.3113739845123284,0.35434471946410756,0.006647156634519456,0.402,-5.452,-6.953
1621785070224.562,-0.309,0.342,0.0,0.41786302577819584,-5.457875194732665,-6.944334087769319
1621785070229.704,-0.309,0.314,-0.014,0.4512937891302431,-5.470256958937127,-6.926070985567738
1621785070234.844,-0.311,0.272,-0.023,0.4847102671879134,-5.48263343229182,-6.907815687369566
1621785070238.734,-0.31629536606210235,0.24325372709144433,-0.03888609818630709,0.51,-5.492,-6.894
1621785070239.986,-0.318,0.234,-0.044,0.5232641354178912,-5.5052641354178915,-6.873274788409545
1621785070245.128,-0.332,0.201,-0.052,0.577730104619725,-5.559730104619725,-6.78817171153168
1621785070250.27,-0.356,0.173,-0.068,0.6321986599271189,-5.614198659927119,-6.703064593863877
1621785070255.349,-0.3866202639825278,0.13447773240907795,-0.07293875225524642,0.686,-5.668,-6.619
1621785070255.412,-0.387,0.134,-0.073,0.6859279827229054,-5.669300101370708,-6.6193752479174925
1621785070260.555,-0.417,0.105,-0.082,0.6800479674438421,-5.775449850882219,-6.650013222266296
1621785070265.699,-0.438,0.075,-0.098,0.6741665564811142,-5.881624796156728,-6.680658468861563
1621785070270.843,-0.45,0.052,-0.11,0.6682851455183864,-5.987799741431237,-6.711303715456829
1621785070271.967,-0.4489074513526341,0.04741129568106312,-0.11262211675367821,0.667,-6.011,-6.718
1621785070275.987,-0.445,0.031,-0.122,0.6955418729342637,-6.136777745134044,-6.853211076019097
1621785070281.131,-0.422,-0.002,-0.119,0.7320642379728242,-6.297723760558208,-7.026228042600073
1621785070286.276,-0.391,-0.033,-0.126,0.7685918031582814,-6.458692691883951,-7.199269643775248
1621785070288.587,-0.37752462750308435,-0.046475372496915635,-0.12914425358261364,0.785,-6.531,-7.277
1621785070291.421,-0.361,-0.063,-0.133,0.7614730348960169,-6.586237222418047,-7.325417812242979
1621785070296.567,-0.314,-0.096,-0.141,0.7187523792738809,-6.686537892139584,-7.413335683233463
1621785070301.713,-0.244,-0.138,-0.145,0.6760317236517448,-6.7868385618611216,-7.501253554223945
1621785070305.21,-0.2018765830289807,-0.1651763980458189,-0.14839704975572734,0.647,-6.855,-7.561
1621785070306.86,-0.182,-0.178,-0.15,0.6489846431665027,-6.864724751515864,-7.530833423869159
1621785070312.007,-0.108,-0.208,-0.154,0.6551749445773934,-6.895057228429228,-7.436740842423619
1621785070317.154,-0.047,-0.253,-0.159,0.6613652459882842,-6.925389705342592,-7.3426482609780805
1621785070321.839,0.004874703594802243,-0.2721117329033482,-0.15717983496158588,0.667,-6.953,-7.257
1621785070322.302,0.01,-0.274,-0.157,0.6743745083074033,-6.953,-7.240887395056655
1621785070327.45,0.052,-0.284,-0.155,0.756388686667058,-6.953,-7.061694152527447
1621785070332.598,0.077,-0.295,-0.145,0.8384028650267129,-6.953,-6.882500909998239
1621785070337.746,0.094,-0.295,-0.134,0.9204209328949686,-6.953,-6.703299169259672
1621785070338.473,0.09569356215037451,-0.2926007869536361,-0.13188304731203188,0.932,-6.953,-6.678
1621785070342.896,0.106,-0.278,-0.119,0.926684134855198,-6.947684134855198,-6.623246589008539
1621785070348.046,0.113,-0.272,-0.103,0.9204947624776268,-6.941494762477626,-6.559496053519556
1621785070353.196,0.119,-0.258,-0.089,0.9143050966814354,-6.935305096681435,-6.495742495818785
1621785070355.114,0.12197942542903195,-0.25613785910685505,-0.08378600549919409,0.912,-6.933,-6.472
1621785070358.346,0.127,-0.253,-0.075,0.8795701041513863,-6.898822385213437,-6.512003344579727
1621785070363.497,0.148,-0.258,-0.065,0.8278826609945724,-6.844349391227812,-6.575761507994719
1621785070368.648,0.176,-0.269,-0.051,0.7761976675957166,-6.7898789790230305,-6.639516649552589
1621785070371.757,0.18746807905587942,-0.269,-0.04677491824257073,0.745,-6.757,-6.678
1621785070373.799,0.195,-0.269,-0.044,0.7750527967617986,-6.7172567095884785,-6.66597888129528
1621785070378.951,0.223,-0.265,-0.042,0.8508746663537969,-6.616986155515795,-6.635650133458482
1621785070384.104,0.251,-0.274,-0.031,0.926714501510574,-6.516691842900302,-6.60531419939577
1621785070388.404,0.27186156251480553,-0.274,-0.022655374994077795,0.99,-6.433,-6.58
1621785070389.257,0.276,-0.274,-0.021,0.9980431365649101,-6.415428051963286,-6.547878683909563
1621785070394.41,0.29,-0.269,-0.014,1.0466288378639923,-6.309282220462743,-6.353845341778833
1621785070399.563,0.279,-0.264,-0.009,1.0952168411483534,-6.20313135978417,-6.159802806369315
1621785070404.718,0.26,-0.258,0.002,1.1438232603149467,-6.096940265681358,-5.965686724729481
1621785070405.055,0.257515986926247,-0.25793463123490123,0.002196106295296291,1.147,-6.09,-5.953
1621785070409.872,0.222,-0.257,0.005,1.0677601975757398,-6.115449279610711,-5.808112624034473
1621785070415.026,0.169,-0.264,0.01,0.9829823237134858,-6.142677209902238,-5.653099066352031
1621785070420.181,0.113,-0.272,0.012,0.8981843698242631,-6.1699115892535215,-5.498048792999839
1621785070421.712,0.09607462474548985,-0.2776417917515034,0.012,0.873,-6.178,-5.452
1621785070425.337,0.056,-0.291,0.012,0.7811683667487396,-6.291157462774065,-5.609985226873022
1621785070430.493,0.003,-0.314,0.005,0.6505519697502637,-6.452106577558917,-5.8346949525149485
1621785070435.649,-0.038,-0.344,0.0,0.519935572751788,-6.613055692343769,-6.059404678156876
1621785070438.37,-0.054888678441214075,-0.3587775936360623,-0.007388796818031156,0.451,-6.698,-6.178
1621785070440.805,-0.07,-0.372,-0.014,0.4181186055712674,-6.753825300763449,-6.480362689213545
1621785070445.963,-0.101,-0.408,-0.037,0.3484620107556819,-6.8720867195170205,-7.120893776651085
1621785070451.12,-0.124,-0.429,-0.07,0.27881530706446084,-6.990331345339449,-7.761333909705025
1621785070455.031,-0.1262746722203815,-0.429,-0.082131585175368,0.226,-7.08,-8.247
1621785070456.278,-0.127,-0.429,-0.086,0.1290988515176374,-7.084414801359428,-8.407728700339858
1621785070461.436,-0.106,-0.443,-0.108,-0.2716902173913044,-7.102674689440994,-9.072512422360248
1621785070466.595,-0.082,-0.466,-0.141,-0.6725551681706317,-7.120938034688855,-9.737422008672214
1621785070471.697,-0.052330793620746774,-0.521382518574606,-0.19638251857460604,-1.069,-7.139,-10.395
1621785070471.754,-0.052,-0.522,-0.197,-1.0700373147443032,-7.138164006209361,-10.396037314744303
1621785070476.913,-0.01,-0.606,-0.262,-1.164116864858532,-7.062343316150196,-10.490116864858532
1621785070482.073,0.054,-0.689,-0.319,-1.2582097709565931,-6.986511862222483,-10.584209770956592
1621785070487.233,0.145,-0.738,-0.367,-1.352302677054654,-6.910680408294769,-10.678302677054655
1621785070488.368,0.1652321665089877,-0.7456970198675497,-0.37645633869441814,-1.373,-6.894,-10.699
1621785070492.394,0.237,-0.773,-0.41,-1.2262008608951553,-6.676215750867484,-10.51912276540607
1621785070497.554,0.33,-0.799,-0.452,-1.0380618878200905,-6.397101682259411,-10.288590635569026
1621785070502.717,0.41,-0.81,-0.497,-0.8498071916955828,-6.117815932416802,-10.057916706929621
1621785070505.043,0.4343369128151757,-0.8185629878423767,-0.5114218742608448,-0.765,-5.992,-9.954
1621785070507.878,0.464,-0.829,-0.529,-0.6832385197546587,-5.790231024841538,-9.697326746007349
1621785070513.04,0.48,-0.833,-0.555,-0.5343610879334826,-5.422834950887825,-9.229956845695549
1621785070518.202,0.454,-0.845,-0.583,-0.3854906972318592,-5.055456252836209,-8.762609049522053
1621785070521.721,0.4315121974281392,-0.8415927571860816,-0.5939031770045385,-0.284,-4.805,-8.444
1621785070523.366,0.421,-0.84,-0.599,-0.29366318377381684,-4.753824567565194,-8.315321889542542
1621785070528.529,0.384,-0.838,-0.604,-0.32399221471010037,-4.593204495565897,-7.911450610237949
1621785070533.692,0.356,-0.827,-0.602,-0.354319811514034,-4.432592018614452,-7.507598428308017
1621785070538.404,0.34140015128593043,-0.8178750945537064,-0.6120373959909229,-0.382,-4.286,-7.139
