time,gyro_x,gyro_y,gyro_z,acc_x,acc_y,acc_z
1621784748723.666,,,,1.236,-5.286,-8.689
1621784748742.412,,,,1.226,-5.286,-8.591
1621784748760.132,0.463,-1.127,-0.3,1.0985702660446997,-5.312974177260611,-8.253357712220627
1621784748761.463,0.4643424455116365,-1.118945326930181,-0.29888129540696956,1.089,-5.315,-8.228
1621784748766.08,0.469,-1.091,-0.295,1.0983029779397853,-5.298779423079349,-8.192934929303886
1621784748772.057,0.489,-1.061,-0.283,1.110345395608138,-5.277782387144785,-8.147544278092402
1621784748778.062,0.496,-1.028,-0.272,1.1224448746894038,-5.256685859515911,-8.101938549247631
1621784748780.819,0.5023949358896574,-1.0138397848157585,-0.2683457509201958,1.128,-5.247,-8.081
1621784748784.098,0.51,-0.997,-0.264,1.1556862511332164,-5.243664307092383,-8.05481481067521
1621784748790.163,0.527,-0.974,-0.246,1.2069006619226805,-5.237493896153894,-8.006377084808067
1621784748796.257,0.538,-0.944,-0.239,1.2583583324019225,-5.231294176819046,-7.957709288029507
1621784748800.478,0.5401232601932209,-0.9234751514655314,-0.22696819223841494,1.294,-5.227,-7.924
1621784748802.221,0.541,-0.915,-0.222,1.3072069011743257,-5.228914043648453,-7.914621186122581
1621784748807.85,0.552,-0.894,-0.208,1.349861547536061,-5.235095876454502,-7.884330205372942
1621784748813.485,0.562,-0.855,-0.188,1.39256059306129,-5.241284143921926,-7.854007694782562
1621784748818.69,0.5684589049989179,-0.8282416792901969,-0.17415948928803288,1.432,-5.247,-7.826
1621784748819.126,0.569,-0.826,-0.173,1.4310695307177492,-5.2465228362655125,-7.8238766213815305
1621784748824.772,0.565,-0.787,-0.159,1.4190213601570953,-5.240344287260049,-7.796382078307217
1621784748830.425,0.562,-0.744,-0.152,1.406958081192642,-5.234157990355201,-7.768853057080645
1621784748836.084,0.552,-0.705,-0.138,1.3948822987215965,-5.227965281395691,-7.741295502210823
1621784748836.966,0.5481080230954843,-0.6969046880386074,-0.13613185108583248,1.393,-5.227,-7.737
1621784748841.75,0.527,-0.653,-0.126,1.3520422968367238,-5.270566474065396,-7.716651586963468
1621784748847.42,0.508,-0.616,-0.113,1.303499214506337,-5.322201472467782,-7.692534641601874
1621784748853.097,0.489,-0.572,-0.099,1.254895516029396,-5.373900947917776,-7.668387581212056
1621784748855.304,0.48084606133493685,-0.5580218194313203,-0.09434060647710678,1.236,-5.394,-7.659
1621784748858.781,0.468,-0.536,-0.087,1.178556580117021,-5.469961364450518,-7.6794075307479
1621784748864.47,0.443,-0.49,-0.079,1.0845707234878137,-5.594245293282563,-7.712797242971435
1621784748870.164,0.424,-0.45,-0.065,0.9905001658462804,-5.718641228058537,-7.746217046344085
1621784748873.705,0.41406362663241275,-0.43509543994861916,-0.056926696638835365,0.932,-5.796,-7.767
1621784748875.866,0.408,-0.426,-0.052,0.875703969639268,-5.847614447794351,-7.801409631862901
1621784748881.573,0.4,-0.412,-0.049,0.727022916005501,-5.983931172643605,-7.89228744842907
1621784748887.287,0.396,-0.384,-0.04,0.5781574103459219,-6.120417010472866,-7.9832780069819105
1621784748892.168,0.39941320585599044,-0.3703471765760382,-0.03402688975201673,0.451,-6.237,-8.061
1621784748893.007,0.4,-0.368,-0.033,0.43632416083501363,-6.255208911556557,-8.066344904387249
1621784748898.731,0.41,-0.349,-0.024,0.3362150397343139,-6.379418376625944,-8.102804399109107
1621784748904.463,0.428,-0.328,-0.017,0.23596501008184084,-6.503802672676235,-8.139315212377602
1621784748910.2,0.442,-0.316,-0.009,0.13562531135096667,-6.628298224805282,-8.175858682903042
1621784748910.693,0.4440605236314179,-0.3149697381842911,-0.008656579394763685,0.127,-6.639,-8.179
1621784748915.944,0.466,-0.304,-0.005,-0.04730825408501024,-6.683353964167499,-8.23154673461882
1621784748921.693,0.489,-0.3,-0.003,-0.23814937214311982,-6.731914832133663,-8.289077444438608
1621784748927.449,0.517,-0.304,0.002,-0.4292174118636053,-6.780533441916671,-8.346676561761152
1621784748929.28,0.5284401932121521,-0.304317783144782,0.0029533494343460024,-0.49,-6.796,-8.365
1621784748933.211,0.553,-0.305,0.005,-0.5871501249950918,-6.80021475596508,-8.34856245173619
1621784748938.979,0.578,-0.311,0.012,-0.7297045534861196,-6.8063993298692465,-8.324442613509941
1621784748944.752,0.597,-0.318,0.017,-0.8723796578668377,-6.812589139169928,-8.300302357237282
1621784748947.933,0.6025036958817318,-0.318,0.02085258711721225,-0.951,-6.816,-8.287
1621784748950.532,0.607,-0.318,0.024,-1.0014087742642455,-6.802391019620121,-8.23922970152369
1621784748956.318,0.613,-0.326,0.035,-1.113638736693801,-6.7720920214986435,-8.1328740346483
1621784748962.111,0.611,-0.351,0.033,-1.2260012914840326,-6.741757227092465,-8.026392715508244
1621784748966.648,0.6133475240020212,-0.37525774802088596,0.03456501600134748,-1.314,-6.718,-7.943
1621784748967.909,0.614,-0.382,0.035,-1.3410024969438448,-6.7001998465419925,-7.9035038104403466
1621784748973.712,0.632,-0.415,0.031,-1.4652662626472808,-6.618284677608136,-7.721744869560694
1621784748979.522,0.653,-0.45,0.026,-1.5896816396597915,-6.536269565895909,-7.539764168855828
1621784748985.331,0.661,-0.492,0.031,-1.714076104767602,-6.454268239394492,-7.35781405571306
1621784748985.421,0.661092718568909,-0.49238632737045435,0.03092273452590913,-1.716,-6.453,-7.355
1621784748991.145,0.667,-0.517,0.026,-1.7637663989203638,-6.312743249030015,-7.098521819809767
1621784748996.965,0.654,-0.545,0.016,-1.812333454446362,-6.170135525479154,-6.8377445726224
1621784749002.791,0.646,-0.576,0.002,-1.8609494050322464,-6.0273842310836585,-6.57670478699246
1621784749004.235,0.6378287424648359,-0.5794665941058271,-0.00022852478231748198,-1.873,-5.992,-6.512
1621784749008.623,0.613,-0.59,-0.007,-1.8365054190377652,-5.955505419037765,-6.409257294361097
1621784749014.461,0.572,-0.595,-0.019,-1.787951564924987,-5.906951564924987,-6.272564278323848
1621784749020.303,0.527,-0.592,-0.028,-1.739363191929643,-5.858363191929643,-6.135774081738231
1621784749023.112,0.5044316834988732,-0.5843171688506802,-0.031361238627827394,-1.716,-5.835,-6.07
1621784749026.153,0.48,-0.576,-0.035,-1.6891863157080615,-5.853946196086519,-6.076422439351362
1621784749032.008,0.429,-0.56,-0.051,-1.6375609322230529,-5.890424011962154,-6.088787800665138
1621784749037.869,0.38,-0.545,-0.054,-1.5858838846064605,-5.926938333032561,-6.101165536621207
1621784749042.052,0.3429118761187196,-0.5407206010906215,-0.057566165757815424,-1.549,-5.953,-6.11
1621784749043.734,0.328,-0.539,-0.059,-1.5368702318527656,-5.976374151758174,-6.131691921139215
1621784749049.607,0.279,-0.524,-0.063,-1.4945137646514497,-6.057995373226404,-6.20743888803208
1621784749055.485,0.241,-0.517,-0.075,-1.4521203218178078,-6.13968784700802,-6.283251979230927
1621784749061.048,0.21736307053941908,-0.5103816597510373,-0.07878190871369295,-1.412,-6.217,-6.355
1621784749061.369,0.216,-0.51,-0.079,-1.410013809005316,-6.221292192403766,-6.360773419586243
1621784749067.258,0.202,-0.508,-0.086,-1.3735519374879908,-6.300086914750528,-6.466760046115417
1621784749073.154,0.197,-0.504,-0.093,-1.3370477422660603,-6.3789730993402936,-6.572869698328317
1621784749079.055,0.195,-0.51,-0.098,-1.3005133158265547,-6.457924614103632,-6.679067226029591
1621784749080.107,0.19606839125583703,-0.5080412826976322,-0.09728773916277532,-1.294,-6.472,-6.698
1621784749084.963,0.201,-0.499,-0.094,-1.2020577689243028,-6.519495019920319,-6.742701195219124
1621784749090.876,0.201,-0.487,-0.093,-1.0900999591378078,-6.57732957911942,-6.79713372152416
1621784749096.793,0.204,-0.476,-0.08,-0.9780681887833282,-6.635202344468281,-6.851602206558382
1621784749099.226,0.20687453129506778,-0.4739467633606658,-0.07876805801639952,-0.932,-6.659,-6.874
1621784749102.718,0.211,-0.471,-0.077,-0.9015955881416988,-6.6803012945354565,-6.870540815417319
1621784749108.649,0.216,-0.461,-0.063,-0.8499550667634068,-6.716480581968152,-6.864665546517992
1621784749114.585,0.22,-0.456,-0.051,-0.7982699049146523,-6.752691144460992,-6.858785198762745
1621784749118.406,0.22128634831922414,-0.44570921344620695,-0.040709213446206954,-0.765,-6.776,-6.855
1621784749120.526,0.222,-0.44,-0.035,-0.7703982998160249,-6.78040677536002,-6.846296618663961
1621784749126.474,0.23,-0.436,-0.021,-0.785545619488676,-6.79277193427647,-6.821875429803971
1621784749132.427,0.234,-0.429,-0.007,-0.8007047516335722,-6.805146736027406,-6.797435196345873
1621784749137.648,0.24889206128133706,-0.4184879567425856,0.00526405046698345,-0.814,-6.816,-6.776
1621784749138.387,0.251,-0.417,0.007,-0.8200107380003794,-6.813741187630431,-6.776
1621784749144.352,0.264,-0.414,0.019,-0.8685275406311262,-6.795508758616328,-6.776
1621784749150.323,0.278,-0.4,0.03,-0.9170920002529563,-6.777258420287105,-6.776
1621784749156.299,0.293,-0.407,0.033,-0.9656981597419845,-6.758992411307152,-6.776
1621784749156.951,0.29496147253285443,-0.4052564688596849,0.03496147253285446,-0.971,-6.757,-6.776
1621784749162.281,0.311,-0.391,0.051,-0.9653911932073629,-6.707362059885162,-6.765062826754358
1621784749168.27,0.321,-0.387,0.059,-0.9590889927937417,-6.651587586224614,-6.752773535947797
1621784749174.0,0.337,-0.37,0.072,-0.953059371347095,-6.5982254364217905,-6.7410157741268355
1621784749175.957,0.33631679877269244,-0.36214318588596267,0.07473280490923037,-0.951,-6.58,-6.737
1621784749179.729,0.335,-0.347,0.08,-0.9271718647016951,-6.570020695473359,-6.70502549365954
1621784749185.458,0.344,-0.321,0.094,-0.8909808599825999,-6.554863778967071,-6.656461495874087
1621784749191.188,0.347,-0.298,0.105,-0.8547836861669874,-6.539704278822072,-6.607889219899291
1621784749194.478,0.3504456660700588,-0.28708872411148045,0.11476272053183328,-0.834,-6.531,-6.58
1621784749196.917,0.353,-0.279,0.122,-0.834,-6.520727371002188,-6.555503730851372
1621784749202.647,0.358,-0.251,0.138,-0.834,-6.496593376750073,-6.497953436865558
1621784749208.375,0.353,-0.239,0.157,-0.834,-6.472467608827484,-6.440422759511693
1621784749212.997,0.3473534725181082,-0.2107673625905411,0.16587311461440138,-0.834,-6.453,-6.394
1621784749214.105,0.346,-0.204,0.168,-0.842195222904748,-6.447137723761568,-6.389274287522079
1621784749219.835,0.333,-0.18,0.18,-0.8845799477999525,-6.416818723471567,-6.3648334607576915
1621784749225.565,0.314,-0.15,0.195,-0.9269646726951569,-6.386499723181567,-6.340392633993304
1621784749231.295,0.295,-0.138,0.204,-0.9693493975903614,-6.356180722891566,-6.315951807228916
1621784749231.518,0.29406504134344896,-0.13745460745034524,0.20427269627482736,-0.971,-6.355,-6.315
1621784749237.023,0.271,-0.124,0.211,-1.040847618043289,-6.4016641533310485,-6.356016899106272
1621784749242.753,0.25,-0.099,0.222,-1.1135513432284938,-6.4502364293058445,-6.398711001555457
1621784749248.483,0.239,-0.08,0.23,-1.1862550684136985,-6.4988087052806405,-6.44140510400464
1621784749250.039,0.23764209629314018,-0.07782735406902429,0.23244422667234768,-1.206,-6.512,-6.453
1621784749254.213,0.234,-0.072,0.239,-1.2215487833812246,-6.598081670313447,-6.494914111723302
1621784749259.942,0.23,-0.052,0.239,-1.242891071099043,-6.716237524055572,-6.552445496006117
1621784749265.672,0.243,-0.03,0.251,-1.2642379063084912,-6.83441855376585,-6.609989138744629
1621784749268.561,0.2535858822527051,-0.01941411774729488,0.25805725483513675,-1.275,-6.894,-6.639
1621784749271.403,0.264,-0.009,0.265,-1.2960226068387335,-6.946633241939311,-6.598335833487122
1621784749277.133,0.286,0.003,0.272,-1.3384073317339378,-7.052749742954312,-6.516350781682529
1621784749282.863,0.311,0.016,0.281,-1.3807920566291423,-7.158866243969313,-6.434365729877936
1621784749287.082,0.3198371260547175,0.02851926191084974,0.2927828347396233,-1.412,-7.237,-6.374
1621784749288.592,0.323,0.033,0.297,-1.4218950608077876,-7.214023333378527,-6.359241265235842
1621784749294.152,0.333,0.044,0.318,-1.4583300025760266,-7.129420163509904,-6.304897623276434
1621784749299.71,0.339,0.056,0.326,-1.4947505457109156,-7.04485042775601,-6.250575457244736
1621784749305.089,0.345779682623412,0.07440199569211833,0.3366537869796475,-1.53,-6.963,-6.198
1621784749305.264,0.346,0.075,0.337,-1.5312382314092352,-6.959080558846358,-6.198
1621784749310.815,0.361,0.087,0.339,-1.5705589961463569,-6.834616405898934,-6.198
1621784749316.362,0.37,0.108,0.337,-1.609852090907853,-6.710239838228686,-6.198
1621784749321.906,0.386,0.131,0.335,-1.6491227038141536,-6.585934433596144,-6.198
1621784749323.018,0.3880066079295154,0.1314013215859031,0.3331940528634361,-1.657,-6.561,-6.198
1621784749327.448,0.396,0.133,0.326,-1.730023587350959,-6.471143856920684,-6.261122083981338
1621784749332.986,0.393,0.147,0.305,-1.8213141387683829,-6.358810059752804,-6.340034255545552
1621784749338.52,0.396,0.155,0.283,-1.912536274590052,-6.246560448555292,-6.418887288204961
1621784749340.914,0.40076040425438014,0.15889487620812923,0.27088260735248687,-1.952,-6.198,-6.453
1621784749344.052,0.407,0.164,0.255,-1.9484866674867085,-6.198,-6.421907007257371
1621784749349.581,0.435,0.171,0.227,-1.9422961717714269,-6.198,-6.367121120177129
1621784749355.106,0.454,0.176,0.201,-1.9361103229598042,-6.198,-6.312376358194268
1621784749358.777,0.45998236230218376,0.1819823623021837,0.1810587923260543,-1.932,-6.198,-6.276
1621784749360.629,0.463,0.185,0.171,-1.9533939891832683,-6.176606010816732,-6.2342505647977
1621784749366.147,0.48,0.185,0.14,-2.017144410214281,-6.1128555897857195,-6.109844403368248
1621784749371.663,0.483,0.185,0.112,-2.080872266721435,-6.049127733278565,-5.985482275621277
1621784749376.608,0.478514461620233,0.18948553837976703,0.08688098507330469,-2.138,-5.992,-5.874
1621784749377.175,0.478,0.19,0.084,-2.1417602919187346,-5.98887704569461,-5.863069659931135
1621784749382.685,0.466,0.187,0.058,-2.1782932356612754,-5.958536126315212,-5.756876442103241
1621784749388.191,0.436,0.176,0.024,-2.2147986611246004,-5.9282180610999085,-5.650763213849678
1621784749393.693,0.4,0.176,0.005,-2.251279805753323,-5.897920161323511,-5.544720564632289
1621784749394.405,0.39430468750000003,0.17690607244318182,0.0018934659090909089,-2.256,-5.894,-5.531
1621784749399.193,0.356,0.183,-0.019,-2.2400971399513474,-5.899121260015668,-5.531
1621784749404.69,0.309,0.187,-0.037,-2.221840312804937,-5.905000577232308,-5.531
1621784749410.184,0.262,0.18,-0.056,-2.203592405272055,-5.910877022031033,-5.531
1621784749412.169,0.2417536354338062,0.1781922888780184,-0.06286930226353003,-2.197,-5.913,-5.531
1621784749415.674,0.206,0.175,-0.075,-2.181382101842417,-5.944038101401779,-5.595053151937429
1621784749421.16,0.152,0.176,-0.089,-2.1569386824929087,-5.992615529729283,-5.695302112307565
1621784749426.644,0.099,0.155,-0.105,-2.132502877915783,-6.0411778249015455,-5.795519842471979
1621784749429.899,0.07346432071269487,0.155,-0.11093853006681514,-2.118,-6.07,-5.855
1621784749432.125,0.056,0.155,-0.115,-2.0871836227945537,-6.118174173345657,-5.920280407222966
1621784749437.602,0.021,0.14,-0.12,-2.0113627622739374,-6.236702294077886,-6.080896842366639
1621784749443.075,0.0,0.138,-0.131,-1.9355993571615786,-6.355140596763737,-6.241391565849554
1621784749447.597,-0.0024790755777638973,0.1322154903185509,-0.131,-1.873,-6.453,-6.374
1621784749448.547,-0.003,0.131,-0.131,-1.838737921503593,-6.475644168048646,-6.390351133222775
1621784749454.015,-0.021,0.129,-0.131,-1.6415813156440022,-6.605947042564953,-6.484441569928137
1621784749459.479,-0.042,0.127,-0.126,-1.4445567578772802,-6.736162645107794,-6.578468988391377
1621784749464.941,-0.049,0.129,-0.115,-1.2476114289662799,-6.866325884466556,-6.672458595909342
1621784749465.263,-0.049826145311381534,0.1292360415175376,-0.11405583392984968,-1.236,-6.874,-6.678
1621784749470.398,-0.063,0.133,-0.099,-1.064445889244319,-7.045554110755681,-6.789553861493083
1621784749475.854,-0.073,0.129,-0.08,-0.8821660781299765,-7.227833921870023,-6.908082159721934
1621784749481.306,-0.084,0.117,-0.061,-0.7000249262598147,-7.409975073740185,-7.026520294129866
1621784749482.893,-0.08487382947264663,0.11175702316412026,-0.05226170527353376,-0.647,-7.463,-7.061
1621784749486.755,-0.087,0.099,-0.031,-0.5954269600566061,-7.54683362237607,-7.237445634529739
1621784749492.2,-0.072,0.082,-0.016,-0.5227102126892074,-7.665037015969033,-7.4862297404164995
1621784749497.643,-0.045,0.061,0.0,-0.4500195485383687,-7.783198010461034,-7.7349246084049
1621784749500.49,-0.019870791056837568,0.05000597108736644,0.005235251863158839,-0.412,-7.845,-7.865
1621784749503.081,0.003,0.04,0.01,-0.42070425922321997,-7.817559453974256,-7.888162181322806
1621784749508.517,0.065,0.028,0.014,-0.4389657343823848,-7.759989379743668,-7.936756276237872
1621784749513.95,0.141,0.002,0.026,-0.4572165475826406,-7.702452917790319,-7.985321999499569
1621784749518.053,0.19692678868552413,-0.007069208976030939,0.02448846517066151,-0.471,-7.659,-8.022
1621784749519.379,0.215,-0.01,0.024,-0.47243010186404266,-7.62723668491442,-7.932656267756912
1621784749524.806,0.279,-0.024,0.021,-0.4782834869378421,-7.4972299216963485,-7.566973737093757
1621784749530.273,0.34,-0.024,0.024,-0.484180056822119,-7.366264001108724,-7.198593292218142
1621784749535.669,0.37358216025383206,-0.023012289404299058,0.025975421191401886,-0.49,-7.237,-6.835
1621784749535.736,0.374,-0.023,0.026,-0.49,-7.235322010681573,-6.82966543985389
1621784749541.198,0.394,-0.003,0.035,-0.49,-7.098813003293024,-6.395684423167391
1621784749546.657,0.389,0.007,0.038,-0.49,-6.9623772172565515,-5.961936187287268
1621784749552.113,0.372,0.028,0.047,-0.49,-6.826014652572156,-5.528420732213521
1621784749553.314,0.3634107454667562,0.03570830535034699,0.050083322140138796,-0.49,-6.796,-5.433
1621784749557.566,0.333,0.063,0.061,-0.45935162398847135,-6.727463474115952,-5.267209178583306
1621784749563.018,0.283,0.089,0.077,-0.42005215608025714,-6.639581199423567,-5.054620718323911
1621784749568.467,0.22,0.136,0.098,-0.38077556534752244,-6.551750083139341,-4.842156010974393
1621784749570.933,0.18603868740754023,0.1495845250369839,0.10569789752095755,-0.363,-6.512,-4.746
1621784749573.913,0.145,0.166,0.115,-0.35639282145236506,-6.50522340661781,-4.769379247168555
1621784749579.357,0.066,0.199,0.127,-0.34432278481012657,-6.49284388185654,-4.812088607594937
1621784749584.797,-0.003,0.244,0.14,-0.3322608677548301,-6.480472684876749,-4.8547692371752165
1621784749588.523,-0.04752666307568005,0.2679758955022893,0.1495903582009157,-0.324,-6.472,-4.884
1621784749590.236,-0.068,0.279,0.154,-0.33160830159303845,-6.478730420639996,-4.94906073285329
1621784749595.672,-0.122,0.318,0.166,-0.3557505907865106,-6.500087061080375,-5.15550825711029
1621784749601.105,-0.162,0.351,0.169,-0.3798787845088827,-6.5214312324501655,-5.361835247018266
1621784749606.086,-0.18950831460674158,0.37208970786516854,0.17541860674157303,-0.402,-6.541,-5.551
1621784749606.537,-0.192,0.374,0.176,-0.40377514199799536,-6.5480748412963585,-5.568133979284998
1621784749611.964,-0.215,0.394,0.185,-0.4251277564316739,-6.633175840850875,-5.774233127297026
1621784749617.39,-0.223,0.41,0.185,-0.4464755679919813,-6.718257698518766,-5.980285917139993
1621784749622.813,-0.227,0.421,0.201,-0.467812813230872,-6.803297444036084,-6.186236719011025
1621784749623.623,-0.22490794451450188,0.4221954602774275,0.20144829760403532,-0.471,-6.816,-6.217
1621784749628.234,-0.213,0.429,0.204,-0.447563991020761,-6.890784567978695,-6.353929490665216
1621784749633.653,-0.201,0.422,0.211,-0.4200192969980898,-6.978679996095983,-6.514864781584194
1621784749639.067,-0.182,0.421,0.218,-0.3925019032082654,-7.066488308863512,-6.675640565524741
1621784749641.133,-0.17169416381021108,0.421,0.2187633952733177,-0.382,-7.1,-6.737
1621784749644.48,-0.155,0.421,0.22,-0.38582858100371437,-7.096171418996286,-6.7951944312564585
1621784749649.891,-0.122,0.417,0.222,-0.39201843215013826,-7.089981567849861,-6.8892801686821015
1621784749655.299,-0.086,0.405,0.222,-0.39820465272153494,-7.083795347278465,-6.983310721367331
1621784749658.617,-0.06513290881994309,0.3994763582170438,0.21340766833762362,-0.402,-7.08,-7.041
1621784749660.705,-0.052,0.396,0.208,-0.405468854889237,-7.060143796151264,-7.043392313716716
1621784749666.107,-0.014,0.387,0.211,-0.4144425346833744,-7.008777215260684,-7.049581058402327
1621784749671.507,0.021,0.382,0.199,-0.4234133754754979,-6.957426885209219,-7.055767845155516
1621784749676.074,0.04468919041157847,0.36761727725011306,0.19730791497060154,-0.431,-6.914,-7.061
1621784749676.905,0.049,0.365,0.197,-0.43571943534156793,-6.901843878665658,-7.048367168025096
1621784749682.301,0.08,0.361,0.182,-0.46636249054701284,-6.8229147970758754,-6.966342828333754
1621784749687.693,0.11,0.356,0.173,-0.49698336274262667,-6.744042853541719,-6.8843778674061005
1621784749693.083,0.113,0.346,0.162,-0.5275917569952105,-6.665203050163852,-6.802446307033023
1621784749693.507,0.11370836920567312,0.3460787076895192,0.16137033848384613,-0.53,-6.659,-6.796
1621784749698.471,0.122,0.347,0.154,-0.5641253496679052,-6.581707541350471,-6.701499031688878
1621784749703.607,0.119,0.346,0.141,-0.599433975526833,-6.501735012695635,-6.603721298541078
1621784749708.886,0.115,0.335,0.131,-0.6357261472693627,-6.4195347946463155,-6.503219899869458
1621784749710.526,0.1118911413496251,0.33873063038044987,0.12726936961955013,-0.647,-6.394,-6.472
1621784749714.161,0.105,0.347,0.119,-0.6094354706919537,-6.398268696512278,-6.40519489958285
1621784749719.433,0.091,0.354,0.112,-0.5549518915122063,-6.404460012328158,-6.308300807064321
1621784749724.701,0.063,0.367,0.105,-0.5005137258274918,-6.410646167519603,-6.21148747831821
1621784749727.557,0.047802858070802215,0.36591448986220015,0.105,-0.471,-6.414,-6.159
1621784749729.963,0.035,0.365,0.105,-0.4528748203919765,-6.430567546985459,-6.161690456348066
1621784749735.223,0.009,0.374,0.099,-0.41324955457210183,-6.4667875165239375,-6.167572331743203
1621784749740.479,-0.024,0.374,0.099,-0.37365371573078915,-6.502980587964825,-6.1734498390712105
1621784749744.548,-0.03949265662762595,0.36935220301171223,0.099,-0.343,-6.531,-6.178
1621784749745.732,-0.044,0.368,0.099,-0.3293131093477729,-6.546781822894915,-6.203348680136522
1621784749750.979,-0.063,0.372,0.098,-0.26864933250766865,-6.616730871700341,-6.31570047091692
1621784749756.223,-0.079,0.377,0.094,-0.20802224974437997,-6.686637609988622,-6.427984302769337
1621784749761.464,-0.084,0.377,0.093,-0.14742621581531992,-6.75650854707009,-6.540210630913464
1621784749761.501,-0.0839718414918415,0.3770703962703963,0.09300703962703963,-0.147,-6.757,-6.541
1621784749766.701,-0.08,0.387,0.094,-0.10487673230165145,-6.838479313431112,-6.643387212726643
1621784749771.934,-0.066,0.379,0.089,-0.06248449590021943,-6.920478894791547,-6.746428196096547
1621784749777.163,-0.035,0.384,0.087,-0.020125880586672834,-7.002413442660815,-6.849387458136043
1621784749778.413,-0.02710356592045614,0.3823249988316119,0.0862821423564051,-0.01,-7.022,-6.874
1621784749782.387,-0.002,0.377,0.084,0.017787702546296295,-7.045077922453704,-6.850922077546296
1621784749787.608,0.024,0.372,0.08,0.054295659722222216,-7.075398090277778,-6.820601909722222
1621784749792.826,0.058,0.37,0.073,0.09078313078703704,-7.1057012442129635,-6.7902987557870365
1621784749795.288,0.06839057743642579,0.3643324123074041,0.073,0.108,-7.12,-6.776
1621784749798.039,0.08,0.358,0.073,0.1563379344558905,-7.09731076545948,-6.740650830244842
1621784749803.249,0.103,0.365,0.07,0.24788315288761786,-7.054340560889486,-6.673704497037966
1621784749808.377,0.117,0.356,0.08,0.337986984562407,-7.012046925613564,-6.607812239180553
1621784749812.02,0.12404798790855848,0.3574095975817117,0.08,0.402,-6.982,-6.561
1621784749813.546,0.127,0.358,0.08,0.4190122781086737,-6.970384089678486,-6.534932799672194
1621784749818.71,0.138,0.36,0.087,0.4765872711574203,-6.931072132059181,-6.446713052258791
1621784749823.871,0.129,0.356,0.089,0.5341296006321982,-6.891782476987693,-6.358543353870019
1621784749828.703,0.12431529612270985,0.3541261184490839,0.10024328930549638,0.588,-6.855,-6.276
1621784749829.028,0.124,0.354,0.101,0.5924164197059945,-6.853456207270914,-6.273127373023092
1621784749834.18,0.119,0.358,0.113,0.662382852615827,-6.8289989143511045,-6.227618233033068
1621784749839.328,0.101,0.365,0.129,0.7322962354391009,-6.804560165488102,-6.182143599072797
1621784749844.471,0.08,0.361,0.141,0.8021433056541767,-6.780144596696106,-6.136712097649716
1621784749845.344,0.07745226560273583,0.36167939583927045,0.14286833855799372,0.814,-6.776,-6.129
1621784749849.611,0.065,0.365,0.152,0.8191420249775672,-6.776,-6.141597961195039
1621784749854.746,0.045,0.365,0.169,0.8253299304217354,-6.776,-6.156758329533251
1621784749859.877,0.033,0.36,0.18,0.8315128344684544,-6.776,-6.171906444447713
1621784749861.941,0.028169142857142858,0.35838971428571426,0.18684371428571428,0.834,-6.776,-6.178
1621784749865.004,0.021,0.356,0.197,0.806612239479623,-6.7797010487189695,-6.221672374883845
1621784749870.125,0.009,0.36,0.208,0.760821894774105,-6.785888933138635,-6.294689411035886
1621784749875.244,0.005,0.365,0.227,0.7150511969556175,-6.792074162573566,-6.367675118368069
1621784749878.493,0.0018234114670358527,0.36055277605385017,0.23462381247911396,0.686,-6.796,-6.414
1621784749880.358,0.0,0.358,0.239,0.6594462687671031,-6.809333362916944,-6.439423785222986
1621784749885.467,-0.003,0.353,0.251,0.5867024628355891,-6.845860039937874,-6.509072110051032
1621784749890.573,0.0,0.351,0.258,0.5140038458693884,-6.882364026329413,-6.578677168848458
1621784749894.998,0.0,0.34753010433617304,0.26754221307552406,0.451,-6.914,-6.639
1621784749895.674,0.0,0.347,0.269,0.4425430325134546,-6.918433749944402,-6.644624293910955
1621784749900.77,0.01,0.34,0.276,0.37879356254355145,-6.951855802161633,-6.687020786075405
1621784749905.863,0.017,0.34,0.283,0.31508074248691603,-6.985258639861229,-6.72939290426841
1621784749910.957,0.033,0.333,0.283,0.25135570579252475,-7.0186678824000355,-6.771773147118563
1621784749911.465,0.034398253023612976,0.333,0.283,0.245,-7.022,-6.776
1621784749916.044,0.047,0.333,0.283,0.19592941666171138,-7.0710705833382885,-6.7269294166617115
1621784749921.126,0.061,0.321,0.281,0.14146643277635726,-7.125533567223643,-6.672466432776357
1621784749926.204,0.079,0.312,0.278,0.08704531129214485,-7.179954688707856,-6.6180453112921445
1621784749927.888,0.08397882477501324,0.31100423504499736,0.278,0.069,-7.198,-6.6
1621784749931.277,0.094,0.309,0.278,0.036543201787043934,-7.185802859270291,-6.549350856291884
1621784749936.346,0.103,0.297,0.274,-0.011999374534623963,-7.167560744601638,-6.473599702159345
1621784749941.412,0.115,0.281,0.274,-0.0605162323157111,-7.149328294862249,-6.3978886820551
1621784749944.282,0.1161341598726422,0.27589628057311016,0.2722987601910367,-0.088,-7.139,-6.355
1621784749946.473,0.117,0.272,0.271,-0.10652828438486511,-7.117920719938958,-6.3141840691811675
1621784749951.53,0.115,0.265,0.262,-0.14929571058812968,-7.069265024910607,-6.219971767979772
1621784749956.581,0.11,0.257,0.258,-0.1920115202202307,-7.020668053082781,-6.125873172848188
1621784749960.6,0.09885335654865544,0.248241923002515,0.25242667827432774,-0.226,-6.982,-6.051
1621784749961.629,0.096,0.246,0.251,-0.23774854230682754,-6.972714861725249,-6.037356531514652
1621784749966.673,0.082,0.232,0.251,-0.2953509705463539,-6.927190361987559,-5.970463389042944
1621784749971.712,0.058,0.227,0.248,-0.35289206325414074,-6.881714337105598,-5.903641474930676
1621784749976.748,0.033,0.213,0.241,-0.41040248819605785,-6.836262549651503,-5.836855174998126
1621784749976.888,0.032165655487064994,0.212499393292239,0.2408609425811775,-0.412,-6.835,-5.835
1621784749981.778,0.003,0.195,0.236,-0.4944800120228434,-6.817239705440336,-5.841020438833784
1621784749986.804,-0.017,0.185,0.223,-0.5792495341148182,-6.798986414186955,-5.847207995190863
1621784749991.827,-0.042,0.171,0.213,-0.6639696423204089,-6.780743763149985,-5.853391944694921
1621784749993.133,-0.046164639486231396,0.16735594044954755,0.21117797022477375,-0.686,-6.776,-5.855
1621784749996.845,-0.058,0.157,0.206,-0.6591884184665471,-6.818852698690219,-5.9088523218834315
1621784750001.859,-0.075,0.147,0.192,-0.6229723273094488,-6.876736536693445,-5.981594043438287
1621784750006.868,-0.086,0.134,0.182,-0.5867915052677589,-6.934564004401103,-6.054264925316894
1621784750009.331,-0.0899275912408759,0.13154525547445256,0.17758145985401458,-0.569,-6.963,-6.09
1621784750011.885,-0.094,0.129,0.173,-0.5628644238577917,-6.987699627034019,-6.116272851685866
1621784750016.911,-0.089,0.119,0.162,-0.5507903419857431,-7.036305546365086,-6.167974689445664
1621784750021.932,-0.086,0.113,0.145,-0.538727990495383,-7.084864243390381,-6.219626297109514
1621784750025.565,-0.0794840420356135,0.10793203269436606,0.13486406538873214,-0.53,-7.12,-6.257
1621784750026.95,-0.077,0.106,0.131,-0.5215314314148284,-7.113242253351227,-6.270429952200726
1621784750031.963,-0.066,0.094,0.119,-0.49088007961519325,-7.088783093834346,-6.3190386616203496
1621784750036.972,-0.049,0.082,0.113,-0.46025261237352794,-7.064342993712209,-6.367609493508647
1621784750041.756,-0.045176576752353544,0.08391171162382323,0.0986621628213258,-0.431,-7.041,-6.414
1621784750041.977,-0.045,0.084,0.098,-0.4297959239212603,-7.03993275074839,-6.412919068065676
1621784750046.978,-0.033,0.075,0.089,-0.4025425599467812,-7.015776359952829,-6.388452979952223
1621784750051.975,-0.03,0.059,0.073,-0.3753104835051858,-6.991638837652324,-6.36400600223761
1621784750056.968,-0.024,0.047,0.066,-0.3481010250672795,-6.967521363127816,-6.339579329321762
1621784750057.904,-0.025313592090450785,0.0460617199353923,0.06449875189662768,-0.343,-6.963,-6.335
1621784750061.956,-0.031,0.042,0.058,-0.3135664504198624,-6.963,-6.305314881620032
1621784750066.942,-0.035,0.042,0.052,-0.2773495467911602,-6.963,-6.268788431806469
1621784750071.922,-0.045,0.031,0.051,-0.24117343195804408,-6.963,-6.232303119410677
1621784750074.011,-0.047938619302291346,0.03267921102988077,0.04848118345517884,-0.226,-6.963,-6.217
1621784750076.898,-0.052,0.035,0.045,-0.226,-6.954194951828101,-6.227601996778409
1621784750081.871,-0.059,0.033,0.047,-0.226,-6.939027185970884,-6.245865225055466
1621784750086.839,-0.073,0.035,0.037,-0.226,-6.923875056985685,-6.264109625262134
1621784750090.077,-0.073,0.031739280094413846,0.03895643194335169,-0.226,-6.914,-6.276
1621784750091.804,-0.073,0.03,0.04,-0.226,-6.9160479041916165,-6.295077844311377
1621784750096.763,-0.079,0.028,0.031,-0.226,-6.921928174185979,-6.349857201627279
1621784750101.719,-0.073,0.03,0.031,-0.226,-6.927804970212247,-6.404604196187777
1621784750106.1,-0.07034580683330868,0.024691613666617367,0.026576344722181136,-0.226,-6.933,-6.453
1621784750106.671,-0.07,0.024,0.026,-0.22458124611253547,-6.935447350455876,-6.4543832850402785
1621784750111.68,-0.065,0.019,0.024,-0.21213104358511461,-6.956923949815677,-6.466522232504514
1621784750116.649,-0.054,0.023,0.019,-0.19978036014988546,-6.978228878741447,-6.478564148853862
1621784750121.614,-0.049,0.017,0.014,-0.18743938589438233,-6.99951705933219,-6.490596598752977
1621784750122.193,-0.0475992125984252,0.017,0.014233464566929133,-0.186,-7.002,-6.492
1621784750126.575,-0.037,0.017,0.016,-0.159196428027186,-7.007470116729146,-6.481333272378166
1621784750131.531,-0.028,0.009,0.012,-0.12888037548383163,-7.01365706622779,-6.469268720855811
1621784750136.484,-0.017,0.01,0.012,-0.09858373716131785,-7.019840053640547,-6.457211895400933
1621784750138.214,-0.01595142039850069,0.01,0.013398106135332414,-0.088,-7.022,-6.453
1621784750141.434,-0.014,0.01,0.016,-0.08417149448467626,-7.0101114828734685,-6.437081477067864
1621784750146.379,-0.005,0.017,0.012,-0.07829215937910594,-6.9918546001772235,-6.412635820576282
1621784750151.321,-0.003,0.016,0.012,-0.07241601735570019,-6.973607632841385,-6.388203440584227
1621784750154.194,-0.0012541786173474435,0.016,0.0160735832261893,-0.069,-6.963,-6.374
1621784750156.258,0.0,0.016,0.019,-0.07146019298514321,-6.956655291775157,-6.36895013018839
1621784750161.191,0.0,0.021,0.016,-0.0773400367590749,-6.941491484147649,-6.356880977178741
1621784750166.121,0.0,0.021,0.016,-0.08321667943023434,-6.926335931995712,-6.344818394853729
1621784750170.134,-0.007331763889577241,0.02914640432175249,0.02251712345740199,-0.088,-6.914,-6.335
1621784750171.047,-0.009,0.031,0.024,-0.09138882575175845,-6.910611174248241,-6.336148754492122
1621784750175.969,-0.01,0.026,0.023,-0.10965586509813557,-6.892344134901864,-6.342340971219707
1621784750180.888,-0.017,0.024,0.024,-0.12791203120680653,-6.8740879687931935,-6.348529502104003
1621784750185.801,-0.019,0.028,0.026,-0.1461464508400651,-6.855853549159935,-6.354710661301717
1621784750186.031,-0.019327880264531846,0.02776579981104868,0.025859479886629205,-0.147,-6.855,-6.355
1621784750190.711,-0.026,0.023,0.023,-0.15851167195343538,-6.860608250438854,-6.349096578485418
1621784750195.618,-0.035,0.031,0.021,-0.17058184225924672,-6.866488589818608,-6.342906747559361
1621784750200.521,-0.035,0.035,0.028,-0.18264240399125373,-6.872364248098303,-6.336721844107049
1621784750201.886,-0.03639343036586582,0.033606569634134185,0.028557372146346325,-0.186,-6.874,-6.335
1621784750205.419,-0.04,0.03,0.03,-0.19046732318710832,-6.874,-6.343711280214861
1621784750210.314,-0.045,0.03,0.026,-0.19665693205322138,-6.874,-6.355781017503782
1621784750215.204,-0.047,0.03,0.031,-0.2028403667459019,-6.874,-6.367838715154509
1621784750217.703,-0.04904526152770145,0.033579207673477544,0.031,-0.206,-6.874,-6.374
1621784750220.091,-0.051,0.037,0.031,-0.2149308450551661,-6.877027405103446,-6.391861690110332
1621784750224.974,-0.047,0.047,0.033,-0.23319151076242206,-6.883217461275398,-6.428383021524844
1621784750229.853,-0.047,0.042,0.03,-0.2514366556798663,-6.889402256162667,-6.4648733113597325
1621784750233.48,-0.044768475866212694,0.042,0.0307438413779291,-0.265,-6.894,-6.492
1621784750234.729,-0.044,0.042,0.031,-0.26968301916065474,-6.894,-6.497476751221782
1621784750239.6,-0.038,0.042,0.031,-0.28794642774028395,-6.894,-6.51883565278101
1621784750244.467,-0.028,0.044,0.031,-0.3061942750756342,-6.894,-6.540176355596928
1621784750249.216,-0.028,0.04497655504794417,0.030023444952055826,-0.324,-6.894,-6.561
1621784750249.33,-0.028,0.045,0.03,-0.32413804960014936,-6.893854684631422,-6.561421414568877
1621784750254.19,-0.019,0.031,0.033,-0.33002245075769365,-6.887660578149796,-6.579384323365591
1621784750259.046,-0.016,0.031,0.026,-0.33590212216448334,-6.8814714503531755,-6.597332793975791
1621784750263.898,-0.002,0.033,0.03,-0.3417770638205184,-6.875287301241559,-6.615266826399477
1621784750264.908,-0.0011859904569826358,0.032389492842736976,0.028575483299719612,-0.343,-6.874,-6.619
1621784750268.861,0.002,0.03,0.023,-0.3525580075375744,-6.864441992462425,-6.599883984924851
1621784750273.851,0.007,0.023,0.021,-0.36462298506107255,-6.852377014938927,-6.575754029877855
1621784750278.84,0.014,0.017,0.016,-0.3766856014167007,-6.840314398583299,-6.5516287971665985
1621784750281.038,0.01708654128709962,0.017,0.016,-0.382,-6.835,-6.541
1621784750283.825,0.021,0.017,0.016,-0.382,-6.8317111229054515,-6.525767306088407
1621784750288.808,0.016,0.012,0.012,-0.382,-6.82583032830389,-6.498529941618015
1621784750293.788,0.016,0.0,0.009,-0.382,-6.819953279247858,-6.471309924937448
1621784750297.138,0.016,0.0033654648025508954,0.0076538140789796415,-0.382,-6.816,-6.453
1621784750298.765,0.016,0.005,0.007,-0.3780525524385243,-6.823894895122951,-6.441056440711432
1621784750303.739,0.014,-0.005,0.009,-0.3659839304971218,-6.848032139005756,-6.4045411230425735
1621784750308.711,0.01,0.002,0.007,-0.35392063974240195,-6.872158720515197,-6.368041935630857
1621784750313.212,0.005470937945266054,0.002,0.008811624821893578,-0.343,-6.894,-6.335
1621784750313.68,0.005,0.002,0.009,-0.3418623491638389,-6.893416589314789,-6.335583410685211
1621784750318.646,0.003,-0.002,0.005,-0.32979090646255915,-6.887226105878235,-6.341773894121765
1621784750323.61,0.0,0.01,0.003,-0.3177242113912686,-6.881038057123727,-6.347961942876273
1621784750328.571,0.0,0.005,0.003,-0.30566523121871053,-6.874853964727544,-6.354146035272456
1621784750329.256,-0.0009673955870764382,0.004723601260835304,0.003,-0.304,-6.874,-6.355
1621784750333.528,-0.007,0.003,0.003,-0.3093346747762991,-6.868932058962516,-6.360067941037484
1621784750338.483,-0.012,0.0,0.005,-0.3155220804560906,-6.863054023566714,-6.365945976433286
1621784750343.436,-0.016,-0.005,0.0,-0.32170735202207285,-6.857178015579031,-6.371821984420969
1621784750345.272,-0.018596300863131937,-0.005741800246609125,0.0,-0.324,-6.855,-6.374
1621784750348.386,-0.023,-0.007,0.0,-0.32010433242215536,-6.870193103553595,-6.370299115801047
1621784750353.333,-0.021,-0.003,-0.002,-0.3139155506009193,-6.894329352656415,-6.364419773070874
1621784750358.278,-0.017,-0.003,-0.002,-0.30772921216193516,-6.9184560725684525,-6.358542751553839
1621784750361.259,-0.020620638529208264,-0.004206879509736088,-0.002603439754868044,-0.304,-6.933,-6.355
1621784750363.218,-0.023,-0.005,-0.003,-0.2967685210643693,-6.936677023187609,-6.355
1621784750368.166,-0.016,0.0,-0.003,-0.27850326887239174,-6.945964439556411,-6.355
1621784750373.111,-0.012,0.0,-0.005,-0.26024883145449546,-6.955246356887545,-6.355
1621784750377.242,-0.006148799525738564,0.0,-0.0024923426538879558,-0.245,-6.963,-6.355
1621784750378.053,-0.005,0.0,-0.002,-0.2440344205115653,-6.963965579488435,-6.35296720107698
1621784750382.993,-0.012,0.0,-0.003,-0.23815316362746297,-6.969846836372537,-6.340585607636765
1621784750387.93,-0.003,0.0,-0.003,-0.23227539468853262,-6.975724605311467,-6.328211357239017
1621784750392.863,-0.003,0.002,-0.003,-0.22640227634316484,-6.981597723656836,-6.315846897564558
1621784750393.201,-0.002794424914591276,0.002205575085408724,-0.003,-0.226,-6.982,-6.315
1621784750397.794,0.0,0.005,-0.003,-0.2314774433785896,-6.962396518434521,-6.332008903122989
1621784750402.723,0.0,0.002,0.0,-0.23735551196788132,-6.941359220325477,-6.350261852952895
1621784750407.649,-0.003,0.0,-0.005,-0.2432300867326611,-6.920334426430475,-6.368503953538263
1621784750409.133,-0.003602925861641458,0.000602925861641458,-0.0043970741383585425,-0.245,-6.914,-6.374
1621784750412.572,-0.005,0.002,-0.003,-0.23223819907251006,-6.909673965787292,-6.369890267497927
1621784750417.492,-0.01,-0.003,-0.003,-0.21398065169988637,-6.903484966677928,-6.364010718344031
1621784750422.41,-0.016,0.0,-0.009,-0.1957303522619084,-6.897298424495562,-6.358133503270785
1621784750425.032,-0.016,0.0,-0.006865659777424484,-0.186,-6.894,-6.355
1621784750427.324,-0.016,0.0,-0.005,-0.18036789318237756,-6.896888259906473,-6.357743846911149
1621784750432.237,-0.017,0.0,-0.007,-0.16829497907949792,-6.9030794979079495,-6.363625523012552
1621784750437.146,-0.019,-0.002,-0.007,-0.15623226372138813,-6.909265505783903,-6.369502230494708
1621784750440.903,-0.01746868003383253,0.0018282999154186777,-0.005468680033832529,-0.147,-6.914,-6.374
1621784750442.053,-0.017,0.003,-0.005,-0.14416951476955792,-6.911096938225187,-6.375451530887406
1621784750446.957,-0.017,0.0,-0.007,-0.13209818635684237,-6.8987160885711205,-6.381641955714439
1621784750451.857,-0.016,0.0,-0.003,-0.12003707413285668,-6.88634571705934,-6.38782714147033
1621784750456.747,-0.016,-0.0029944685304230828,-5.531469576917306e-06,-0.108,-6.874,-6.394
1621784750456.756,-0.016,-0.003,0.0,-0.10801082371054657,-6.874,-6.394011393379523
1621784750461.652,-0.023,-0.007,0.0,-0.11387727482678983,-6.874,-6.400186605080831
1621784750466.564,-0.024,0.002,0.0,-0.11976274056966899,-6.874,-6.406381832178599
1621784750471.474,-0.026,0.01,0.003,-0.1256461585835258,-6.874,-6.412574903772132
1621784750472.604,-0.027151301059754215,0.008157918304393254,0.0027697397880491565,-0.127,-6.874,-6.414
1621784750476.381,-0.031,0.002,0.002,-0.127,-6.874,-6.414
1621784750481.285,-0.03,0.01,0.007,-0.127,-6.874,-6.414
1621784750486.186,-0.031,0.014,0.005,-0.127,-6.874,-6.414
1621784750488.454,-0.030537027808232833,0.014925944383534336,0.004074055616465663,-0.127,-6.874,-6.414
1621784750491.085,-0.03,0.016,0.003,-0.13032561799833348,-6.874,-6.423644292195167
1621784750495.982,-0.026,0.012,0.009,-0.1365157855754097,-6.874,-6.441595778168688
1621784750500.876,-0.031,0.016,0.009,-0.14270224979168594,-6.874,-6.459536524395889
1621784750504.276,-0.026134171907756812,0.016,0.01108535489667565,-0.147,-6.874,-6.472
1621784750505.767,-0.024,0.016,0.012,-0.1525708389370681,-6.872206001020266,-6.470206001020267
1621784750510.656,-0.023,0.023,0.007,-0.1708347632518666,-6.8663243982748225,-6.464324398274823
1621784750515.541,-0.023,0.017,0.007,-0.18908409466833617,-6.860447494937316,-6.458447494937316
1621784750520.069,-0.023,0.014218089095545223,0.005145392730363482,-0.206,-6.855,-6.453
1621784750520.424,-0.023,0.014,0.005,-0.2068782232960089,-6.85454962907897,-6.453878223296009
1621784750525.304,-0.024,0.01,0.007,-0.21895107559355106,-6.848358422772538,-6.465951075593551
1621784750530.183,-0.023,0.012,0.005,-0.23102211587603957,-6.842168145704595,-6.47802211587604
1621784750535.058,-0.019,0.017,0.007,-0.24308288807322398,-6.835983134321424,-6.490082888073224
1621784750535.833,-0.020113182023147453,0.016840973996693223,0.0062048699834661054,-0.245,-6.835,-6.492
1621784750539.931,-0.026,0.016,0.002,-0.24005274343421806,-6.835,-6.502154895056079
1621784750544.801,-0.026,0.012,0.002,-0.23417321564308208,-6.835,-6.514223399469463
1621784750549.667,-0.024,0.01,-0.003,-0.2282986984781968,-6.835,-6.526281618913175
1621784750551.571,-0.022825864405078538,0.008043107341797561,-0.0018258644050785366,-0.226,-6.835,-6.531
1621784750554.532,-0.021,0.005,0.0,-0.226,-6.831419194430631,-6.527419194430631
1621784750559.394,-0.019,-0.003,0.002,-0.226,-6.825539268398806,-6.521539268398806
1621784750564.254,-0.023,-0.003,0.0,-0.226,-6.819661999627051,-6.515661999627051
1621784750567.282,-0.021753154058808746,-0.003,-0.004363960794169389,-0.226,-6.816,-6.512
1621784750569.111,-0.021,-0.003,-0.007,-0.226,-6.816,-6.512
1621784750573.965,-0.017,0.0,-0.002,-0.226,-6.816,-6.512
1621784750578.817,-0.021,-0.009,-0.002,-0.226,-6.816,-6.512
1621784750582.966,-0.023567479101621512,-0.007288347265585658,-0.0002883472655856583,-0.226,-6.816,-6.512
1621784750583.665,-0.024,-0.007,0.0,-0.22774140270434662,-6.814213945944259,-6.512
1621784750588.511,-0.021,-0.007,0.0,-0.23981443877789735,-6.801831344843182,-6.512
1621784750593.355,-0.024,-0.021,-0.003,-0.25188260889907826,-6.789453734462484,-6.512
1621784750598.196,-0.028,-0.019,-0.003,-0.2639434800917045,-6.777083610162355,-6.512
1621784750598.62,-0.028,-0.019,-0.003,-0.265,-6.776,-6.512
1621784750603.034,-0.028,-0.019,-0.003,-0.2539858629092727,-6.7816482754311425,-6.512
1621784750607.869,-0.033,-0.024,-0.005,-0.2419208166708323,-6.787835478630343,-6.512
1621784750612.702,-0.03,-0.024,-0.007,-0.22986064421394653,-6.794020182454386,-6.512
1621784750614.249,-0.029359510814635132,-0.024,-0.007640489185364868,-0.226,-6.796,-6.512
1621784750617.533,-0.028,-0.024,-0.009,-0.22179011611530156,-6.804209273575162,-6.507790116115301
1621784750622.361,-0.026,-0.026,-0.009,-0.21560063847766892,-6.816278754968546,-6.501600638477669
1621784750627.186,-0.024,-0.021,-0.012,-0.20941522957027947,-6.828340302337955,-6.49541522957028
1621784750629.85,-0.024,-0.01437160212604404,-0.012,-0.206,-6.835,-6.492
1621784750632.009,-0.024,-0.009,-0.012,-0.1978211503190105,-6.837772491417285,-6.489227508582715
1621784750636.829,-0.023,-0.014,-0.012,-0.17956094119860166,-6.843962392814033,-6.483037607185967
1621784750641.645,-0.017,-0.01,-0.01,-0.16131645529933689,-6.85014696430531,-6.476853035694691
1621784750645.424,-0.017,-0.01,-0.01,-0.147,-6.855,-6.472
1621784750646.46,-0.017,-0.01,-0.01,-0.147,-6.851068581569194,-6.469401265783027
1621784750651.272,-0.017,-0.009,-0.009,-0.147,-6.832805970852441,-6.457329370563478
1621784750656.081,-0.016,-0.007,-0.012,-0.147,-6.814554478924556,-6.445264825051825
1621784750660.888,-0.014,-0.005,-0.007,-0.147,-6.796311326088323,-6.433205791821094
1621784750660.97,-0.014119530416221986,-0.004880469583778015,-0.007,-0.147,-6.796,-6.433
1621784750665.692,-0.021,0.002,-0.007,-0.15886713759793586,-6.784132862402064,-6.4211328624020645
1621784750670.493,-0.019,-0.009,-0.005,-0.17093307321984832,-6.772066926780152,-6.409066926780151
1621784750675.291,-0.017,-0.005,-0.005,-0.1829916459519839,-6.760008354048016,-6.397008354048016
1621784750676.488,-0.018747149256770516,-0.0054991855019344334,-0.004500814498065567,-0.186,-6.757,-6.394
1621784750680.087,-0.024,-0.007,-0.003,-0.186,-6.752353286995445,-6.407707803363437
1621784750684.881,-0.031,-0.007,0.0,-0.186,-6.746163238608602,-6.425968446104623
1621784750689.672,-0.033,-0.002,0.0,-0.186,-6.739977288130251,-6.444217000015762
1621784750691.978,-0.036371322217123046,-0.0010367650808219876,0.0,-0.186,-6.737,-6.453
1621784750694.46,-0.04,0.0,0.0,-0.17974014778325123,-6.740210180623974,-6.459259852216749
1621784750699.245,-0.042,0.005,0.0,-0.16767118226600985,-6.746399393709739,-6.4713288177339905
1621784750704.029,-0.044,0.005,0.003,-0.15560529556650246,-6.752587027914614,-6.483394704433498
1621784750707.441,-0.039716475095785436,0.0014303959131545343,0.003,-0.147,-6.757,-6.492
1621784750708.808,-0.038,0.0,0.003,-0.147,-6.760454712265494,-6.498112183238951
1621784750713.586,-0.044,0.0,0.005,-0.147,-6.772527697807586,-6.519472080736499
1621784750718.361,-0.044,0.012,0.007,-0.147,-6.784593897307729,-6.540819972159828
1621784750722.875,-0.044,0.016728644501278773,0.005108542199488491,-0.147,-6.796,-6.561
1621784750723.134,-0.044,0.017,0.005,-0.147,-6.796,-6.561
1621784750727.903,-0.037,0.017,0.009,-0.147,-6.796,-6.561
1621784750732.67,-0.035,0.009,0.01,-0.147,-6.796,-6.561
1621784750737.434,-0.037,0.021,0.009,-0.147,-6.796,-6.561
1621784750738.281,-0.03664429633427326,0.02028859266854653,0.009177851832863368,-0.147,-6.796,-6.561
1621784750742.196,-0.035,0.017,0.01,-0.1569283083566167,-6.796,-6.553362839725679
1621784750746.955,-0.035,0.019,0.007,-0.16899693611887223,-6.796,-6.544079279908559
1621784750751.712,-0.033,0.016,0.016,-0.1810599917449835,-6.796,-6.534800006350013
1621784750753.66,-0.033,0.01640974682894264,0.013541519026344168,-0.186,-6.796,-6.531
1621784750756.466,-0.033,0.017,0.01,-0.18965596870129456,-6.796,-6.531
1621784750761.217,-0.037,0.017,0.012,-0.19584573300677502,-6.796,-6.531
1621784750765.966,-0.035,0.014,0.014,-0.20203295270205796,-6.796,-6.531
1621784750769.011,-0.03949210187805506,0.015925186519166454,0.012716542320555699,-0.206,-6.796,-6.531
1621784750770.711,-0.042,0.017,0.012,-0.2037816009557945,-6.798218399044206,-6.524455722819593
1621784750775.454,-0.038,0.019,0.014,-0.19759187574671444,-6.8044081242532855,-6.506196033452808
1621784750780.195,-0.042,0.019,0.012,-0.19140501792114695,-6.810594982078853,-6.487944802867384
1621784750784.337,-0.03588081620034009,0.020748338228474262,0.013748338228474263,-0.186,-6.816,-6.472
1621784750784.933,-0.035,0.021,0.014,-0.18448010724374012,-6.8137006750610425,-6.473558864365395
1621784750789.668,-0.038,0.026,0.01,-0.1724093455259252,-6.795439779128963,-6.485939132793923
1621784750794.401,-0.035,0.033,0.019,-0.16034356298175897,-6.777186415792917,-6.498314294377683
1621784750799.131,-0.035,0.031,0.012,-0.14828462680135968,-6.758943409776416,-6.510682434049887
1621784750799.635,-0.035213212127472755,0.031,0.012533030318681887,-0.147,-6.757,-6.512
1621784750803.858,-0.037,0.031,0.017,-0.15253061550759392,-6.757,-6.506469384492406
1621784750808.583,-0.044,0.03,0.014,-0.1587189448441247,-6.757,-6.500281055155875
1621784750813.305,-0.04,0.031,0.014,-0.1649031175059952,-6.757,-6.494096882494005
1621784750814.906,-0.04135685098018931,0.031678425490094655,0.014,-0.167,-6.757,-6.492
1621784750818.025,-0.044,0.033,0.014,-0.167,-6.760887643148875,-6.492
1621784750822.742,-0.044,0.033,0.016,-0.167,-6.766767342035717,-6.492
1621784750827.456,-0.049,0.037,0.014,-0.167,-6.772643389124689,-6.492
1621784750830.149,-0.04671351575456053,0.035856757877280265,0.015143242122719735,-0.167,-6.776,-6.492
1621784750832.167,-0.045,0.035,0.016,-0.167,-6.773480241941953,-6.494652376903207
1621784750836.876,-0.045,0.026,0.021,-0.167,-6.767600603250493,-6.500841470262638
1621784750841.583,-0.049,0.031,0.019,-0.167,-6.76172340323124,-6.507027996598694
1621784750845.366,-0.05141317551783211,0.03823952655349634,0.019,-0.167,-6.757,-6.512
1621784750846.286,-0.052,0.04,0.019,-0.17057380317011223,-6.755788541298267,-6.512
1621784750850.988,-0.051,0.031,0.024,-0.1888411728772144,-6.749596212583995,-6.512
1621784750855.686,-0.059,0.033,0.024,-0.20709241873774234,-6.743409349580427,-6.512
1621784750860.381,-0.059,0.031,0.024,-0.22533228305951195,-6.737226344725589,-6.512
1621784750860.553,-0.059,0.031073249401727187,0.023963375299136405,-0.226,-6.737,-6.512
1621784750865.074,-0.059,0.033,0.023,-0.226,-6.72536865246171,-6.532280298271891
1621784750869.765,-0.058,0.031,0.023,-0.226,-6.713300140116925,-6.553322832616643
1621784750874.453,-0.065,0.031,0.024,-0.226,-6.701239165096391,-6.57435222496014
1621784750875.712,-0.06446253256904638,0.03153746743095362,0.02373126628452319,-0.226,-6.698,-6.58
1621784750879.138,-0.063,0.033,0.023,-0.23030147616358798,-6.702527869645882,-6.57117065419053
1621784750883.821,-0.063,0.031,0.017,-0.23618125352907962,-6.708717108977979,-6.559101637492942
1621784750888.5,-0.066,0.024,0.017,-0.24205581995644107,-6.714900863112043,-6.547043316931516
1621784750890.845,-0.06700255727780388,0.027508950472313554,0.019005114555607747,-0.245,-6.718,-6.541
1621784750893.178,-0.068,0.031,0.021,-0.25102366251818325,-6.720934604816551,-6.544089057701632
1621784750897.852,-0.068,0.023,0.019,-0.26309178923549376,-6.726813948601907,-6.550277840633587
1621784750902.524,-0.068,0.021,0.017,-0.27515424276709227,-6.732690528527558,-6.556463714239534
1621784750905.95,-0.068,0.018065607193266768,0.016266401798316694,-0.284,-6.737,-6.561
1621784750907.194,-0.068,0.017,0.016,-0.28730030438443105,-6.735432355417395,-6.5642177967748205
1621784750911.86,-0.068,0.017,0.016,-0.2996777410789456,-6.729553072987501,-6.5762857975519715
1621784750916.525,-0.063,0.016,0.012,-0.31205193964121497,-6.7236753286704225,-6.588350641150185
1621784750921.029,-0.061067358055730145,0.00923575319505552,0.0052357531950555205,-0.324,-6.718,-6.6
1621784750921.186,-0.061,0.009,0.005,-0.32481359396544734,-6.71819818314543,-6.600198183145429
1621784750925.844,-0.059,0.01,0.012,-0.3489544326384946,-6.724078643847839,-6.606078643847838
1621784750930.5,-0.061,0.005,0.005,-0.3730851488360776,-6.729956638819044,-6.611956638819044
1621784750935.154,-0.058,0.0,0.005,-0.39720574255819613,-6.735832168059048,-6.6178321680590475
1621784750936.079,-0.05680661417322835,-0.00179007874015748,0.004403307086614174,-0.402,-6.737,-6.619
1621784750939.805,-0.052,-0.009,0.002,-0.402,-6.732287211910412,-6.614287211910412
1621784750944.453,-0.056,-0.014,0.0,-0.402,-6.726408038877873,-6.608408038877872
1621784750949.099,-0.054,-0.016,0.002,-0.402,-6.720531027533076,-6.602531027533075
1621784750951.1,-0.053138034390282377,-0.014276068780564758,-0.001016879634011674,-0.402,-6.718,-6.6
1621784750953.742,-0.052,-0.012,-0.005,-0.39512930009931135,-6.718,-6.593129300099311
1621784750958.382,-0.049,-0.019,-0.005,-0.38306160558748353,-6.718,-6.581061605587483
1621784750963.02,-0.051,-0.017,-0.01,-0.3709996255474334,-6.718,-6.568999625547433
1621784750966.096,-0.051,-0.021645404266526204,-0.01,-0.363,-6.718,-6.561
1621784750967.655,-0.051,-0.024,-0.01,-0.3609167822016343,-6.713833564403268,-6.561
1621784750972.287,-0.056,-0.028,-0.016,-0.3547274788367124,-6.701454957673425,-6.561
1621784750976.917,-0.056,-0.031,-0.009,-0.34854111141920435,-6.689082222838409,-6.561
1621784750981.064,-0.05868879273955255,-0.034585056986070076,-0.009896264246517518,-0.343,-6.678,-6.561
1621784750981.544,-0.059,-0.035,-0.01,-0.3458267895364607,-6.676747218273614,-6.562252781726386
1621784750986.168,-0.065,-0.035,-0.009,-0.37305944153064396,-6.664678202048919,-6.574321797951081
1621784750990.79,-0.063,-0.049,-0.007,-0.40028059082071143,-6.6526142836135485,-6.586385716386451
1621784750995.409,-0.066,-0.049,-0.005,-0.42748304821659067,-6.640558649085829,-6.598441350914171
1621784750996.006,-0.06587065728940829,-0.049905398974142035,-0.004741314578816562,-0.431,-6.639,-6.6
1621784751000.026,-0.065,-0.056,-0.003,-0.44690352471227673,-6.6495124993860815,-6.581400962624625
1621784751004.64,-0.063,-0.063,-0.002,-0.46515804724718823,-6.661579048180345,-6.56005245321939
1621784751009.251,-0.061,-0.068,0.0,-0.4834009789957926,-6.673637935268405,-6.538717499140513
1621784751010.919,-0.06244753429736744,-0.06691434927697441,0.0007237671486837226,-0.49,-6.678,-6.531
1621784751013.86,-0.065,-0.065,0.002,-0.5093640374616608,-6.681951844379931,-6.51558780691827
1621784751018.466,-0.075,-0.075,0.0,-0.539688759861569,-6.688140563237055,-6.491451803375486
1621784751023.069,-0.079,-0.089,-0.003,-0.5699941937706047,-6.694325345667471,-6.4673311518968655
1621784751025.804,-0.08494554429170426,-0.08781089114165914,-0.004189108858340852,-0.588,-6.698,-6.453
1621784751027.669,-0.089,-0.087,-0.005,-0.6028125349196437,-6.715197604101621,-6.453
1621784751032.268,-0.103,-0.087,-0.01,-0.6393406842606895,-6.75760740460775,-6.453
1621784751036.863,-0.108,-0.087,-0.016,-0.6758358694580471,-6.7999789331843425,-6.453
1621784751040.661,-0.11213437516610855,-0.08865375006644341,-0.014346249933556583,-0.706,-6.835,-6.453
1621784751041.456,-0.113,-0.089,-0.014,-0.7112549555482384,-6.839236137635825,-6.464046131050379
1621784751046.046,-0.113,-0.093,-0.024,-0.7415875205795193,-6.863687899242674,-6.52780642081001
1621784751050.634,-0.106,-0.099,-0.021,-0.771908791570629,-6.888130556470201,-6.59154297003622
1621784751055.218,-0.099,-0.101,-0.031,-0.8022026341784656,-6.912551103062232,-6.655221863681264
1621784751055.49,-0.09822853185595569,-0.1012373748135521,-0.03111868740677605,-0.804,-6.914,-6.659
1621784751059.801,-0.086,-0.105,-0.033,-0.7984670415752758,-6.919532958424724,-6.693071375562775
1621784751064.38,-0.063,-0.115,-0.037,-0.7925903491267708,-6.925409650873229,-6.729259429061464
1621784751068.957,-0.047,-0.117,-0.044,-0.7867158500585452,-6.931284149941455,-6.765433975955275
1621784751070.294,-0.04086327979081061,-0.11758444954373233,-0.044,-0.785,-6.933,-6.776
1621784751073.532,-0.026,-0.119,-0.044,-0.7462096862142468,-6.933,-6.737428840529421
1621784751078.104,0.0,-0.124,-0.051,-0.6914388043424379,-6.933,-6.682967398668186
1621784751082.673,0.014,-0.112,-0.049,-0.6367030188866306,-6.933,-6.628540854938119
1621784751085.069,0.0187228103946102,-0.10885145973692653,-0.049,-0.608,-6.933,-6.6
1621784751087.239,0.023,-0.106,-0.049,-0.5878397986721634,-6.918578834086657,-6.558060895047931
1621784751091.802,0.026,-0.101,-0.049,-0.5454462159969535,-6.888253497574463,-6.469869865395123
1621784751096.363,0.03,-0.091,-0.044,-0.5030707793175383,-6.857941141409626,-6.3817165847116675
1621784751099.815,0.03,-0.08267136125093713,-0.044,-0.471,-6.835,-6.315
1621784751100.922,0.03,-0.08,-0.044,-0.4643053293303919,-6.827628340161555,-6.303265521073496
1621784751105.478,0.023,-0.072,-0.044,-0.4367575345419562,-6.797294813315862,-6.254979498747699
1621784751110.031,0.017,-0.059,-0.038,-0.40922745442783925,-6.766980792516048,-6.20672452686228
1621784751114.534,0.007105681025696045,-0.05108454482055683,-0.035031704307708814,-0.382,-6.737,-6.159
1621784751114.582,0.007,-0.051,-0.035,-0.3818723308795427,-6.737065471343825,-6.158934528656175
1621784751119.129,0.0,-0.038,-0.033,-0.36980273849681783,-6.7432550058990675,-6.1527449941009325
1621784751123.674,-0.012,-0.023,-0.028,-0.35773768258030214,-6.749442214061383,-6.146557785938617
1621784751128.217,-0.017,-0.007,-0.024,-0.3456784592631982,-6.7556264311470775,-6.140373568852922
1621784751129.226,-0.019444773069477308,-0.006555495805549581,-0.022444235319423533,-0.343,-6.757,-6.139
1621784751132.757,-0.028,-0.005,-0.017,-0.352391089356176,-6.780598121971929,-6.1625981219719295
1621784751137.295,-0.035,0.007,-0.019,-0.3644599670346137,-6.8109250453690295,-6.192925045369029
1621784751141.83,-0.04,0.005,-0.01,-0.3765217022126767,-6.841234020944675,-6.223234020944675
1621784751143.89,-0.04181802510370091,0.011363087862953185,-0.009545493724074773,-0.382,-6.855,-6.237
1621784751146.362,-0.044,0.019,-0.009,-0.3870679835171252,-6.8516213443219165,-6.273489481323302
1621784751150.89,-0.045,0.024,-0.01,-0.3963501109424267,-6.845433259371716,-6.340320798785473
1621784751155.417,-0.038,0.026,-0.005,-0.4056307368912764,-6.839246175405815,-6.40714130561719
1621784751158.524,-0.035939665407447384,0.027373556395035078,-0.007747112790070156,-0.412,-6.835,-6.453
1621784751159.941,-0.035,0.028,-0.009,-0.4157824975352171,-6.831217502464783,-6.460564995070435
1621784751164.463,-0.03,0.028,-0.009,-0.42785338301889947,-6.819146616981101,-6.484706766037799
1621784751168.982,-0.024,0.035,-0.009,-0.43991644803903546,-6.8070835519609645,-6.508832896078071
1621784751173.134,-0.01940401037725651,0.02856561452815912,-0.009,-0.451,-6.796,-6.531
1621784751173.499,-0.019,0.028,-0.009,-0.4534532819825854,-6.794047387809779,-6.529047387809778
1621784751178.012,-0.016,0.03,-0.009,-0.4837870060281313,-6.769904219691895,-6.504904219691896
1621784751182.522,-0.012,0.03,-0.01,-0.5141010381781648,-6.745776724715339,-6.480776724715338
1621784751187.031,-0.012,0.017,-0.012,-0.5444085063630275,-6.721654454119223,-6.4566544541192235
1621784751187.714,-0.012606382402340575,0.017303191201170288,-0.012303191201170289,-0.549,-6.718,-6.453
1621784751191.537,-0.016,0.019,-0.014,-0.564500058719906,-6.697245684086906,-6.457991544333529
1621784751196.04,-0.024,0.021,-0.014,-0.5827568492576126,-6.672800150994044,-6.4638708497609265
1621784751200.54,-0.026,0.019,-0.019,-0.6010017615971814,-6.648370522607164,-6.469746330005872
1621784751202.266,-0.03022112462006079,0.019767477203647417,-0.018232522796352582,-0.608,-6.639,-6.472
1621784751205.038,-0.037,0.021,-0.017,-0.611816855481225,-6.627740276330386,-6.488985006891451
1621784751209.532,-0.037,0.019,-0.023,-0.6180047063569436,-6.609486116247017,-6.516520943288399
1621784751214.025,-0.038,0.007,-0.024,-0.6241912125592497,-6.591235922950213,-6.544050895888661
1621784751216.791,-0.04169637322603447,0.0026875645696264475,-0.026464248817356317,-0.628,-6.58,-6.561
1621784751218.515,-0.044,0.0,-0.028,-0.6326378839935327,-6.575362116006468,-6.5678973659391
1621784751223.002,-0.049,0.002,-0.03,-0.6447097817299919,-6.563290218270009,-6.58585044462409
1621784751227.487,-0.049,0.002,-0.03,-0.6567764248181084,-6.551223575181892,-6.603795708703853
1621784751231.287,-0.05154357773177906,0.00030428151214729267,-0.035935014707484475,-0.667,-6.541,-6.619
1621784751231.969,-0.052,0.0,-0.037,-0.6651618798515019,-6.541,-6.61810450556868
1621784751236.448,-0.056,-0.01,-0.038,-0.653088069524131,-6.541,-6.612222392845089
1621784751240.925,-0.059,-0.016,-0.04,-0.6410195241309484,-6.541,-6.606342845089436
1621784751245.398,-0.058,-0.016,-0.04,-0.6289621667229159,-6.541,-6.600468747890651
1621784751245.755,-0.058558685446009395,-0.016,-0.04031924882629108,-0.628,-6.541,-6.6
1621784751249.87,-0.065,-0.016,-0.044,-0.6111870298050751,-6.541,-6.6
1621784751254.339,-0.07,-0.024,-0.045,-0.5929287586008689,-6.541,-6.6
1621784751258.805,-0.075,-0.014,-0.049,-0.5746834542104106,-6.541,-6.6
1621784751260.196,-0.07624675893003664,-0.01774027679010995,-0.04837662053498168,-0.569,-6.541,-6.6
1621784751263.268,-0.079,-0.026,-0.047,-0.5564236079348138,-6.545263183750911,-6.595736816249089
1621784751267.729,-0.082,-0.026,-0.047,-0.538161203435483,-6.551453829343904,-6.589546170656096
1621784751272.188,-0.08,-0.024,-0.044,-0.5199067947349698,-6.55764176449662,-6.58335823550338
1621784751274.608,-0.08380227970188514,-0.02345681718544498,-0.044543182814555014,-0.51,-6.561,-6.58
1621784751276.643,-0.087,-0.023,-0.045,-0.4961361391599491,-6.566517250742469,-6.582829359355112
1621784751281.095,-0.087,-0.017,-0.051,-0.4658089435723377,-6.578586236741621,-6.589018582944421
1621784751285.546,-0.091,-0.012,-0.049,-0.43548840050912174,-6.590652575307594,-6.595206448875689
1621784751288.994,-0.0878986000548998,-0.006572550096074664,-0.049,-0.412,-6.6,-6.6
1621784751289.993,-0.087,-0.005,-0.049,-0.40991277735271614,-6.606818260647794,-6.6013219076766125
1621784751294.438,-0.082,-0.01,-0.051,-0.4006258607498087,-6.637155521550625,-6.60720362152512
1621784751298.881,-0.079,-0.002,-0.051,-0.39134302473858706,-6.667479452520616,-6.6130827509988945
1621784751303.321,-0.079,0.002,-0.052,-0.3820668196888549,-6.697781722349741,-6.618957680863725
1621784751303.353,-0.07895674188222344,0.0020072096862960927,-0.052014419372592186,-0.382,-6.698,-6.619
1621784751307.757,-0.073,0.003,-0.054,-0.35802994889267464,-6.704146166950596,-6.613161141396933
1621784751312.191,-0.068,0.016,-0.054,-0.33389778534923337,-6.710333901192504,-6.607282793867121
1621784751316.623,-0.061,0.012,-0.049,-0.3097749233390119,-6.716519250425894,-6.6014067120954
1621784751317.684,-0.059802160851110744,0.012479135659555702,-0.049,-0.304,-6.718,-6.6
1621784751321.052,-0.056,0.014,-0.049,-0.2901053826587227,-6.713289960223296,-6.590815422435426
1621784751325.479,-0.056,0.012,-0.049,-0.2718414394728306,-6.707098793041638,-6.578742646431193
1621784751329.903,-0.051,0.019,-0.047,-0.25358958294211037,-6.700911723031224,-6.566677859910887
1621784751331.985,-0.05005809586922907,0.023238568588469184,-0.04464523967307268,-0.245,-6.698,-6.561
1621784751334.324,-0.049,0.028,-0.042,-0.23861049355269007,-6.70766617642029,-6.543305982145911
1621784751338.743,-0.049,0.037,-0.044,-0.22653846153846152,-6.725928994082841,-6.50987573964497
1621784751343.158,-0.047,0.033,-0.04,-0.21447710093374833,-6.744175667818175,-6.476475048739611
1621784751346.261,-0.04559402654867257,0.041435840707964605,-0.03859402654867257,-0.206,-6.757,-6.453
1621784751347.572,-0.045,0.045,-0.038,-0.206,-6.7551596984235776,-6.451159698423578
1621784751351.982,-0.049,0.058,-0.037,-0.206,-6.748969499657299,-6.4449694996573
1621784751356.39,-0.051,0.063,-0.037,-0.206,-6.742782042494859,-6.43878204249486
1621784751360.509,-0.05380467667756414,0.06767446112927357,-0.03513021554829058,-0.206,-6.737,-6.433
1621784751360.796,-0.054,0.068,-0.035,-0.20440630097004034,-6.735809769078891,-6.433
1621784751365.198,-0.058,0.077,-0.031,-0.17995014164305947,-6.717545042492918,-6.433
1621784751369.599,-0.061,0.087,-0.03,-0.1554994076744785,-6.699284367756889,-6.433
1621784751373.995,-0.07,0.087,-0.024,-0.13107715683749677,-6.681044965233067,-6.433
1621784751374.729,-0.07150291650463864,0.08816893505916337,-0.023833009277262375,-0.127,-6.678,-6.433
1621784751378.39,-0.079,0.094,-0.023,-0.10687940822294856,-6.657879408222948,-6.417780578014794
1621784751382.782,-0.079,0.096,-0.016,-0.08274006537072079,-6.633740065370721,-6.399521331498366
1621784751387.172,-0.091,0.105,-0.014,-0.05861145707896094,-6.609611457078961,-6.381270204713573
1621784751388.921,-0.09377589547694182,0.10539655649670597,-0.011224104523058186,-0.049,-6.6,-6.374
1621784751391.582,-0.098,0.106,-0.007,-0.02254900536346353,-6.593429370759076,-6.37079892421596
1621784751396.576,-0.106,0.12,0.0,0.02708907677326615,-6.581098891756959,-6.364791767779032
1621784751401.569,-0.12,0.133,0.002,0.0767198788197289,-6.568770221184908,-6.358785492372135
1621784751404.716,-0.12693315730282137,0.14245430541293824,0.0038908610825876483,0.108,-6.561,-6.355
1621784751406.562,-0.131,0.148,0.005,0.13271475915921369,-6.569924774140827,-6.357173983444561
1621784751411.556,-0.143,0.164,0.01,0.19957633813047626,-6.594069233213784,-6.363055326039255
1621784751416.547,-0.15,0.182,0.017,0.2664019612294003,-6.618200708221728,-6.368933505848882
1621784751420.849,-0.16033944550388735,0.19492430687985918,0.016138379541342722,0.324,-6.639,-6.374
1621784751421.54,-0.162,0.197,0.016,0.32858275319329255,-6.644053877353351,-6.378197287971426
1621784751426.532,-0.169,0.218,0.023,0.36169354985168595,-6.680568587686906,-6.408523064350142
1621784751431.524,-0.178,0.232,0.024,0.3948043465100793,-6.717083298020461,-6.438848840728858
1621784751436.515,-0.182,0.241,0.04,0.42790866577880016,-6.753590865064471,-6.469168684545069
1621784751436.981,-0.18246679381846634,0.24212030516431923,0.03981328247261346,0.431,-6.757,-6.472
1621784751441.507,-0.187,0.253,0.038,0.43661167193861333,-6.757,-6.507914700407126
1621784751446.498,-0.192,0.26,0.044,0.4427996761158113,-6.757,-6.547517927141192
1621784751451.487,-0.195,0.269,0.044,0.4489852587289816,-6.757,-6.587105655865482
1621784751453.112,-0.19565117644181382,0.2745349997554175,0.044,0.451,-6.757,-6.6
1621784751456.478,-0.197,0.286,0.044,0.451,-6.769314293932421,-6.612314293932421
1621784751461.468,-0.195,0.288,0.042,0.451,-6.787570031488434,-6.630570031488434
1621784751466.458,-0.194,0.302,0.04,0.451,-6.805825769044447,-6.648825769044447
1621784751469.239,-0.194,0.302,0.04,0.451,-6.816,-6.659
1621784751471.448,-0.194,0.302,0.04,0.4456576636589354,-6.829424332344214,-6.642836007993702
1621784751476.437,-0.19,0.319,0.04,0.4335919427118028,-6.859743323442136,-6.606329467692121
1621784751481.426,-0.187,0.333,0.033,0.42152622176467025,-6.890062314540059,-6.569822927390541
1621784751485.365,-0.19331745876364348,0.34405555283637607,0.036948411727277176,0.412,-6.914,-6.541
1621784751486.414,-0.195,0.347,0.038,0.41453790586382355,-6.9063212078992,-6.543537905863824
1621784751491.402,-0.195,0.368,0.031,0.4266049188272353,-6.86981075842016,-6.555604918827235
1621784751496.391,-0.213,0.38,0.03,0.43867429428156046,-6.833293160891689,-6.56767429428156
1621784751501.378,-0.232,0.401,0.031,0.4507383541313303,-6.796791646474437,-6.57973835413133
1621784751501.486,-0.23234692379227645,0.4011300964221037,0.030826538103861777,0.451,-6.796,-6.58
1621784751506.366,-0.248,0.407,0.023,0.42435861745149417,-6.807806976356725,-6.597861836026839
1621784751511.354,-0.257,0.414,0.017,0.39712677400299895,-6.819875634248671,-6.61611954924799
1621784751516.341,-0.262,0.412,0.003,0.3699002620298987,-6.831941929327659,-6.634373687957227
1621784751517.605,-0.26098599549505436,0.4107324943688179,0.0009719909901087062,0.363,-6.835,-6.639
1621784751521.327,-0.258,0.407,-0.005,0.3177317708727862,-6.909831154271517,-6.591422167345888
1621784751526.313,-0.25,0.396,-0.016,0.2570880815671065,-7.010078885572742,-6.527684412259306
1621784751531.299,-0.239,0.38,-0.03,0.19644439226142685,-7.110326616873968,-6.463946657172724
1621784751533.72,-0.23317334247380275,0.37271667809225345,-0.039225541083145625,0.167,-7.159,-6.433
1621784751536.285,-0.227,0.365,-0.049,0.08883580574285932,-7.194818622622926,-6.372187938480188
1621784751541.271,-0.211,0.342,-0.059,-0.06311044776119404,-7.26444776119403,-6.253973134328358
1621784751546.256,-0.194,0.333,-0.077,-0.21502694143495718,-7.334063262368361,-6.135781483445716
1621784751549.832,-0.18969585659712018,0.3107619257517876,-0.09278185914389264,-0.324,-7.384,-6.051
1621784751551.241,-0.188,0.302,-0.099,-0.3720144121480314,-7.385749158912497,-6.0252873639863
1621784751556.226,-0.182,0.281,-0.12,-0.5418994029036461,-7.391938047464614,-5.934310702270179
1621784751561.21,-0.182,0.251,-0.141,-0.7117427939259842,-7.398125420543752,-5.84335631800685
1621784751565.942,-0.18484819985304923,0.23106260102865542,-0.16758319862845947,-0.873,-7.404,-5.757
1621784751566.194,-0.185,0.23,-0.169,-0.8745344297082228,-7.405534429708223,-5.758831921182265
1621784751571.178,-0.201,0.201,-0.197,-0.9048576127320955,-7.435857612732096,-5.795034088669951
1621784751576.162,-0.22,0.18,-0.223,-0.9351822811671088,-7.466182281167109,-5.8312380295566495
1621784751581.146,-0.216,0.164,-0.248,-0.9655054641909814,-7.496505464190982,-5.867440197044335
1621784751582.049,-0.215456295933366,0.160919010289074,-0.25144345908868204,-0.971,-7.502,-5.874
1621784751586.129,-0.213,0.147,-0.267,-0.9758138057551775,-7.464756344946784,-5.971036189696473
1621784751591.112,-0.204,0.129,-0.29,-0.981693441280815,-7.419266533248431,-6.089557263713272
1621784751596.094,-0.19,0.11,-0.321,-0.9875716364959519,-7.373787865005004,-6.208049304102611
1621784751598.152,-0.18132290951867464,0.10338888344279973,-0.3333958435447505,-0.99,-7.355,-6.257
1621784751601.075,-0.169,0.094,-0.351,-0.876171142618849,-7.312336871635454,-6.226681947077109
1621784751606.058,-0.145,0.077,-0.372,-0.6821049207673061,-7.239600727879294,-6.174992857684434
1621784751611.039,-0.126,0.073,-0.391,-0.4881242702251877,-7.1668966563044965,-6.123326560012131
1621784751614.252,-0.11568146623542096,0.06848564147799667,-0.3929347250808586,-0.363,-7.12,-6.09
1621784751616.021,-0.11,0.066,-0.394,-0.25630220496800216,-7.101649297867823,-6.03286008916927
1621784751621.002,-0.112,0.075,-0.401,0.04411849807406509,-7.0499806496618245,-5.871975675593704
1621784751625.983,-0.112,0.082,-0.403,0.34453920111613234,-6.998312001455825,-5.7110912620181375
1621784751630.351,-0.12076929863255403,0.08989236876929863,-0.398615350683723,0.608,-6.953,-5.57
1621784751630.964,-0.122,0.091,-0.398,0.6348873856794018,-6.949267756662066,-5.564020793836168
1621784751635.944,-0.143,0.117,-0.394,0.8533059014454067,-6.918949039176134,-5.51544897092503
1621784751640.923,-0.175,0.14,-0.389,1.0716815858523046,-6.888636267119653,-5.466886672834544
1621784751645.903,-0.19,0.154,-0.38,1.2901001016183096,-6.858317549633719,-5.418314849923408
1621784751646.448,-0.19229787234042553,0.1560790273556231,-0.3786869300911854,1.314,-6.855,-5.413
1621784751650.883,-0.211,0.173,-0.368,1.419556991792211,-6.882009360824117,-5.478042950556036
1621784751655.862,-0.227,0.202,-0.358,1.5380602005674147,-6.91233133069349,-5.55106320452718
1621784751660.841,-0.234,0.223,-0.346,1.6565634093426183,-6.9426533005628634,-5.6240834584983235
1621784751662.54,-0.235706139060508,0.22982455624203196,-0.3415640384426792,1.697,-6.953,-5.649
1621784751665.82,-0.239,0.243,-0.333,1.6849724295945618,-6.990917425345958,-5.7028182811361985
1621784751670.798,-0.23,0.258,-0.321,1.6667184541150764,-7.048463856518572,-5.784497086671522
1621784751675.776,-0.211,0.286,-0.309,1.6484653738771546,-7.1060074654042245,-5.866171886380189
1621784751678.63,-0.20297194152849996,0.2968952222113215,-0.29982507603257136,1.638,-7.139,-5.913
1621784751680.753,-0.197,0.305,-0.293,1.61860018514865,-7.149425750838481,-5.9415058503938205
1621784751685.73,-0.171,0.326,-0.279,1.5731212723658052,-7.173866799204771,-6.008332007952286
1621784751690.708,-0.159,0.34,-0.269,1.527633436025071,-7.198312643224622,-6.0751712776774465
1621784751694.717,-0.14772294712057293,0.35047154910232514,-0.2617504660060826,1.491,-7.218,-6.129
1621784751695.685,-0.145,0.353,-0.26,1.4767954338454066,-7.2108977169227035,-6.1308056651891425
1621784751700.662,-0.131,0.361,-0.253,1.4037628271297589,-7.17438141356488,-6.140089471127573
1621784751705.638,-0.115,0.375,-0.244,1.330748132855668,-7.137874066427834,-6.14937100006072
1621784751710.614,-0.106,0.37,-0.236,1.257729856093266,-7.101364928046633,-6.158652984394924
1621784751710.8,-0.10614954371504268,0.3702617015013247,-0.23566352664115395,1.255,-7.1,-6.159
1621784751715.59,-0.11,0.377,-0.227,1.228785585229947,-7.129193325539377,-6.097634438151921
1621784751720.565,-0.099,0.375,-0.218,1.2015597376372167,-7.159513019449463,-6.033901204014394
1621784751725.54,-0.093,0.379,-0.213,1.1743325539377192,-7.189834201296631,-5.970164842172388
1621784751726.88,-0.09003744417725867,0.3784613534867743,-0.21003744417725867,1.167,-7.198,-5.953
1621784751730.515,-0.082,0.377,-0.202,1.1624783163265306,-7.193478316326531,-5.926322066326531
1621784751735.49,-0.082,0.365,-0.197,1.1562896622934888,-7.187289662293489,-5.889809007531584
1621784751740.464,-0.075,0.363,-0.192,1.15010222303207,-7.18110222303207,-5.853303115889213
1621784751742.958,-0.0724934975707906,0.35798699514158117,-0.18849089659910684,1.147,-7.178,-5.835
1621784751745.439,-0.07,0.353,-0.185,1.1440674220446847,-7.187106426282295,-5.828980497881195
1621784751750.413,-0.07,0.34,-0.182,1.1381878369963092,-7.205364085116724,-5.816911875939793
1621784751755.386,-0.068,0.326,-0.18,1.132309694861708,-7.2236172633241695,-5.8048462157687695
1621784751759.032,-0.06653365408218372,0.31720192449310225,-0.174867789287643,1.128,-7.237,-5.796
1621784751760.359,-0.066,0.314,-0.173,1.132871625419686,-7.250789177035383,-5.790302675356639
1621784751765.332,-0.066,0.298,-0.168,1.1511301368822449,-7.302470048463303,-5.768949500934324
1621784751770.304,-0.063,0.281,-0.168,1.169384166628686,-7.354138234355772,-5.747601567841029
1621784751775.102,-0.059140795287187034,0.2645983799705449,-0.15449278350515463,1.187,-7.404,-5.727
1621784751775.277,-0.059,0.264,-0.154,1.1890262238293476,-7.406135160594366,-5.7261502932328545
1621784751780.249,-0.061,0.246,-0.148,1.2465771977270657,-7.466780272873682,-5.702016013856392
1621784751785.221,-0.058,0.227,-0.138,1.3041281716247834,-7.5274253851529975,-5.6778817344799295
1621784751790.193,-0.049,0.215,-0.127,1.3616819714971589,-7.5880734753410914,-5.65374627001732
1621784751791.171,-0.048606600854574925,0.21008251068218653,-0.12365610726388684,1.373,-7.6,-5.649
1621784751795.164,-0.047,0.19,-0.11,1.443586776482745,-7.67083532147036,-5.600036637439786
1621784751800.135,-0.033,0.168,-0.094,1.5314577324600727,-7.759015682222255,-5.5390838968498795
1621784751805.105,-0.033,0.138,-0.079,1.6193114258361572,-7.847178719589102,-5.47814313066999
1621784751807.237,-0.030855458965669665,0.12599057020775012,-0.06827729482834831,1.657,-7.885,-5.452
1621784751810.076,-0.028,0.11,-0.054,1.6916376485607465,-7.909211009453175,-5.452
1621784751815.046,-0.021,0.099,-0.023,1.7522773640536187,-7.951596933037479,-5.452
1621784751820.016,-0.017,0.08,0.002,1.8129200583604366,-7.993984938751938,-5.452
1621784751823.301,-0.010390479933192514,0.05951048779289679,0.01125332809353048,1.853,-8.022,-5.452
1621784751824.986,-0.007,0.049,0.016,1.846914135425218,-8.003427620176959,-5.464381586548694
1621784751829.955,0.0,0.019,0.024,1.8289678007844568,-7.94866035756636,-5.50089309495576
1621784751834.925,0.016,0.0,0.026,1.8110179391285839,-7.8938823314786095,-5.53741177901426
1621784751839.36,0.02492546553333661,-0.014280744853338575,0.03224782587333563,1.795,-7.845,-5.57
1621784751839.894,0.026,-0.016,0.033,1.7868188287890998,-7.8394793722723195,-5.559889934763766
1621784751844.862,0.019,-0.024,0.047,1.710696902419367,-7.788112543909004,-5.46582056233938
1621784751849.829,0.0,-0.045,0.049,1.6345899393257401,-7.736755812715743,-5.371769681117988
1621784751854.798,-0.024,-0.068,0.061,1.5584530496799014,-7.685378887182373,-5.27768181749061
1621784751855.415,-0.02660848407392843,-0.0718506193472277,0.06075157294534015,1.549,-7.679,-5.266
1621784751859.765,-0.045,-0.099,0.059,1.3604058369960306,-7.663012851124663,-5.223457925874104
1621784751864.733,-0.068,-0.127,0.054,1.1450102808997307,-7.644753745076271,-5.174870135202957
1621784751869.7,-0.091,-0.154,0.045,0.9296570650768786,-7.626498228217724,-5.126291895426824
1621784751871.468,-0.09847515360039322,-0.1632549520766773,0.04001656426640452,0.853,-7.62,-5.109
1621784751874.667,-0.112,-0.18,0.031,0.7475701270058559,-7.608241280705757,-5.15005586736634
1621784751879.634,-0.133,-0.216,0.019,0.5838693893071716,-7.589983542474713,-5.2138032245798165
1621784751884.599,-0.147,-0.25,0.005,0.42023302152254927,-7.571732983496844,-5.277525515248308
1621784751887.519,-0.15523205506391347,-0.26117207472959686,-0.006172074729596852,0.324,-7.561,-5.315
1621784751889.565,-0.161,-0.269,-0.014,0.331394717624148,-7.568522212755599,-5.350061161148978
1621784751894.531,-0.152,-0.293,-0.037,0.34934411514118796,-7.586781082643622,-5.435166063169426
1621784751899.496,-0.154,-0.312,-0.051,0.3672899829600779,-7.605036361976631,-5.520254229552093
1621784751903.566,-0.15481956735496558,-0.31527826941986237,-0.057556538839724676,0.382,-7.62,-5.59
1621784751904.462,-0.155,-0.316,-0.059,0.40612710007304603,-7.624356281957634,-5.6058613343072805
1621784751909.427,-0.15,-0.33,-0.068,0.5398254200146092,-7.648496256391527,-5.693755600194789
1621784751914.391,-0.14,-0.34,-0.075,0.6734974433893353,-7.672631482834186,-5.78163257852447
1621784751919.356,-0.134,-0.347,-0.075,0.8071891891891891,-7.696770270270271,-5.869522522522522
1621784751919.609,-0.1338471450351645,-0.3471019033098903,-0.07510190330989032,0.814,-7.698,-5.874
1621784751924.32,-0.131,-0.349,-0.077,0.9350027395592353,-7.787283574820407,-5.9142363478631435
1621784751929.283,-0.122,-0.365,-0.079,1.062470412760258,-7.881337391939608,-5.956622443078047
1621784751934.246,-0.119,-0.36,-0.075,1.1899443565079753,-7.975395835869963,-5.999010623401924
1621784751935.65,-0.11447422274695002,-0.35943427784336873,-0.075,1.226,-8.002,-6.011
1621784751939.209,-0.103,-0.358,-0.075,1.3021166352067222,-8.130488430859161,-5.9981289654752485
1621784751944.173,-0.094,-0.358,-0.073,1.4082820586981672,-8.309700618035682,-5.980176794739085
1621784751949.135,-0.07,-0.353,-0.068,1.5144004901662302,-8.488833480484686,-5.962232570175973
1621784751951.688,-0.0571396595828414,-0.3483702774498229,-0.06542793191656829,1.569,-8.581,-5.953
1621784751954.098,-0.045,-0.344,-0.063,1.6146942029206195,-8.678250491084345,-5.941125519635761
1621784751959.06,-0.021,-0.333,-0.054,1.7087813951363615,-8.878495271885612,-5.9166752295533795
1621784751964.022,0.0,-0.318,-0.047,1.8028639582159554,-9.078730200545142,-5.892226142437301
1621784751967.721,0.017894881889763778,-0.30979817913385826,-0.040289419291338585,1.873,-9.228,-5.874
1621784751968.983,0.024,-0.307,-0.038,1.868356078025308,-9.25964163786146,-5.872504499703065
1621784751973.944,0.052,-0.297,-0.042,1.8500993284707101,-9.38403508397923,-5.866625207473619
1621784751978.905,0.087,-0.295,-0.033,1.8318434773339831,-9.508422408673539,-5.8607462045651815
1621784751983.754,0.12121613506595785,-0.3037984347312463,-0.03788801929513684,1.814,-9.63,-5.855
1621784751983.865,0.122,-0.304,-0.038,1.8105353395367254,-9.630138586418532,-5.853704216986736
1621784751988.826,0.161,-0.295,-0.033,1.655805887638396,-9.636327764494466,-5.795835401976761
1621784751993.786,0.192,-0.319,-0.051,1.5011068942935901,-9.642515724228257,-5.7379779784658025
1621784751998.746,0.22,-0.339,-0.061,1.3464002863104032,-9.648703988547584,-5.680117707080091
1621784751999.785,0.22293217168734003,-0.3459115475487301,-0.06581713920063005,1.314,-9.65,-5.668
1621784752003.706,0.234,-0.372,-0.084,1.5995147531494203,-9.467485856170121,-5.9248898807257
1621784752008.665,0.227,-0.405,-0.113,1.9605990982070773,-9.236664158301217,-6.249772967538501
1621784752013.623,0.183,-0.405,-0.155,2.3216123356741356,-9.005887915670176,-6.574592075799351
1621784752015.812,0.14547981488775108,-0.3741010240252068,-0.17353938558487594,2.481,-8.904,-6.718
1621784752018.582,0.098,-0.335,-0.197,2.448848563332216,-8.765022822145708,-7.124732959566105
1621784752023.541,-0.063,-0.215,-0.175,2.3912899539900665,-8.516221091440933,-7.852880313233188
1621784752028.499,-0.278,-0.124,-0.138,2.3337426795453853,-8.267468356744569,-8.58088427435327
1621784752031.837,-0.42543785700216663,-0.09437778215481583,-0.14271262556627928,2.295,-8.1,-9.071
1621784752033.457,-0.497,-0.08,-0.145,2.1303691140166405,-8.216091067020207,-9.137438877205815
1621784752038.415,-0.625,-0.038,-0.169,1.6265529548017432,-8.571361921306877,-9.340760263326324
1621784752043.372,-0.613,-0.003,-0.182,1.122836030599494,-8.92656279906129,-9.544041601901801
1621784752047.858,-0.49716706067769895,-0.0002851654846335698,-0.1892395587076438,0.667,-9.248,-9.728
1621784752048.329,-0.485,0.0,-0.19,0.6447893790202116,-9.249735664420937,-9.766655305917142
1621784752053.285,-0.276,-0.045,-0.22,0.4111865835441881,-9.26799071731244,-10.17321699234826
1621784752058.241,-0.024,-0.133,-0.269,0.17757227997439262,-9.286246669511934,-10.579798707435295
1621784752063.198,0.237,-0.232,-0.311,-0.05608805597049049,-9.30450621894339,-10.986460537145993
1621784752063.875,0.27046724137931033,-0.24484049261083746,-0.3196058620689655,-0.088,-9.307,-11.042
1621784752068.154,0.482,-0.326,-0.374,-0.07223470492278139,-8.50751249371122,-10.997643407070877
1621784752073.11,0.7,-0.415,-0.428,-0.053975134541795616,-7.5815356364246185,-10.946269022609119
1621784752078.065,0.864,-0.503,-0.485,-0.03572006159193816,-6.655786852255576,-10.894907291936638
1621784752079.889,0.9070679444225463,-0.5298714525029562,-0.49788357311785575,-0.029,-6.315,-10.876
1621784752083.02,0.981,-0.576,-0.52,-0.021374683660090862,-5.83577819617648,-10.373511205293166
1621784752087.975,1.035,-0.62,-0.546,-0.009307360429307559,-5.077393343903406,-9.578305546238985
1621784752092.93,1.026,-0.609,-0.555,0.002759368234899532,-4.319045857852853,-8.783139067597645
1621784752095.903,0.9863830835962145,-0.6029974369085174,-0.5531992310725552,0.01,-3.864,-8.306
1621784752097.883,0.96,-0.599,-0.552,-0.04949411298194241,-3.781499847486579,-8.069507808687163
1621784752102.837,0.876,-0.595,-0.545,-0.19834676976573937,-3.575086703879941,-7.477810761346998
1621784752107.791,0.773,-0.585,-0.552,-0.3472067624450952,-3.368663387628111,-6.8860845534407025
1621784752111.911,0.6798368906196086,-0.575850051757283,-0.552,-0.471,-3.197,-6.394
1621784752112.744,0.661,-0.574,-0.552,-0.4000738611233967,-3.2245794964083636,-6.359811831810764
1621784752117.698,0.536,-0.541,-0.532,0.021741264927023496,-3.388601519010508,-6.156486418886974
1621784752122.65,0.403,-0.473,-0.485,0.44336930561698373,-3.5525507938202505,-5.953251185773765
1621784752127.603,0.274,-0.398,-0.415,0.8651012826183105,-3.716540484070216,-5.749965852765789
1621784752127.919,0.26710989498594884,-0.39378938026919097,-0.40913065128432674,0.892,-3.727,-5.737
1621784752132.555,0.166,-0.332,-0.323,1.0426212913952744,-3.877331635065668,-5.845041810943149
1621784752137.507,0.061,-0.281,-0.234,1.2035145598486814,-4.037915493387434,-5.960451790045305
1621784752142.458,-0.03,-0.23,-0.152,1.3643681681590065,-4.198459767835624,-6.075833320621749
1621784752143.924,-0.055165162944337626,-0.223782724449046,-0.12624271557461914,1.412,-4.246,-6.11
1621784752147.41,-0.115,-0.209,-0.065,1.2795542536311484,-4.4339945380202614,-6.171866105211766
1621784752152.361,-0.199,-0.201,0.009,1.0914326864396435,-4.7010157756621505,-6.25973867936043
1621784752157.312,-0.271,-0.232,0.08,0.9033203954595386,-4.9680238465763455,-6.347606920541926
1621784752159.926,-0.30215109226293213,-0.24783953843877904,0.11537496917993983,0.804,-5.109,-6.394
1621784752162.263,-0.33,-0.262,0.147,0.6307339438339439,-5.203668131868132,-6.418397496947497
1621784752167.213,-0.379,-0.312,0.201,0.26372921245421255,-5.404190109890109,-6.470075228937729
1621784752172.163,-0.401,-0.367,0.244,-0.10329362026862021,-5.604721978021978,-6.52175550976801
1621784752175.922,-0.40631585696670774,-0.41712093711467324,0.26146638717632553,-0.382,-5.757,-6.561
1621784752177.113,-0.408,-0.433,0.267,-0.47326662291879684,-5.765709783753262,-6.623755108581196
1621784752182.062,-0.414,-0.504,0.288,-0.8525338867947563,-5.801904131121522,-6.884540021670456
1621784752187.011,-0.419,-0.564,0.305,-1.2318011506707158,-5.8380984784897825,-7.145324934759717
1621784752191.92,-0.4279271866212816,-0.6195469389768635,0.32781392136549753,-1.608,-5.874,-7.404
1621784752191.96,-0.428,-0.62,0.328,-1.6102356353422485,-5.8746634304207115,-7.407019234291995
1621784752196.909,-0.436,-0.675,0.333,-1.8865683427978261,-5.956665857605178,-7.780207638761678
1621784752201.857,-0.431,-0.737,0.344,-2.1628465225621296,-6.038652103559871,-8.15332240337058
1621784752206.805,-0.408,-0.784,0.335,-2.439124702326433,-6.1206383495145635,-8.526437167979482
1621784752207.913,-0.39993743523955194,-0.7972136478018453,0.332984358809888,-2.501,-6.139,-8.61
1621784752211.753,-0.372,-0.843,0.326,-2.533897235072291,-6.153167422403396,-8.81722856837509
1621784752216.701,-0.304,-0.895,0.302,-2.5762884013496388,-6.171423472114078,-9.084261973465244
1621784752221.648,-0.194,-0.935,0.279,-2.6186712010870394,-6.189675918716317,-9.351242675460695
1621784752223.904,-0.1310522730638235,-0.9541580038501407,0.2671402833308653,-2.638,-6.198,-9.473
1621784752226.594,-0.056,-0.977,0.253,-2.512623338933863,-6.204563341988697,-9.312955429967925
1621784752231.541,0.075,-1.009,0.229,-2.2820454406598443,-6.216633862837941,-9.01862042156713
1621784752236.487,0.169,-1.042,0.208,-2.0515130594165267,-6.22870200091645,-8.724343516114251
1621784752239.888,0.22193441247594137,-1.0536868183388441,0.19081350244287618,-1.893,-6.237,-8.522
1621784752241.434,0.246,-1.059,0.183,-1.7611491591183344,-6.201884919119556,-8.373026929598119
1621784752246.379,0.321,-1.047,0.169,-1.3394679762323003,-6.089580979730246,-7.896585974613164
1621784752251.325,0.372,-1.021,0.169,-0.9176826950982937,-5.977249316449509,-7.4200274031191285
1621784752255.871,0.3876254997778765,-0.9934255886272767,0.17543402932030208,-0.53,-5.874,-6.982
1621784752256.271,0.389,-0.991,0.176,-0.4995712059641297,-5.860512236854166,-6.94911888539216
1621784752261.216,0.387,-0.962,0.188,-0.12329817592960368,-5.693726740810901,-6.542521219713404
1621784752266.16,0.375,-0.906,0.199,0.25288197011824387,-5.526982416205811,-6.136023923737358
1621784752271.105,0.351,-0.855,0.209,0.6291550001527699,-5.360196920162547,-5.729426258058602
1621784752271.852,0.3464659949622166,-0.8486523929471033,0.210360201511335,0.686,-5.335,-5.668
1621784752276.048,0.321,-0.813,0.218,0.9333667532467532,-5.229435844155844,-5.521208051948052
1621784752280.992,0.29,-0.754,0.237,1.224818242933537,-5.1050584568372805,-5.3482554163483575
1621784752285.936,0.248,-0.703,0.264,1.5162841252864783,-4.9806749274255155,-5.175294239877769
1621784752287.831,0.23189785636668972,-0.6769298626889262,0.2724344561888768,1.628,-4.933,-5.109
1621784752290.879,0.206,-0.635,0.286,1.6411661597248757,-4.878618035918991,-5.090300236912495
1621784752295.822,0.157,-0.564,0.3,1.6625195108903323,-4.790419411539931,-5.059972288880397
1621784752300.765,0.108,-0.482,0.318,1.6838718074130685,-4.702225143293847,-5.0296458387466565
1621784752303.804,0.0877113646466143,-0.43220062231441697,0.31984442139576236,1.697,-4.648,-5.011
1621784752305.708,0.075,-0.401,0.321,1.6267838461656043,-4.638701426147567,-5.03436564711637
1621784752310.65,0.04,-0.328,0.328,1.4445405603705233,-4.61456734076214,-5.095010271931032
1621784752315.591,0.002,-0.262,0.333,1.2623242842512343,-4.590436832209841,-5.155645908806041
1621784752319.776,-0.014089269834996544,-0.21119177946843198,0.34062123307973524,1.108,-4.57,-5.207
1621784752320.533,-0.017,-0.202,0.342,1.0540889435941347,-4.592759285026223,-5.208896607085518
1621784752325.474,-0.051,-0.157,0.349,0.7022328098958732,-4.741300133025489,-5.221275011085457
1621784752330.415,-0.087,-0.131,0.365,0.3503940612528861,-4.889833641687436,-5.2336528034739525
1621784752335.356,-0.122,-0.131,0.386,-0.0014446873901010626,-5.038367150349383,-5.2460305958624485
1621784752335.743,-0.12528919413014478,-0.13178314145955827,0.38639157072977914,-0.029,-5.05,-5.247
1621784752340.297,-0.164,-0.141,0.391,-0.39549170552710045,-5.083654491246847,-5.3391220395994194
1621784752345.237,-0.201,-0.147,0.382,-0.7930253803226054,-5.12015952908799,-5.4390468465713635
1621784752350.177,-0.251,-0.143,0.372,-1.1905590551181102,-5.156664566929134,-5.538971653543308
1621784752351.711,-0.2634206780666205,-0.14144741524167243,0.3654791440150242,-1.314,-5.168,-5.57
1621784752355.117,-0.291,-0.138,0.351,-1.3997735260380821,-5.278950829701002,-5.676683490097117
1621784752360.055,-0.316,-0.131,0.33,-1.524127001605873,-5.43980607172899,-5.8313519920471055
1621784752364.994,-0.326,-0.126,0.316,-1.6485050699701767,-5.600693125334557,-5.986051082052459
1621784752367.674,-0.32328683703227723,-0.12382946962582175,0.3062326133161979,-1.716,-5.688,-6.07
1621784752369.933,-0.321,-0.122,0.298,-1.7437425809214955,-5.807321406718472,-6.072830875604234
1621784752374.872,-0.3,-0.101,0.29,-1.804396683595423,-6.068195940157866,-6.079020069754635
1621784752379.81,-0.255,-0.075,0.269,-1.8650387933671908,-6.329018891880315,-6.085208040139509
1621784752383.634,-0.21552905425437296,-0.060295137859472284,0.24965149718351615,-1.912,-6.531,-6.09
1621784752384.751,-0.204,-0.056,0.244,-1.9373313758389261,-6.549492602196461,-6.081765558267236
1621784752389.775,-0.131,-0.03,0.218,-2.051269966442953,-6.63267091214155,-6.044727669310555
1621784752394.693,-0.049,-0.007,0.192,-2.162811073825503,-6.714098993288591,-6.008469127516779
1621784752399.611,0.026,0.0,0.171,-2.274346644295302,-6.795523032336791,-5.972212385600977
1621784752399.64,0.026392630115216528,7.032181168057211e-05,0.17091795788637268,-2.275,-6.796,-5.972
1621784752404.527,0.093,0.012,0.157,-2.4530676294361653,-6.753866554002151,-5.8726634813335385
1621784752409.444,0.157,0.023,0.127,-2.632220494699647,-6.71147632508834,-5.772721554770318
1621784752414.361,0.213,0.021,0.094,-2.8113733599631283,-6.669086096174527,-5.672779628207098
1621784752415.531,0.22299523241954708,0.023141835518474374,0.08662256654747716,-2.854,-6.659,-5.649
1621784752419.277,0.255,0.03,0.063,-2.7360943921068404,-6.686589912246999,-5.489355806912662
1621784752424.192,0.274,0.049,0.037,-2.5814047549524353,-6.72278728734113,-5.279906038205597
1621784752429.107,0.258,0.08,0.019,-2.426707433647359,-6.7589864605265175,-5.070445865158525
1621784752431.417,0.24484005563282338,0.0983299225114246,0.021349990065567256,-2.354,-6.776,-4.972
1621784752434.022,0.23,0.119,0.024,-2.077242773677737,-6.904781519065191,-4.827141297662977
1621784752438.936,0.185,0.178,0.04,-1.5551650369003691,-7.147716328413284,-4.553878321033211
1621784752443.849,0.133,0.232,0.059,-1.0331910516605165,-7.390602859778598,-4.280669649446494
1621784752447.296,0.10703618470102888,0.27129658531736167,0.08285864108554103,-0.667,-7.561,-4.089
1621784752448.761,0.096,0.288,0.093,-0.6135646684301181,-7.580011534202756,-4.170491187869095
1621784752453.674,0.066,0.321,0.115,-0.4343724317175197,-7.643765594242126,-4.443767085999016
1621784752458.586,0.07,0.353,0.133,-0.255224717027559,-7.707503813976378,-4.716975086122048
1621784752463.171,0.07,0.3576669980119284,0.1526013916500994,-0.088,-7.767,-4.972
1621784752463.498,0.07,0.358,0.154,-0.12802768719620994,-7.746573924813881,-5.024147295883838
1621784752468.41,0.075,0.314,0.161,-0.729010551898111,-7.439893173567957,-5.807096136097951
1621784752473.32,0.073,0.241,0.129,-1.3297843167415246,-7.133319125699871,-6.589772565064911
1621784752478.231,0.084,0.169,0.079,-1.9306476958100043,-6.826699347812712,-7.372565741709223
1621784752479.043,0.08714210421638822,0.1565969570405728,0.07172354813046937,-2.03,-6.776,-7.502
1621784752483.141,0.103,0.094,0.035,-2.207203206992598,-6.829212624840343,-7.864155825369712
1621784752488.049,0.136,0.021,-0.002,-2.4194226797777882,-6.892940338242309,-8.297875505901544
1621784752492.958,0.176,-0.047,-0.031,-2.631684378991429,-6.956680731883724,-8.731681485927089
1621784752494.908,0.19189215539969157,-0.07123553698452967,-0.04013798935482266,-2.716,-6.982,-8.904
1621784752497.866,0.216,-0.108,-0.054,-2.5843347545677036,-7.325896193452061,-8.615119737712993
1621784752502.775,0.26,-0.155,-0.059,-2.365830867979128,-7.896606061538936,-8.135711068696414
1621784752507.682,0.309,-0.202,-0.047,-2.1474139178352085,-8.467088860498407,-7.656493142672434
1621784752510.769,0.3429716417910448,-0.2189858208955224,-0.03378880597014926,-2.01,-8.826,-7.355
1621784752512.589,0.363,-0.229,-0.026,-1.811876482000431,-8.948708018969606,-7.16812567363656
1621784752517.496,0.422,-0.234,0.0,-1.2777269731777168,-9.279534105256674,-6.6643044683275345
1621784752522.402,0.483,-0.229,0.033,-0.7436837680534598,-9.610294352231085,-6.160583530933391
1621784752526.625,0.5329241602388655,-0.19973411296342375,0.07862035332172182,-0.284,-9.895,-5.727
1621784752527.308,0.541,-0.195,0.086,-0.2231570517756491,-9.91486444697693,-5.733334216281147
1621784752532.213,0.562,-0.161,0.162,0.21370314473157354,-10.057493732097207,-5.778814704161149
1621784752537.118,0.494,-0.136,0.284,0.6505850863954168,-10.200130116733915,-5.824297455878276
1621784752542.021,0.372,-0.073,0.422,1.0872930668062954,-10.342709705239166,-5.869762096898389
1621784752542.478,0.36109623139343855,-0.06405331806641111,0.4337425200378354,1.128,-10.356,-5.874
1621784752546.925,0.255,0.023,0.548,1.2876945347529314,-10.113791944654166,-7.008139920802453
1621784752551.828,0.133,0.14,0.63,1.4637574305480654,-9.846758062279472,-8.258526848584767
1621784752556.731,-0.024,0.271,0.709,1.6398290935424724,-9.57971088272908,-9.50897604043081
1621784752558.323,-0.058750087155734855,0.27035046566064047,0.7245888241446287,1.697,-9.493,-9.915
1621784752561.633,-0.131,0.269,0.757,0.9796156501903486,-9.476491592299748,-10.57261973459102
1621784752566.535,-0.084,0.154,0.754,-0.08275660054561418,-9.452044342719748,-11.546486752670273
1621784752571.437,0.12,0.063,0.707,-1.14518176353632,-9.427595875525963,-12.52040227493411
1621784752574.163,0.2968849257746339,0.07189987047922686,0.6825253561821262,-1.736,-9.414,-13.062
1621784752576.338,0.438,0.079,0.663,-2.0416855152000988,-9.341355059505457,-12.872216809520873
1621784752581.237,0.808,0.131,0.632,-2.7303015045939447,-9.177708222852562,-12.444693315656409
1621784752586.137,1.119,0.134,0.583,-3.419020441511994,-9.014036921132146,-12.017105907381143
1621784752590.0,1.2948023516516367,0.10640770265557273,0.5222969458422599,-3.962,-8.885,-11.68
1621784752591.037,1.342,0.099,0.506,-3.876589367213519,-8.724396570864684,-11.41662871592451
1621784752595.936,1.473,0.093,0.436,-3.473140742568151,-7.965764647835204,-10.172558992228938
1621784752600.835,1.518,0.112,0.436,-3.0696921179227825,-7.2071327248057235,-8.928489268533365
1621784752605.733,1.484,0.152,0.478,-2.666323917602072,-6.4486520291106455,-7.684667540397188
1621784752605.834,1.4820809450231769,0.15210317499875392,0.4792587349847979,-2.658,-6.433,-7.659
1621784752610.631,1.391,0.157,0.539,-2.1109484668065153,-5.612877313672261,-6.880398676579467
1621784752615.528,1.262,0.138,0.585,-1.5525098870927936,-4.775683520483712,-6.085590526283317
1621784752620.425,1.115,0.131,0.604,-0.9940713073790721,-3.938489727295163,-5.290782375987167
1621784752621.662,1.0783631694425053,0.13529535254812008,0.6065266779694823,-0.853,-3.727,-5.09
1621784752625.321,0.97,0.148,0.614,-0.2226742729306488,-3.5501110853968987,-4.97438633032477
1621784752630.216,0.817,0.232,0.63,0.6205919463087248,-3.3134644758157834,-4.819715343670446
1621784752635.111,0.677,0.316,0.709,1.4638581655480982,-3.076817866234668,-4.665044357016122
1621784752637.486,0.615381246882793,0.34317047381546134,0.750240897755611,1.873,-2.962,-4.59
1621784752640.006,0.55,0.372,0.794,1.8121417811390648,-2.910382034264547,-4.822758789936718
1621784752644.901,0.412,0.414,0.815,1.6939334465195246,-2.81012156196944,-5.274859252971138
1621784752649.795,0.253,0.415,0.757,1.5757427998147864,-2.7098760919895044,-5.726892066676957
1621784752653.304,0.14686268835445565,0.3855970960981938,0.6960427602035726,1.491,-2.638,-6.051
1621784752654.688,0.105,0.374,0.672,1.3751096254207456,-2.7555534539727633,-6.158312386128524
1621784752659.581,-0.028,0.3,0.571,0.9653945279930829,-3.1711481487200075,-6.537701139486768
1621784752664.474,-0.145,0.241,0.464,0.5556794305654201,-3.5867428434672513,-6.917089892845011
1621784752669.116,-0.23895931712674087,0.22106923576099435,0.3700406828732591,0.167,-3.981,-7.277
1621784752669.365,-0.244,0.22,0.365,0.14242548262548263,-4.01592416988417,-7.283017606177606
1621784752674.257,-0.323,0.213,0.278,-0.3403433204633204,-4.702012911196912,-7.401234069498069
1621784752679.148,-0.36,0.199,0.201,-0.8229916602316601,-5.387930455598456,-7.519421034749035
1621784752684.039,-0.356,0.204,0.115,-1.3056640926640926,-6.07388223938224,-7.6376138996139
1621784752684.924,-0.3516562983673673,0.20780073892855358,0.0988921064456538,-1.393,-6.198,-7.659
1621784752688.929,-0.332,0.225,0.026,-1.549373395133256,-6.645324217844728,-7.537094646581692
1621784752693.819,-0.293,0.276,-0.049,-1.74031213595983,-7.191526612591734,-7.3882428891463885
1621784752698.708,-0.264,0.346,-0.101,-1.9312032135959827,-7.737592661259174,-7.239428288914639
1621784752700.726,-0.25574431960049937,0.386040049937578,-0.12122641697877654,-2.01,-7.963,-7.178
1621784752703.597,-0.244,0.443,-0.15,-1.8693368879821957,-8.039692291048468,-7.313574523986152
1621784752708.485,-0.216,0.534,-0.188,-1.629830396884273,-8.170275933481701,-7.544416697576657
1621784752713.373,-0.171,0.616,-0.222,-1.3903358679525222,-8.300853053907023,-7.775247341740851
1621784752716.523,-0.12265859019833142,0.6495167107958235,-0.23424649048308938,-1.236,-8.385,-7.924
1621784752718.26,-0.096,0.668,-0.241,-1.1917814915589635,-8.309432549007482,-8.073924942798838
1621784752723.146,-0.005,0.703,-0.264,-1.0674041184837053,-8.096877187557974,-8.49563230474306
1621784752728.033,0.103,0.705,-0.29,-0.9430018860923876,-7.884279342650424,-8.917423953373323
1621784752732.315,0.21605306550742015,0.7032472392944585,-0.31453864987757957,-0.834,-7.698,-9.287
1621784752732.919,0.232,0.703,-0.318,-0.8283372718836993,-7.65897309000928,-9.286234766470772
1621784752737.804,0.365,0.675,-0.339,-0.7825387565728426,-7.343334673677699,-9.28004577791525
1621784752742.69,0.513,0.637,-0.353,-0.736731085678936,-7.027633158057532,-9.273855552118775
1621784752747.574,0.663,0.581,-0.367,-0.690941725951129,-6.712057841014538,-9.267667800804206
1621784752748.101,0.6781092226943265,0.5738770807298175,-0.3678633841539615,-0.686,-6.678,-9.267
1621784752752.458,0.803,0.515,-0.375,-0.7022851132936355,-6.418266243909984,-8.790591431443817
1621784752757.342,0.911,0.435,-0.379,-0.7205403913077102,-6.127110030160081,-8.256547196659191
1621784752762.225,0.949,0.379,-0.363,-0.7387920191787178,-5.836012033098755,-7.722609744025984
1621784752763.886,0.946618473694739,0.35926735347069416,-0.3551749849969994,-0.745,-5.737,-7.541
1621784752767.107,0.942,0.321,-0.34,-0.8070587680071797,-5.562867996348276,-7.154765825429001
1621784752771.99,0.942,0.264,-0.339,-0.9011417983195877,-5.298878440899315,-6.569222755195197
1621784752776.871,0.929,0.229,-0.328,-0.9951871973014375,-5.034994475993006,-5.9839138904792115
1621784752779.664,0.9049711942388478,0.20382696539307862,-0.3188461692338468,-1.049,-4.884,-5.649
1621784752781.753,0.887,0.185,-0.312,-1.043835412474849,-4.837253861631327,-5.463207274415725
1621784752786.634,0.815,0.159,-0.3,-1.031767203219316,-4.728021095805603,-5.029061182479492
1621784752791.514,0.742,0.133,-0.288,-1.0197020120724345,-4.618815647732549,-4.595023665067327
1621784752795.438,0.6591784981739957,0.11048541697933864,-0.28639181549852416,-1.01,-4.531,-4.246
1621784752796.394,0.639,0.105,-0.286,-0.9832611401851794,-4.524451707800452,-4.197251602514477
1621784752801.273,0.511,0.087,-0.278,-0.8468082866255845,-4.491034682438919,-3.9484804137119505
1621784752806.152,0.372,0.07,-0.269,-0.7103486049608274,-4.457615984888366,-3.6996967763911686
1621784752811.03,0.225,0.052,-0.274,-0.5739230638218809,-4.42420564828291,-3.4509753816616606
1621784752811.206,0.22027272272272272,0.051566966966966964,-0.2739278278278279,-0.569,-4.423,-3.442
1621784752815.908,0.094,0.04,-0.272,-0.36708367274247744,-4.460877952085236,-3.4536318120576714
1621784752820.786,-0.012,0.028,-0.276,-0.15760819537577625,-4.500173942669536,-3.465699084756787
1621784752825.663,-0.11,0.03,-0.276,0.051835829216545615,-4.53946403295495,-3.4777645455530948
1621784752826.971,-0.1338672907488987,0.028390969162995595,-0.2709047356828194,0.108,-4.55,-3.481
1621784752830.54,-0.199,0.024,-0.257,0.19905588695557863,-4.681147658077811,-3.5165616274926013
1621784752835.416,-0.283,0.045,-0.243,0.32345346368974764,-4.860317302180009,-3.565144760694752
1621784752840.292,-0.347,0.068,-0.236,0.4478510404239166,-5.039486946282208,-3.6137278938969026
1621784752842.728,-0.3809795673076923,0.07249729567307693,-0.23250210336538463,0.51,-5.129,-3.638
1621784752845.167,-0.415,0.077,-0.229,0.5555216986980781,-5.22159175449473,-3.7109276193428395
1621784752850.042,-0.482,0.099,-0.22,0.6465104153750776,-5.4066640421574705,-3.8566952572845628
1621784752854.915,-0.529,0.113,-0.204,0.7374626782393057,-5.591662182269064,-4.002404494730316
1621784752858.48,-0.5531367461430575,0.1327482468443198,-0.19741725105189342,0.804,-5.727,-4.109
1621784752859.789,-0.562,0.14,-0.195,0.7975157209302326,-5.767734573643411,-4.177500589147287
1621784752864.662,-0.569,0.147,-0.199,0.7733780465116279,-5.919368682170543,-4.432493457364341
1621784752869.535,-0.56,0.143,-0.199,0.7492415813953488,-6.070995193798449,-4.687473550387597
1621784752874.227,-0.5349652304609219,0.13818562124248499,-0.197074248496994,0.726,-6.217,-4.933
1621784752874.408,-0.534,0.138,-0.197,0.7237475457125575,-6.221401479551481,-4.937619829711999
1621784752879.28,-0.492,0.117,-0.194,0.6630863071697762,-6.339938491601917,-5.062037267947704
1621784752884.151,-0.447,0.087,-0.183,0.6024402673738737,-6.458445804060236,-5.1864235332433815
1621784752889.022,-0.391,0.059,-0.178,0.5417911878285954,-6.576959056436979,-5.310816033127065
1621784752889.969,-0.3791405874097835,0.04927917000801924,-0.178,0.53,-6.6,-5.335
1621784752893.893,-0.33,0.009,-0.178,0.4686669458792871,-6.543653373043572,-5.298349760342501
1621784752898.763,-0.269,-0.031,-0.182,0.39255107264181677,-6.473725782183132,-5.252865884871329
1621784752903.633,-0.201,-0.075,-0.188,0.31643138349853406,-6.403794685653125,-5.207379729163758
1621784752905.708,-0.1792656069798927,-0.08906343077771649,-0.1956709622423908,0.284,-6.374,-5.188
1621784752908.502,-0.15,-0.108,-0.206,0.3379895092957571,-6.3601474285359565,-5.0137772742791515
1621784752913.37,-0.12,-0.143,-0.22,0.43206070951922776,-6.3360107390049345,-4.710211986715913
1621784752918.238,-0.105,-0.169,-0.227,0.5261271920295477,-6.311875259939788,-4.40666192308886
1621784752921.44,-0.11749736696925622,-0.1749198054064898,-0.2197646822809569,0.588,-6.296,-4.207
1621784752923.106,-0.124,-0.178,-0.216,0.5734889640828237,-6.3208911929966165,-4.121840343960513
1621784752927.973,-0.168,-0.194,-0.201,0.5310977710862074,-6.393606013100301,-3.873062831775991
1621784752932.84,-0.23,-0.201,-0.19,0.48870445161891163,-6.466324480799677,-3.6242728401577002
1621784752937.169,-0.29672143896442726,-0.2161235261652702,-0.18822076162761528,0.451,-6.531,-3.403
1621784752937.706,-0.305,-0.218,-0.188,0.41280330160110573,-6.546408507135869,-3.420082602146196
1621784752942.572,-0.393,-0.23,-0.194,0.06675857624275927,-6.68600257791996,-3.5748432127715746
1621784752947.438,-0.471,-0.251,-0.206,-0.2792861491155872,-6.825596648704051,-3.7296038233969533
1621784752952.302,-0.52,-0.276,-0.227,-0.6251919773888468,-6.965134688553103,-3.8843023154690726
1621784752952.89,-0.5225381719620539,-0.2808346132610551,-0.22929644129900115,-0.667,-6.982,-3.903
1621784752957.166,-0.541,-0.316,-0.246,-0.7336486759338355,-7.091358235613885,-4.4712819756154385
1621784752962.03,-0.524,-0.351,-0.26,-0.8094603556729052,-7.215751277471461,-5.117692583676322
1621784752966.894,-0.487,-0.386,-0.264,-0.8852720354119749,-7.3401443193290365,-5.764103191737206
1621784752968.609,-0.46795808022491087,-0.38529474371203376,-0.2583579496962699,-0.912,-7.384,-5.992
1621784752971.757,-0.433,-0.384,-0.248,-0.6566118178852696,-7.266220979542384,-6.467322475418239
1621784752976.62,-0.377,-0.356,-0.199,-0.26211184118551667,-7.08428687264085,-7.2015565496994265
1621784752981.482,-0.344,-0.34,-0.152,0.1322891094645603,-6.902398434223403,-7.935606319026982
1621784752984.326,-0.32118749686166204,-0.3288862164197841,-0.12743268892794377,0.363,-6.796,-8.365
1621784752986.344,-0.305,-0.321,-0.11,0.6287791073537639,-6.88412202399453,-8.347401286753279
1621784752991.205,-0.271,-0.297,-0.061,1.2689832939640704,-7.096388854354448,-8.305009806054578
1621784752996.065,-0.239,-0.257,-0.009,1.9090267141169888,-7.308602380804376,-8.262628970597376
1621784753000.036,-0.24471819597207572,-0.19409984430716687,0.02530917583245442,2.432,-7.482,-8.228
1621784753000.926,-0.246,-0.18,0.033,2.390333696125381,-7.611534019528578,-8.144610703401952
1621784753005.785,-0.276,-0.082,0.045,2.1628946451893776,-8.318606443186765,-7.689423160644319
1621784753010.644,-0.3,0.021,0.035,1.9354441663038746,-9.0257143945519,-7.234212746439455
1621784753015.503,-0.297,0.105,0.014,1.7080051153678713,-9.732786818210087,-6.779025203681821
1621784753015.738,-0.29385436454093167,0.10635504296698327,0.011967435549525101,1.697,-9.767,-6.757
1621784753020.361,-0.232,0.133,-0.028,0.8419626230732141,-9.934590860307042,-6.933132398002831
1621784753025.219,-0.11,0.127,-0.075,-0.056512964489586315,-10.110695789457312,-7.118212798058827
1621784753030.077,0.049,0.087,-0.122,-0.9549885520523866,-10.286800718607582,-7.303293198114822
1621784753031.434,0.08951545614476,0.06548489570243779,-0.13625026388539835,-1.206,-10.336,-7.355
1621784753034.934,0.194,0.01,-0.173,-1.4138780222173817,-10.401575255935526,-7.409646046612939
1621784753039.791,0.309,-0.099,-0.232,-1.7023493792202133,-10.492573731213243,-7.48547810934437
1621784753044.646,0.361,-0.197,-0.307,-1.9907047328624325,-10.583535613156176,-7.561279677630146
1621784753047.126,0.35487149321266964,-0.20261779788838613,-0.34632458521870285,-2.138,-10.63,-7.6
1621784753049.502,0.349,-0.208,-0.384,-2.2374977436120878,-10.441454047493076,-8.041152096106563
1621784753054.357,0.328,-0.112,-0.403,-2.440807662382123,-10.056186393202827,-8.9425855715664
1621784753059.211,0.227,-0.049,-0.398,-2.6440766860664153,-9.670996234166381,-9.843837726805887
1621784753062.815,0.08295875666431948,-0.09132139623780304,-0.4707631023035912,-2.795,-9.385,-10.513
1621784753064.065,0.033,-0.106,-0.496,-2.6847905058365757,-9.552266614785992,-10.50048887159533
1621784753068.919,-0.079,-0.211,-0.635,-2.2568246536964978,-10.201796856031129,-10.451905618677042
1621784753073.772,-0.01,-0.213,-0.702,-1.8289449027237352,-10.851196420233464,-10.40333214007782
1621784753078.501,0.19853103933997382,-0.1467378005835597,-0.708821108763457,-1.412,-11.484,-10.356
1621784753078.625,0.204,-0.145,-0.709,-1.3849330323082911,-11.477324219540677,-10.363751498637603
1621784753083.478,0.517,-0.138,-0.742,-0.32580471778902287,-11.216101455819386,-10.667067029972753
1621784753088.329,0.892,-0.213,-0.806,0.7328973452705334,-10.954983822499027,-10.970260490463215
1621784753093.181,1.248,-0.271,-0.833,1.7917592526274815,-10.693826765278319,-11.273499727520436
1621784753094.181,1.2976797181680926,-0.2681140412682436,-0.8340306995470558,2.01,-10.64,-11.336
1621784753098.032,1.489,-0.257,-0.838,2.145133409136929,-9.336576844597436,-10.793992180807154
1621784753102.882,1.578,-0.216,-0.846,2.315322347003941,-7.69502718026199,-10.111379822744194
1621784753107.732,1.573,-0.19,-0.873,2.485502718026199,-6.053560147038208,-9.428801825516738
1621784753109.855,1.5300935454636995,-0.1834326855301581,-0.8835077031517471,2.56,-5.335,-9.13
1621784753112.581,1.475,-0.175,-0.897,2.00201318249813,-4.876013649962603,-8.466227094240839
1621784753117.43,1.33,-0.183,-0.93,1.0095202412116682,-4.059613157566692,-7.28557209860384
1621784753122.279,1.143,-0.211,-0.974,0.016977327973074274,-3.243171559461481,-6.104857657068063
1621784753125.523,1.015864481039432,-0.23308143224051972,-0.994743163619882,-0.647,-2.697,-5.315
1621784753127.127,0.953,-0.244,-1.005,-0.7645481578455209,-2.736114456704694,-5.164378623527212
1621784753131.974,0.747,-0.255,-1.012,-1.1197690293622593,-2.854315129979428,-4.709213203665607
1621784753136.822,0.532,-0.258,-0.997,-1.475043575836918,-2.972533663736675,-4.253979006919768
1621784753141.188,0.3211771877676457,-0.25169333467680993,-0.9726742908962668,-1.795,-3.079,-3.844
1621784753141.668,0.298,-0.251,-0.97,-1.7703265360210778,-3.105451179396037,-3.888197683301373
1621784753146.515,0.038,-0.222,-0.942,-1.5211697301342313,-3.372559655769141,-4.334513352976942
1621784753151.36,-0.223,-0.188,-0.897,-1.2721007748312365,-3.6395739519511094,-4.780671655519698
1621784753156.206,-0.48,-0.143,-0.826,-1.0229941692780193,-3.906628611072136,-5.226897401119373
1621784753156.848,-0.5079582178317625,-0.1363748298976866,-0.8146047074240209,-0.99,-3.942,-5.286
1621784753161.05,-0.691,-0.093,-0.74,-0.6032828364724959,-4.7079200449045775,-5.938669078208806
1621784753165.894,-0.827,-0.045,-0.648,-0.15749761444430577,-5.590828458276164,-6.691028314830984
1621784753170.738,-0.881,-0.049,-0.546,0.2882876075838843,-6.473736871647748,-7.443387551453162
1621784753172.506,-0.8729699611914722,-0.057395040572551785,-0.5021997883171211,0.451,-6.796,-7.718
1621784753175.582,-0.859,-0.072,-0.426,0.5993923278524851,-7.274000187201647,-7.935773111603382
1621784753180.425,-0.784,-0.117,-0.307,0.8330345699042152,-8.02660672053914,-8.278654706561419
1621784753185.267,-0.674,-0.176,-0.188,1.066629699541356,-8.779061495741162,-8.621467161711024
1621784753188.156,-0.5946439592577653,-0.21358970350947962,-0.11461057886244454,1.206,-9.228,-8.826
1621784753190.109,-0.541,-0.239,-0.065,1.153452189245701,-9.278176294354461,-8.728018927690917
1621784753194.951,-0.428,-0.318,0.059,1.023163311799769,-9.402585151203072,-8.48508123459102
1621784753199.792,-0.337,-0.415,0.161,0.892900711543863,-9.526968916768093,-8.242192538151858
1621784753203.802,-0.2790167431539664,-0.4878932371778708,0.23720656614050128,0.785,-9.63,-8.041
1621784753204.633,-0.267,-0.503,0.253,0.7787298512355412,-9.565916954153074,-8.041
1621784753209.473,-0.23,-0.592,0.339,0.7422141552582695,-9.19271416306333,-8.041
1621784753214.312,-0.206,-0.668,0.422,0.7057039852640452,-8.819567849393547,-8.041
1621784753219.151,-0.192,-0.74,0.478,0.6691956572641701,-8.446440361530415,-8.041
1621784753219.442,-0.19139861762776852,-0.7426460824378185,0.48076635891226477,0.667,-8.424,-8.041
1621784753223.99,-0.182,-0.784,0.524,0.5099405152224825,-8.10726337236534,-8.169556096799376
1621784753228.828,-0.138,-0.82,0.539,0.34287353629976586,-7.770344964871194,-8.306303512880563
1621784753233.666,-0.066,-0.826,0.531,0.1757981264637003,-7.433409555035128,-8.443057829820454
1621784753235.079,-0.036493236422370276,-0.8268764385221078,0.5231120533010297,0.127,-7.335,-8.483
1621784753238.503,0.035,-0.829,0.504,0.07135616095976005,-7.242771432141964,-8.377627218195451
1621784753243.34,0.145,-0.817,0.483,-0.007257029492626854,-7.1124716164708826,-8.228757357535617
1621784753248.177,0.246,-0.792,0.468,-0.08586625218695329,-6.98217837728068,-8.079895010622344
1621784753250.708,0.2925897293476066,-0.7736781963239749,0.45857735810947287,-0.127,-6.914,-8.002
1621784753253.012,0.335,-0.757,0.45,-0.106798921875,-6.814174234375,-7.782294843750001
1621784753257.848,0.414,-0.714,0.422,-0.06439742187499999,-6.604642734375,-7.32113984375
1621784753262.683,0.499,-0.653,0.398,-0.022002343749999986,-6.39514296875,-6.8600546875
1621784753266.333,0.5556173500302969,-0.6077061199757625,0.37308836598666933,0.01,-6.237,-6.512
1621784753267.518,0.574,-0.593,0.365,0.059838688504094524,-6.168576108020254,-6.395178721010189
1621784753272.351,0.635,-0.539,0.337,0.2630951115834219,-5.889523910733263,-5.918748140276302
1621784753277.184,0.695,-0.471,0.33,0.4663515346627493,-5.610471713446271,-5.442317559542414
1621784753281.955,0.7275699999999999,-0.40388606060606064,0.3457915151515151,0.667,-5.335,-4.972
1621784753282.018,0.728,-0.403,0.346,0.6688595975546835,-5.332152113072437,-4.965432917963071
1621784753286.85,0.721,-0.36,0.358,0.8115152363232696,-5.113681655435514,-4.461651182788975
1621784753291.683,0.707,-0.297,0.382,0.9541997060616958,-4.895167044512891,-3.9577676323894995
1621784753296.514,0.667,-0.246,0.415,1.0968193061179816,-4.676751778483091,-3.4541131662471267
1621784753297.57,0.6538856103476153,-0.23113702506063055,0.42352435327405014,1.128,-4.629,-3.344
1621784753301.346,0.607,-0.178,0.454,1.0211060968554049,-4.4060222201372925,-3.109171991055652
1621784753306.177,0.529,-0.117,0.492,0.8843405107035074,-4.120732920517271,-2.8087208956857594
1621784753311.007,0.438,-0.065,0.525,0.7476025707182061,-3.8355012900501944,-2.5083305343153355
1621784753313.183,0.3956493959460142,-0.038868776222008794,0.5344613051609969,0.686,-3.707,-2.373
1621784753315.837,0.344,-0.007,0.546,0.5075941734205339,-3.610228870044122,-2.277929592890447
1621784753320.665,0.229,0.049,0.552,0.18301702287448762,-3.4341712926745314,-2.1049661732953657
1621784753325.494,0.096,0.094,0.557,-0.14160936571017302,-3.2580870075413837,-1.931976515317458
1621784753328.787,-0.01856784630940342,0.12741562184024266,0.563819514661274,-0.363,-3.138,-1.814
1621784753330.323,-0.072,0.143,0.567,-0.4489461197790332,-3.187224581774933,-1.8217774839204395
1621784753335.151,-0.257,0.192,0.576,-0.7191073848609568,-3.341956119622541,-1.8462250669003615
1621784753339.978,-0.44,0.244,0.578,-0.9892276646687845,-3.4966641836590977,-1.8706689410181374
1621784753344.388,-0.578868848313186,0.26684027110414243,0.5661230590258459,-1.236,-3.638,-1.893
1621784753344.805,-0.592,0.269,0.565,-1.2464795116606668,-3.66449284708092,-1.9289030208170292
1621784753349.632,-0.721,0.307,0.541,-1.3677915166692753,-3.9711770230082952,-2.3445204257317265
1621784753354.458,-0.819,0.333,0.522,-1.4890728439505398,-4.277783643762717,-2.7600327281264674
1621784753359.284,-0.901,0.358,0.511,-1.6103541712318046,-4.584390264517138,-3.1755450305212083
1621784753359.986,-0.9100129397492924,0.3597444399514759,0.5099824100283057,-1.628,-4.629,-3.236
1621784753364.114,-0.963,0.37,0.504,-1.7267592660550457,-4.930706972477064,-3.6517196330275232
1621784753369.095,-1.0,0.377,0.482,-1.8459269113149845,-5.294761009174312,-4.1533467889908255
1621784753374.074,-1.012,0.375,0.45,-1.9650478287461772,-5.658672293577982,-4.654777247706423
1621784753375.953,-1.0048314540641239,0.36783145406412393,0.44019041082459065,-2.01,-5.796,-4.844
1621784753379.054,-0.993,0.356,0.424,-2.079948966124065,-6.011435107787066,-5.1690796304443465
1621784753384.035,-0.949,0.342,0.391,-2.1923012576421863,-6.357467785245081,-5.691223751080905
1621784753389.015,-0.876,0.326,0.358,-2.3046315214588042,-6.70343261980976,-6.213265500553726
1621784753392.046,-0.8133133486935634,0.3241741752046669,0.3354814941908917,-2.373,-6.914,-6.531
1621784753393.995,-0.773,0.323,0.321,-2.3564072905447433,-7.043471579618028,-6.632009632742221
1621784753398.976,-0.654,0.311,0.281,-2.3140069325404653,-7.3743181687171,-6.890125680739066
1621784753403.956,-0.497,0.281,0.278,-2.2716148875168765,-7.705099892295323,-7.148191122707483
1621784753408.14,-0.3524974017060496,0.26671776644769096,0.2527960584371017,-2.236,-7.983,-7.365
1621784753408.936,-0.325,0.264,0.248,-2.272848854846049,-7.982010768997421,-7.348034688305779
1621784753413.916,-0.152,0.236,0.211,-2.503343470347338,-7.975822994084635,-7.241914348551494
1621784753418.896,0.023,0.197,0.187,-2.7338380858486273,-7.969635219171849,-7.13579400879721
1621784753423.876,0.176,0.164,0.147,-2.9643327013499166,-7.963447444259063,-7.029673669042925
1621784753424.236,0.18496656534954406,0.1614691146190803,0.14331213844494559,-2.981,-7.963,-7.022
1621784753428.856,0.3,0.129,0.096,-3.0430002730375425,-7.687156192643155,-6.698220796359499
1621784753433.836,0.389,0.099,0.052,-3.1098333105802047,-7.389811058020478,-6.349203822525597
1621784753438.816,0.435,0.098,0.026,-3.176666348122867,-7.092465923397801,-6.000186848691695
1621784753440.331,0.4353042455142661,0.10043396411412883,0.021132071771742325,-3.197,-7.002,-5.894
1621784753443.796,0.436,0.106,0.01,-2.903544654641443,-6.974441464265667,-5.539183852420468
1621784753448.776,0.408,0.133,0.014,-2.4817646282446106,-6.9348318946553995,-5.029210643688275
1621784753453.756,0.353,0.182,0.023,-2.0599639243290806,-6.895220383209187,-4.5192124338182875
1621784753456.424,0.3106849328497206,0.20342535045583765,0.033177041466522894,-1.834,-6.874,-4.246
1621784753458.737,0.274,0.222,0.042,-1.7240627986348123,-6.871269533560865,-4.196707895335609
1621784753463.717,0.18,0.284,0.051,-1.487362457337884,-6.865390701554797,-4.090579507015549
1621784753468.697,0.07,0.342,0.058,-1.2506621160409557,-6.85951186954873,-3.984451118695487
1621784753472.519,-0.026702127659574457,0.3849787234042553,0.067209726443769,-1.069,-6.855,-3.903
1621784753473.677,-0.056,0.398,0.07,-1.0951145929712265,-6.8246408864081065,-4.050479106311335
1621784753478.656,-0.195,0.424,0.08,-1.2074023874167665,-6.6941024587055775,-4.684611278799921
1621784753483.636,-0.347,0.422,0.066,-1.3197122055544601,-6.563538427702529,-5.318867827511414
1621784753488.615,-0.4919715658397882,0.41000235317187955,0.05100294146484949,-1.432,-6.433,-5.953
1621784753488.616,-0.492,0.41,0.051,-1.4320428391559594,-6.433079125013274,-5.953141624065169
1621784753493.596,-0.609,0.391,0.026,-1.65050111497095,-6.836577130201301,-6.6753535443940475
1621784753498.576,-0.684,0.349,0.003,-1.8689593907859408,-7.24007513538933,-7.397565464722927
1621784753503.556,-0.714,0.304,-0.023,-2.087417666600931,-7.643573140577358,-8.119777385051805
1621784753504.709,-0.7091376115305422,0.2905705461319737,-0.026241592312971858,-2.138,-7.737,-8.287
1621784753508.536,-0.693,0.246,-0.037,-2.0937747440273036,-8.432002275312856,-8.47341183162685
1621784753513.516,-0.637,0.169,-0.04,-2.0362212514220706,-9.336458505877891,-8.716002897231704
1621784753518.496,-0.538,0.101,-0.03,-1.9786705802047782,-10.24087039817975,-8.958582070534698
1621784753520.804,-0.4763641043239534,0.0648526326110403,-0.019341160898127267,-1.952,-10.66,-9.071
1621784753523.476,-0.405,0.023,-0.007,-1.792286841107319,-10.832496852483883,-9.071
1621784753528.456,-0.239,-0.037,0.017,-1.494632294273796,-11.153976139552523,-9.071
1621784753533.436,-0.031,-0.07,0.038,-1.1969777474402732,-11.47545542662116,-9.071
1621784753536.899,0.11919825473085596,-0.0818211589371507,0.053993332679674474,-0.99,-11.699,-9.071
1621784753538.416,0.185,-0.087,0.061,-0.8920593437599551,-11.689762094021631,-8.993326178304335
1621784753543.396,0.379,-0.099,0.093,-0.5705605497489419,-11.659437857435416,-8.738355046191653
1621784753548.376,0.49,-0.093,0.175,-0.24906175573792877,-11.629113620849198,-8.483383914078972
1621784753552.993,0.48351029512697324,-0.08280189234238651,0.2992314932836553,0.049,-11.601,-8.247
1621784753553.356,0.483,-0.082,0.309,0.06891689040576413,-11.562068456579448,-8.279074539249146
1621784753558.334,0.429,-0.035,0.403,0.34202072051573756,-11.028232430792567,-8.71888614334471
1621784753563.314,0.344,0.054,0.454,0.6152317026924535,-10.494186954872962,-9.158870307167236
1621784753568.294,0.218,0.101,0.511,0.8884426848691696,-9.960141478953355,-9.598854470989762
1621784753569.088,0.20221668791057948,0.09302863025786842,0.5180148053730758,0.932,-9.875,-9.669
1621784753573.274,0.119,0.051,0.555,0.36807069496488,-9.785780557367598,-9.788913011817893
1621784753578.254,0.129,-0.012,0.579,-0.3028163903090252,-9.679639288802585,-9.931569352367372
1621784753583.234,0.264,-0.054,0.597,-0.9737034755829302,-9.573498020237572,-10.074225692916851
1621784753585.181,0.33398014608559246,-0.0520452473160449,0.5954361978528359,-1.236,-9.532,-10.13
1621784753588.214,0.443,-0.049,0.593,-1.6629318647307814,-9.341624201599078,-9.906449805046046
1621784753593.194,0.639,-0.01,0.552,-2.3638781120568018,-9.029060974314627,-9.539420114393216
1621784753598.173,0.827,0.023,0.482,-3.064686905466296,-8.716559039946596,-9.172462397402638
1621784753601.273,0.9291039521427871,0.03607428655486908,0.4490029910758066,-3.501,-8.522,-8.944
1621784753603.152,0.991,0.044,0.429,-3.4735611717055264,-8.224259522762095,-8.735581665933466
1621784753608.132,1.108,0.052,0.391,-3.4008448900957204,-7.435210509549309,-8.183247356684516
1621784753613.112,1.162,0.077,0.365,-3.328128608485915,-6.646161496336524,-7.630913047435567
1621784753617.367,1.1440576527110502,0.11288469457789979,0.36756319246985,-3.266,-5.972,-7.159
1621784753618.092,1.141,0.119,0.368,-3.1771536536156915,-5.86157282201423,-7.094933314118414
1621784753623.071,1.04,0.15,0.391,-2.56707540844344,-5.103306199845269,-6.655008737731527
1621784753628.051,0.888,0.143,0.428,-1.9568775048922196,-4.344890854204275,-6.21499787624581
1621784753633.031,0.695,0.108,0.463,-1.3466796013409992,-3.58647550856328,-5.774987014760091
1621784753633.461,0.6791117975875257,0.10679111503383348,0.4656768167107973,-1.294,-3.521,-5.737
1621784753638.01,0.511,0.094,0.494,-0.6204703981797497,-3.4350776336746303,-5.504105164960182
1621784753642.99,0.346,0.103,0.536,0.1168589002654532,-3.34101632157755,-5.24914950322336
1621784753647.97,0.199,0.152,0.581,0.8541881987106561,-3.2469550094804704,-4.994193841486538
1621784753649.556,0.15663616750024517,0.17206707855251543,0.6004300284397371,1.089,-3.217,-4.913
1621784753652.949,0.066,0.215,0.642,1.2894975349281717,-3.3865058023998422,-5.051514069871513
1621784753657.928,-0.038,0.26,0.714,1.5837086967734106,-3.6352395291333566,-5.254770361493303
1621784753662.908,-0.154,0.288,0.742,1.8779775640539433,-3.884022041534564,-5.458066519015185
