time,gyro_x,gyro_y,gyro_z,acc_x,acc_y,acc_z
1621785667482.494,,,,1.971,-2.883,-8.561
1621785667501.142,,,,2.079,-2.903,-8.463
1621785667517.744,0.52,-0.3,-0.319,2.1648476818632694,-2.9371638733945664,-8.359632383062594
1621785667520.094,0.5219862165731265,-0.30357518983162757,-0.319,2.177,-2.942,-8.345
1621785667523.66,0.525,-0.309,-0.319,2.1842218010319865,-2.985515980577355,-8.31963110919533
1621785667529.605,0.527,-0.307,-0.318,2.196261926797419,-3.058065456343421,-8.27733630842958
1621785667535.579,0.527,-0.305,-0.318,2.2083608910075183,-3.1309694714555576,-8.234834818768462
1621785667539.351,0.5326533582696373,-0.30751260367539435,-0.3167436981623028,2.216,-3.177,-8.208
1621785667541.584,0.536,-0.309,-0.316,2.229466447056475,-3.2027916697861296,-8.212450774874597
1621785667547.616,0.545,-0.325,-0.311,2.265844700656335,-3.2724652741384044,-8.224474095979636
1621785667553.678,0.562,-0.333,-0.307,2.3024040577974096,-3.3424857378153776,-8.236557273339821
1621785667558.917,0.5817794653949425,-0.3347199535126037,-0.30098016270588707,2.334,-3.403,-8.247
1621785667559.77,0.585,-0.335,-0.3,2.3401757223180986,-3.4067929633134777,-8.249869036352502
1621785667564.727,0.599,-0.356,-0.291,2.3760634916216667,-3.428834270444803,-8.266541307131325
1621785667570.333,0.607,-0.367,-0.283,2.4166493347436395,-3.453761008740188,-8.285396147636808
1621785667575.945,0.627,-0.389,-0.276,2.4572793659188332,-3.478714886154874,-8.30427151645048
1621785667576.459,0.6283719313491202,-0.3906463176189442,-0.27453660656093853,2.461,-3.481,-8.306
1621785667581.564,0.642,-0.407,-0.26,2.483184633566565,-3.481,-8.328184633566565
1621785667587.188,0.658,-0.422,-0.251,2.507624864022777,-3.481,-8.352624864022777
1621785667592.818,0.675,-0.447,-0.244,2.532091618431125,-3.481,-8.377091618431125
1621785667594.638,0.6808110788687254,-0.45087405257915025,-0.24174013599549568,2.54,-3.481,-8.385
1621785667598.455,0.693,-0.459,-0.237,2.5318397703549063,-3.4604948075584816,-8.405505192441519
1621785667604.098,0.71,-0.483,-0.234,2.519776617954071,-3.4301822707563834,-8.435817729243617
1621785667609.747,0.73,-0.504,-0.23,2.5076998956158665,-3.3998356351373054,-8.466164364862696
1621785667612.881,0.7355420282346846,-0.5167466649397746,-0.22612058023572076,2.501,-3.383,-8.483
1621785667615.402,0.74,-0.527,-0.223,2.4780040672631984,-3.3748756884343036,-8.497871621171106
1621785667621.063,0.763,-0.548,-0.23,2.4263667737934895,-3.3566325727773405,-8.531265798983851
1621785667626.731,0.782,-0.578,-0.232,2.374664897518303,-3.338366640440598,-8.564701742922296
1621785667631.189,0.7945708876554366,-0.5952849705262252,-0.23907112430618305,2.334,-3.324,-8.591
1621785667632.405,0.798,-0.6,-0.241,2.3261894700473076,-3.3214185536597034,-8.602649603997236
1621785667638.085,0.81,-0.611,-0.257,2.289708446287142,-3.3093612661457503,-8.657061978419177
1621785667643.771,0.82,-0.614,-0.271,2.2531882209110723,-3.297291022165524,-8.711532823047891
1621785667649.463,0.831,-0.635,-0.283,2.216630361983735,-3.2852083399776753,-8.766059799075107
1621785667649.561,0.8310344487767256,-0.6350688975534513,-0.28329281460216804,2.216,-3.285,-8.767
1621785667655.161,0.833,-0.639,-0.3,2.1236566282611578,-3.2761909283538606,-8.877265276122367
1621785667660.866,0.838,-0.646,-0.325,2.029578069129917,-3.2672163289630514,-8.989602502979738
1621785667666.577,0.838,-0.649,-0.349,1.9354028870348299,-3.258232512250033,-9.10205510528407
1621785667667.996,0.838744715377717,-0.6529718153478242,-0.35669539223640945,1.912,-3.256,-9.13
1621785667672.294,0.841,-0.665,-0.38,1.7389152193422373,-3.29015229900227,-9.166475584648683
1621785667678.017,0.841,-0.674,-0.419,1.5084304756374387,-3.335630496753418,-9.21504753734889
1621785667683.746,0.845,-0.693,-0.459,1.277709760861532,-3.3811552552394026,-9.263669218180858
1621785667686.495,0.8473967645806726,-0.7064218816517667,-0.4805708812260536,1.167,-3.403,-9.287
1621785667689.481,0.85,-0.721,-0.504,1.040746745219747,-3.3997833565661084,-9.29327245469609
1621785667695.224,0.853,-0.745,-0.552,0.7979027905631099,-3.3935962494410985,-9.30533731358986
1621785667700.971,0.857,-0.773,-0.592,0.5549039872701927,-3.387405197127903,-9.31740986560059
1621785667705.06,0.854157452586024,-0.7928978318978319,-0.6353488480631337,0.382,-3.383,-9.326
1621785667706.725,0.853,-0.801,-0.653,0.30575144175317187,-3.366373702422145,-9.311965974625144
1621785667712.485,0.846,-0.834,-0.703,0.041978386809269186,-3.308856951871658,-9.263416889483066
1621785667718.251,0.829,-0.867,-0.768,-0.22206299150676312,-3.2512816923560868,-9.214818417741428
1621785667723.687,0.8063968361390745,-0.8971375518145673,-0.8254497081465189,-0.471,-3.197,-9.169
1621785667724.023,0.805,-0.899,-0.829,-0.48474652301665033,-3.1982398824681684,-9.163896715638264
1621785667729.802,0.773,-0.92,-0.887,-0.7212246816846228,-3.2195692850146918,-9.076106131243879
1621785667735.588,0.735,-0.955,-0.942,-0.9579825661116552,-3.240923917727718,-8.988211700946785
1621785667741.378,0.702,-0.986,-0.99,-1.1949102840352595,-3.2622938687561214,-8.900254221351616
1621785667742.382,0.6935063637896156,-0.990853506405934,-0.9953735249494268,-1.236,-3.266,-8.885
1621785667747.171,0.653,-1.014,-1.021,-1.2909411143970089,-3.463788011829232,-8.72707623861697
1621785667752.969,0.604,-1.026,-1.042,-1.3574614572883963,-3.703261246238226,-8.535868927422191
1621785667758.772,0.55,-1.023,-1.037,-1.4240378196693548,-3.942936150809677,-8.344500592764366
1621785667761.122,0.5253303924039997,-1.0145071842702293,-1.0297204436601965,-1.451,-4.04,-8.267
1621785667764.583,0.489,-1.002,-1.019,-1.3661380228285007,-4.204385565323534,-8.200178096066693
1621785667770.398,0.438,-0.986,-0.993,-1.2235560129335532,-4.480580217896609,-8.087906361594099
1621785667776.22,0.374,-0.958,-0.958,-1.0808003999532523,-4.757111155838928,-7.975497928813515
1621785667779.923,0.3447672197083962,-0.939570638511815,-0.9357576671694319,-0.99,-4.933,-7.904
1621785667782.047,0.328,-0.929,-0.923,-0.8994664906422303,-5.00698074085579,-7.899608449172944
1621785667787.881,0.291,-0.885,-0.876,-0.6508011182728897,-5.210181175739691,-7.887546322901297
1621785667793.72,0.26,-0.84,-0.824,-0.401927622893531,-5.413551681292226,-7.875474101110507
1621785667798.786,0.23573606180831072,-0.8096700772603884,-0.7919369388181249,-0.186,-5.59,-7.865
1621785667799.566,0.232,-0.805,-0.787,-0.1714551726806118,-5.617482719042584,-7.871468945861598
1621785667805.418,0.215,-0.761,-0.738,-0.06233482499806557,-5.823667625286941,-7.920001225142504
1621785667811.276,0.213,-0.721,-0.696,0.04689477960331173,-6.030058974491244,-7.968582097443966
1621785667817.139,0.218,-0.67,-0.653,0.15621998400866627,-6.236630961285496,-8.017205488638416
1621785667817.717,0.21987123606721012,-0.6676363333887873,-0.6477802362335718,0.167,-6.257,-8.022
1621785667823.009,0.237,-0.646,-0.6,0.10679740520245336,-6.450986138792095,-8.166932172660761
1621785667828.884,0.258,-0.621,-0.55,0.0399624152961901,-6.666343328490054,-8.327831222435098
1621785667834.765,0.293,-0.59,-0.501,-0.0269392318473467,-6.881915302619229,-8.488890743336205
1621785667836.704,0.3051835254124865,-0.5863778708233148,-0.48717005223447474,-0.049,-6.953,-8.542
1621785667840.654,0.33,-0.579,-0.459,-0.24409257147250663,-7.042356958878481,-8.572476735394748
1621785667846.547,0.389,-0.583,-0.415,-0.5351578097569102,-7.175671642938607,-8.617946012788805
1621785667852.447,0.443,-0.595,-0.382,-0.826560682753053,-7.309140971590399,-8.663468034393942
1621785667855.756,0.47157956753627983,-0.6157341960557324,-0.37023194277917887,-0.99,-7.384,-8.689
1621785667858.352,0.494,-0.632,-0.361,-1.04473926317672,-7.361452313430929,-8.614429638997471
1621785667864.263,0.555,-0.651,-0.333,-1.1693788099435374,-7.310111954216806,-8.444635318464014
1621785667870.18,0.602,-0.661,-0.298,-1.2941470580720984,-7.25871858153854,-8.274665670269028
1621785667874.868,0.6059560756520664,-0.6657472907824797,-0.26002167374016233,-1.393,-7.218,-8.14
1621785667876.105,0.607,-0.667,-0.25,-1.4163540953132758,-7.159743789867712,-8.126064959702576
1621785667882.034,0.592,-0.66,-0.209,-1.52828506130556,-6.880534778014031,-8.059277421983424
1621785667887.969,0.579,-0.651,-0.182,-1.6403312537400847,-6.601038336664927,-7.992421130365033
1621785667893.91,0.569,-0.641,-0.164,-1.7524880635591602,-6.321265963000217,-7.925498835003374
1621785667894.043,0.5688433843753848,-0.6406867687507698,-0.16377626339340695,-1.755,-6.315,-7.924
1621785667899.857,0.562,-0.627,-0.154,-1.906392820434733,-6.2409655868133544,-7.7284887129315925
1621785667905.811,0.555,-0.611,-0.138,-2.061434732955194,-6.165146687477001,-7.52826492570457
1621785667911.771,0.552,-0.599,-0.129,-2.216629220754501,-6.089253175479336,-7.3278441001433885
1621785667913.283,0.5487049072975075,-0.5939306266115499,-0.1277326566528875,-2.256,-6.07,-7.277
1621785667917.736,0.539,-0.579,-0.124,-2.353132954703568,-6.043005805937488,-7.046049673020732
1621785667923.707,0.527,-0.567,-0.115,-2.4833731231895975,-6.006810794743034,-6.73638124391262
1621785667929.684,0.503,-0.553,-0.11,-2.613746423466613,-5.970578784927331,-6.4263962710449425
1621785667932.584,0.4871123557933456,-0.5445596890152149,-0.11347542217020565,-2.677,-5.953,-6.276
1621785667935.525,0.471,-0.536,-0.117,-2.642566004526025,-5.904537339703294,-6.193262760875031
1621785667941.236,0.436,-0.513,-0.112,-2.5756961343514684,-5.810424189087252,-6.032589322816722
1621785667946.946,0.401,-0.489,-0.117,-2.5088405568863066,-5.716331154136284,-5.871950226962931
1621785667951.032,0.3723767744142295,-0.4775507097656918,-0.11914674191893279,-2.461,-5.649,-5.757
1621785667952.656,0.361,-0.473,-0.12,-2.4377606494898565,-5.610091693464078,-5.74916552198711
1621785667958.366,0.326,-0.447,-0.131,-2.3560526023264123,-5.473292614501039,-5.7216200060873135
1621785667964.075,0.288,-0.422,-0.138,-2.2743585295168525,-5.336516931994124,-5.694079201238636
1621785667969.481,0.25297558994528047,-0.4021212807797538,-0.14462623974008207,-2.197,-5.207,-5.668
1621785667969.786,0.251,-0.401,-0.145,-2.195380390340721,-5.205710922924247,-5.66378570956004
1621785667975.496,0.206,-0.375,-0.161,-2.165051286801191,-5.181571432351968,-5.584868144227588
1621785667981.206,0.159,-0.346,-0.18,-2.1347234799867683,-5.157432973867019,-5.505953953026795
1621785667986.916,0.117,-0.332,-0.187,-2.1043956731723457,-5.133294515382071,-5.427039761826001
1621785667987.932,0.10899260177899418,-0.3295088094423538,-0.18842353746151214,-2.099,-5.129,-5.413
1621785667992.625,0.072,-0.318,-0.195,-2.0514309099089565,-5.231260824687698,-5.365685290069871
1621785667998.335,0.024,-0.3,-0.195,-1.9935551423883124,-5.355678250052932,-5.308119018632225
1621785668004.045,-0.012,-0.271,-0.195,-1.9356793748676688,-5.480095675418166,-5.25055274719458
1621785668006.381,-0.029180267601419226,-0.2673185140854102,-0.1974543239430599,-1.912,-5.531,-5.227
1621785668009.756,-0.054,-0.262,-0.201,-1.9085243810456392,-5.5597195882018235,-5.3453539717616545
1621785668015.465,-0.093,-0.246,-0.204,-1.9026451945852245,-5.608300234216829,-5.545555742282092
1621785668021.175,-0.115,-0.246,-0.208,-1.896765002448029,-5.656889190297865,-5.745791758743433
1621785668024.831,-0.13100714041388747,-0.2427985719172225,-0.2124819993158885,-1.893,-5.688,-5.874
1621785668026.885,-0.14,-0.241,-0.215,-1.9246165195643832,-5.72395822471583,-5.963505921583676
1621785668032.594,-0.15,-0.236,-0.229,-2.012494885604266,-5.82390439454288,-6.212288338119119
1621785668038.305,-0.138,-0.232,-0.246,-2.100403316086859,-5.923884757380477,-6.461155866668431
1621785668043.281,-0.11621318624935864,-0.23635736275012825,-0.2616865059004618,-2.177,-6.011,-6.678
1621785668044.015,-0.113,-0.237,-0.264,-2.1761819851690594,-6.025846969181577,-6.704871787196407
1621785668049.564,-0.079,-0.237,-0.286,-2.169996802503572,-6.138108034560174,-6.908055037757671
1621785668055.111,-0.01,-0.241,-0.305,-2.163813796856929,-6.250329587046737,-7.111166773249881
1621785668060.654,0.058,-0.239,-0.314,-2.1576354173753316,-6.362467174637731,-7.314126539220355
1621785668061.224,0.06551035424744449,-0.238794236869933,-0.31595474973563625,-2.157,-6.374,-7.335
1621785668066.195,0.131,-0.237,-0.333,-2.0725341220780282,-6.300648053383551,-7.329720882629877
1621785668071.732,0.183,-0.227,-0.354,-1.9784522181738786,-6.218945347361526,-7.323840763635867
1621785668077.266,0.213,-0.229,-0.367,-1.8844159468347867,-6.137282269619684,-7.317963496677174
1621785668079.115,0.2160084749503421,-0.22599152504965792,-0.36499435003310526,-1.853,-6.11,-7.316
1621785668082.797,0.222,-0.22,-0.361,-1.7661997922106327,-6.077630326311329,-7.196623942256428
1621785668088.325,0.215,-0.206,-0.351,-1.6358901313720933,-6.029035037115009,-7.01740946808656
1621785668093.85,0.202,-0.199,-0.34,-1.5056437779387841,-5.980463356618502,-6.8382820603956205
1621785668096.974,0.19804049155689152,-0.19108098311378305,-0.3433938643798073,-1.432,-5.953,-6.737
1621785668099.373,0.195,-0.185,-0.346,-1.4042805691357516,-5.953,-6.718565232871835
1621785668104.892,0.175,-0.157,-0.346,-1.3405083877682373,-5.953,-6.676153636525478
1621785668110.407,0.164,-0.141,-0.34,-1.2767841638935677,-5.953,-6.633773934239897
1621785668114.802,0.14725840308223728,-0.13143337318984988,-0.33362224879323327,-1.226,-5.953,-6.6
1621785668115.92,0.143,-0.129,-0.332,-1.2001171660630008,-5.957900148172539,-6.613569641093184
1621785668121.429,0.134,-0.129,-0.318,-1.0725683240039512,-5.982047744484689,-6.680439907803754
1621785668126.937,0.129,-0.126,-0.307,-0.9450420919767314,-6.006191060256833,-6.747298320711228
1621785668132.44,0.115,-0.115,-0.29,-0.8176345626166173,-6.030311903193941,-6.814094501152453
1621785668132.597,0.11494291548295454,-0.11474311967329547,-0.2896004083806818,-0.814,-6.031,-6.816
1621785668137.94,0.113,-0.106,-0.276,-0.758052750213035,-6.054762541576184,-6.845477583221089
1621785668143.437,0.106,-0.087,-0.264,-0.7004923994612277,-6.079210217433134,-6.8758050798537615
1621785668148.931,0.106,-0.079,-0.253,-0.6429652821682839,-6.103643778003794,-6.906115066384452
1621785668150.36,0.10756134423897581,-0.07483641536273115,-0.24935686344238975,-0.628,-6.11,-6.914
1621785668154.423,0.112,-0.063,-0.239,-0.5531016377047131,-6.10075328860552,-6.961620563681571
1621785668159.85,0.113,-0.028,-0.23,-0.45305863232904114,-6.0884023002875365,-7.02522815351919
1621785668165.273,0.129,0.01,-0.223,-0.35309213651706467,-6.0760607575947,-7.088787098387298
1621785668167.936,0.13588015858713282,0.024743196972427463,-0.22152568030275727,-0.304,-6.07,-7.12
1621785668170.692,0.143,0.04,-0.22,-0.2483847753569584,-6.057711083506637,-7.14473538319818
1621785668176.107,0.145,0.072,-0.211,-0.13910539171214426,-6.033564364174355,-7.193338395187516
1621785668181.517,0.143,0.101,-0.209,-0.02992454673608108,-6.009439418258964,-7.2418975811967
1621785668185.428,0.1307060629316961,0.11763297368064647,-0.20321461785020992,0.049,-5.992,-7.277
1621785668186.925,0.126,0.124,-0.201,0.05234683367154153,-5.993630508711776,-7.313128640403051
1621785668192.327,0.112,0.157,-0.188,0.0644231614302708,-5.999513847876286,-7.443491050311385
1621785668197.725,0.112,0.171,-0.178,0.07649130221817926,-6.005393198516549,-7.57376508291932
1621785668202.873,0.11868093966414701,0.181498619472231,-0.169410220431811,0.088,-6.011,-7.698
1621785668203.119,0.119,0.182,-0.169,0.07358885428066335,-6.006153899037518,-7.702295086567332
1621785668208.509,0.148,0.182,-0.164,-0.24236871790554762,-5.899905421331762,-7.79646283357185
1621785668213.896,0.176,0.171,-0.171,-0.5581402474955804,-5.7937195050088395,-7.8905751325869184
1621785668219.278,0.215,0.143,-0.192,-0.8736255577068777,-5.687629836967197,-7.984602127002835
1621785668220.274,0.22240693662611222,0.13818549119302706,-0.19885141637915382,-0.932,-5.668,-8.002
1621785668224.656,0.255,0.117,-0.229,-1.1150268358204758,-5.5119854006385465,-8.021943613834232
1621785668230.029,0.288,0.086,-0.262,-1.33944349428262,-5.320689545563229,-8.04639729110114
1621785668235.398,0.304,0.059,-0.295,-1.5636868029086204,-5.129541456279273,-8.07083207921349
1621785668237.632,0.304,0.04401405631624437,-0.3037418004821908,-1.657,-5.05,-8.081
1621785668240.765,0.304,0.023,-0.316,-1.7865540201359318,-5.012726078005584,-8.056030091091118
1621785668246.126,0.281,-0.052,-0.346,-2.008255760173722,-4.94894038184946,-8.01329986745255
1621785668251.483,0.239,-0.133,-0.389,-2.229785865365634,-4.885204066668547,-7.970602724273104
1621785668254.946,0.20212391681109185,-0.17763946912341513,-0.4051737206968895,-2.373,-4.844,-7.943
1621785668256.836,0.182,-0.202,-0.414,-2.3289186049805934,-4.824700682777573,-7.898918604980593
1621785668262.186,0.098,-0.264,-0.424,-2.2041285661670966,-4.770066237923903,-7.7741285661670965
1621785668267.51,0.017,-0.311,-0.435,-2.079947842592855,-4.715698557951101,-7.649947842592855
1621785668272.181,-0.03480065164517461,-0.34875301730072045,-0.4376339314395852,-1.971,-4.668,-7.541
1621785668272.83,-0.042,-0.354,-0.438,-1.952083888224916,-4.658731105230209,-7.524315989414377
1621785668278.145,-0.091,-0.387,-0.449,-1.797212224688407,-4.582843990097319,-7.387719182175175
1621785668283.456,-0.117,-0.415,-0.476,-1.6424543850663025,-4.507012648682489,-7.251222767628478
1621785668288.763,-0.14,-0.426,-0.506,-1.4878174833532527,-4.431240566843094,-7.114833020317568
1621785668289.34,-0.14108834768196676,-0.42752368675475344,-0.5098092168868836,-1.471,-4.423,-7.1
1621785668294.066,-0.15,-0.44,-0.541,-1.0838986549132041,-4.428246023934842,-6.9511785841642055
1621785668299.364,-0.176,-0.433,-0.564,-0.6499219906714023,-4.434127305404596,-6.784335915101202
1621785668304.657,-0.201,-0.403,-0.572,-0.21636528449370251,-4.440002895573909,-6.617654699245439
1621785668306.456,-0.2146059822747415,-0.38633267171344166,-0.572,-0.069,-4.442,-6.561
1621785668309.946,-0.241,-0.354,-0.572,0.19576765639749416,-4.516216725306788,-6.538918990817815
1621785668315.23,-0.281,-0.305,-0.559,0.596632741211133,-4.628582768385823,-6.505487771389342
1621785668320.51,-0.325,-0.246,-0.538,0.9972014788752539,-4.740865742727195,-6.47208126662662
1621785668323.526,-0.33700152671755723,-0.21685343511450383,-0.5219979643765904,1.226,-4.805,-6.453
1621785668325.787,-0.346,-0.195,-0.51,1.2558855602242904,-4.848035206722978,-6.528577261189429
1621785668331.058,-0.37,-0.134,-0.487,1.3255496981256543,-4.948351565300942,-6.70475012548221
1621785668336.324,-0.379,-0.08,-0.466,1.395146075633506,-5.048570348912248,-6.880751631268733
1621785668340.55,-0.3846219551802533,-0.04225258664687051,-0.45074040736788384,1.451,-5.129,-7.022
1621785668341.586,-0.386,-0.033,-0.447,1.4474612176814012,-5.175675318512553,-7.065624644099969
1621785668346.844,-0.389,0.014,-0.426,1.4294987489574646,-5.4125940870265445,-7.28705852578298
1621785668352.098,-0.387,0.04,-0.407,1.4115504587155963,-5.649325846251187,-7.508317621006011
1621785668357.347,-0.379,0.068,-0.374,1.3936188490408674,-5.88583759454718,-7.729371085099652
1621785668357.528,-0.3778945996275605,0.0683108938547486,-0.3728945996275605,1.393,-5.894,-7.737
1621785668362.591,-0.347,0.077,-0.342,1.2901249260941667,-6.093469983416252,-7.965777417261519
1621785668367.831,-0.304,0.082,-0.316,1.1836533419857236,-6.299913432835821,-8.202552887735237
1621785668373.068,-0.248,0.066,-0.29,1.077241286322013,-6.506241459369818,-8.439195976638548
1621785668374.458,-0.2336572734907157,0.06414075767472241,-0.2844222730241672,1.049,-6.561,-8.502
1621785668378.301,-0.194,0.059,-0.269,0.9486344827586206,-6.569875862068965,-8.593489655172414
1621785668383.529,-0.12,0.035,-0.253,0.8120975927130774,-6.581950553025374,-8.717951854261548
1621785668388.752,-0.051,0.009,-0.236,0.6756945998698763,-6.594013402732596,-8.842291997397528
1621785668391.344,-0.023187304111895964,-0.0138461430509426,-0.2280535154605417,0.608,-6.6,-8.904
1621785668393.971,0.005,-0.037,-0.22,0.6111204686503103,-6.546483962647178,-8.835193666260658
1621785668399.187,0.054,-0.065,-0.204,0.6173164549620092,-6.4402227974015425,-8.698572168087697
1621785668404.396,0.096,-0.101,-0.188,0.6235040310886839,-6.33410586682907,-8.562136114494518
1621785668408.181,0.11781063590320766,-0.11772148752579253,-0.17418659726130184,0.628,-6.257,-8.463
1621785668409.602,0.126,-0.124,-0.169,0.6428941775096315,-6.226280758886385,-8.396653209275277
1621785668414.803,0.14,-0.143,-0.154,0.6974021080177364,-6.113858152213418,-8.15384515519372
1621785668419.999,0.138,-0.148,-0.131,0.7518588645780331,-6.001541091807807,-7.911265057788762
1621785668424.974,0.12458711800658204,-0.15374837799717914,-0.11279680300893277,0.804,-5.894,-7.679
1621785668425.192,0.124,-0.154,-0.112,0.808212453358209,-5.892972889458956,-7.674527518656717
1621785668430.38,0.106,-0.147,-0.084,0.9085651819029851,-5.868504168610075,-7.567980177238806
1621785668435.563,0.086,-0.122,-0.056,1.0088234608208955,-5.844058477145523,-7.461533115671642
1621785668440.741,0.065,-0.096,-0.026,1.1089825676305969,-5.819636966534516,-7.355191347947761
1621785668441.724,0.06253072968256214,-0.089351964529975,-0.02011174001226357,1.128,-5.815,-7.335
1621785668445.917,0.052,-0.061,0.005,1.1475835270382877,-5.820021417189305,-7.367137070011549
1621785668451.086,0.042,-0.03,0.037,1.1717259769308364,-5.826211788956625,-7.406755449322398
1621785668456.251,0.042,0.005,0.063,1.1958501820095608,-5.832397482566554,-7.446343888425946
1621785668458.424,0.04284210028382214,0.023526206244087043,0.07184205298013245,1.206,-5.835,-7.463
1621785668461.412,0.044,0.049,0.084,1.1602450520451546,-5.838588623369008,-7.487582070077702
1621785668466.568,0.044,0.087,0.106,1.0812926257147046,-5.84478097053218,-7.529999648145433
1621785668471.72,0.056,0.119,0.126,1.0024037531153789,-5.85096833308899,-7.572383081659581
1621785668475.077,0.06382361308677098,0.13595116168800378,0.133823613086771,0.951,-5.855,-7.6
1621785668476.869,0.068,0.145,0.138,0.9162510003371099,-5.869738739795096,-7.589456959854603
1621785668482.028,0.091,0.176,0.157,0.8162079675201899,-5.912171852785554,-7.559103346182596
1621785668487.183,0.099,0.194,0.164,0.716245416037639,-5.954570829730166,-7.52877415099594
1621785668491.734,0.11136894492368946,0.2090194331216229,0.17636894492368943,0.628,-5.992,-7.502
1621785668492.334,0.113,0.211,0.178,0.6191177507491628,-5.99626059110406,-7.495970180386626
1621785668497.482,0.129,0.223,0.19,0.5429212057112639,-6.032810153358012,-7.444243257535695
1621785668502.625,0.148,0.232,0.195,0.4667969328397673,-6.069325048475234,-7.392565397496915
1621785668507.762,0.166,0.253,0.194,0.3907630001762736,-6.105796609671544,-7.340948865973324
1621785668508.354,0.16784507109230112,0.25323063388653766,0.19480721860288175,0.382,-6.11,-7.335
1621785668512.896,0.182,0.255,0.201,0.3444538102323115,-6.1179477336004595,-7.276077147444869
1621785668518.026,0.201,0.258,0.197,0.30204784703092086,-6.126924178365718,-7.209527643150715
1621785668523.152,0.218,0.255,0.201,0.25967215650457404,-6.135894215046477,-7.143025647069222
1621785668524.927,0.2235467073577798,0.24875995422249775,0.201,0.245,-6.139,-7.12
1621785668528.272,0.234,0.237,0.201,0.18548852052123038,-6.129081420086872,-7.050367520609875
1621785668533.389,0.237,0.241,0.201,0.09445128977927489,-6.113908548296546,-6.943847767632893
1621785668538.501,0.239,0.229,0.195,0.0035009307685488766,-6.098750155128092,-6.837429660491091
1621785668541.452,0.23726684829366215,0.22784456552910812,0.1921114138227703,-0.049,-6.09,-6.776
1621785668543.609,0.236,0.227,0.19,-0.09518803963094058,-6.077177258119455,-6.7337372895161645
1621785668548.714,0.223,0.218,0.176,-0.20450757519659968,-6.046827925299527,-6.633708366038239
1621785668553.813,0.201,0.195,0.166,-0.3136911867067518,-6.016516327769797,-6.5338038149963715
1621785668557.937,0.18076424361493124,0.18528683693516698,0.15628683693516698,-0.402,-5.992,-6.453
1621785668558.908,0.176,0.183,0.154,-0.41995752012595433,-5.987333407598848,-6.447211062590975
1621785668563.999,0.147,0.164,0.138,-0.5141159730267653,-5.962864599114755,-6.416857350800583
1621785668569.085,0.119,0.15,0.126,-0.6081796037192169,-5.93842043192823,-6.386534206695779
1621785668574.168,0.091,0.133,0.106,-0.702189050292606,-5.913990345483172,-6.356228529839884
1621785668574.374,0.08998557692307692,0.13206673076923078,0.10551307692307692,-0.706,-5.913,-6.355
1621785668579.246,0.066,0.11,0.094,-0.7175535828273681,-5.913,-6.39558566275255
1621785668584.342,0.044,0.094,0.077,-0.7296380654068257,-5.913,-6.43803628104449
1621785668589.435,0.016,0.077,0.058,-0.741715600552232,-5.913,-6.480462494247584
1621785668590.82,0.011101036269430053,0.07182887161773172,0.05555051813471503,-0.745,-5.913,-6.492
1621785668594.524,-0.002,0.058,0.049,-0.6588472676458346,-5.930816926324553,-6.54725502467741
1621785668599.608,-0.017,0.042,0.035,-0.5405924064934293,-5.9552727745733485,-6.623099111018612
1621785668604.688,-0.024,0.038,0.03,-0.4224284057798656,-5.979709832312541,-6.698884922994589
1621785668607.243,-0.028530085132990237,0.033973257659564236,0.026979943244673177,-0.363,-5.992,-6.737
1621785668609.764,-0.033,0.03,0.024,-0.2936050455229552,-5.99800089406786,-6.789777093981433
1621785668614.836,-0.037,0.023,0.019,-0.15398852612913322,-6.010074162928966,-6.895959945759883
1621785668619.904,-0.037,0.024,0.017,-0.014479533296577252,-6.022138133484331,-7.002061020131428
1621785668623.627,-0.03405929997107319,0.024,0.02214622505062193,0.088,-6.031,-7.08
1621785668624.968,-0.033,0.024,0.024,0.11614902962664156,-6.037483304199722,-7.099367845457397
1621785668630.028,-0.031,0.026,0.021,0.22235998685252414,-6.061945886184692,-7.172445938475789
1621785668635.083,-0.03,0.028,0.033,0.3284633290006424,-6.086383682189653,-7.245449987300733
1621785668639.968,-0.02419832793698352,0.0376694534383608,0.033,0.431,-6.11,-7.316
1621785668640.135,-0.024,0.038,0.033,0.43321316116661923,-6.112100453884986,-7.317106580583309
1621785668645.183,-0.021,0.051,0.042,0.5001159878364816,-6.175596192159624,-7.35055799391824
1621785668650.226,-0.01,0.054,0.045,0.5669508665757899,-6.239027442814986,-7.383975433287895
1621785668655.265,0.003,0.058,0.054,0.6337307398475067,-6.302406489207125,-7.417365369923754
1621785668656.266,0.005584496800465387,0.06177734147760326,0.05618688190808609,0.647,-6.315,-7.424
1621785668660.301,0.016,0.077,0.065,0.6226707624827255,-6.31996515051373,-7.438398936489816
1621785668665.333,0.037,0.094,0.072,0.5923295079012197,-6.326157243285466,-7.45635600552785
1621785668670.359,0.058,0.098,0.077,0.5620250555789221,-6.3323418253920565,-7.4742912936369645
1621785668672.519,0.06617069258809234,0.10144029161603889,0.077,0.549,-6.335,-7.482
1621785668675.382,0.077,0.106,0.077,0.5128942727327076,-6.304152388354158,-7.485505410414301
1621785668680.401,0.096,0.113,0.082,0.4496022598194536,-6.250077658874873,-7.491650266036946
1621785668685.528,0.113,0.113,0.084,0.3849432354875352,-6.194834997309739,-7.4979278412148025
1621785668688.854,0.12358405360784695,0.11233849664950957,0.08267699329901913,0.343,-6.159,-7.502
1621785668690.556,0.129,0.112,0.082,0.3245362759409472,-6.139382293187256,-7.480389050249063
1621785668695.578,0.136,0.12,0.08,0.27005358997125617,-6.08149443934446,-7.416619542807266
1621785668700.596,0.145,0.112,0.082,0.21561328236692803,-6.023651612514861,-7.352899637315836
1621785668705.077,0.14678697303086358,0.112,0.07931954045370461,0.167,-5.972,-7.296
1621785668705.611,0.147,0.112,0.079,0.16181704336280517,-5.968764778659586,-7.286954585231903
1621785668710.621,0.145,0.099,0.082,0.11320669000271584,-5.938422010320167,-7.202118681915568
1621785668715.628,0.134,0.101,0.08,0.06462713117474879,-5.908098464045384,-7.117336521922811
1621785668720.631,0.12,0.089,0.082,0.016083104499230505,-5.877797097075953,-7.032616373457256
1621785668721.258,0.1181183137120805,0.08837277123736016,0.08225089150505593,0.01,-5.874,-7.022
1621785668725.629,0.105,0.084,0.084,0.015145396239543786,-5.895394015943366,-6.987336277965179
1621785668730.624,0.087,0.091,0.08,0.021025684853802056,-5.919843637023703,-6.947721702037544
1621785668735.615,0.072,0.08,0.084,0.026901087597755224,-5.944272943169614,-6.908140041446702
1621785668737.398,0.06484965976403778,0.07749738091741323,0.08507255103539434,0.029,-5.953,-6.894
1621785668740.602,0.052,0.073,0.087,0.017453667045885475,-5.990027895335609,-6.9194815623814945
1621785668745.585,0.044,0.07,0.08,-0.0005027986348122848,-6.047612423208191,-6.9591096245733794
1621785668750.563,0.03,0.065,0.073,-0.01844166856276071,-6.105140523321957,-6.998698854759196
1621785668753.493,0.03176675826872117,0.06264432230837177,0.07123324173127883,-0.029,-6.139,-7.022
1621785668755.538,0.033,0.061,0.07,-0.026579711687600743,-6.154031264255954,-7.051935144916517
1621785668760.51,0.031,0.056,0.059,-0.02069584258386302,-6.190573188163377,-7.124709315410115
1621785668765.477,0.037,0.045,0.059,-0.014817751893190597,-6.227079225084395,-7.197412016057905
1621785668769.548,0.03782045857114741,0.05402504428262153,0.05079541428852588,-0.01,-6.257,-7.257
1621785668770.439,0.038,0.056,0.049,-0.0034567972525301653,-6.248848722001033,-7.270585463331611
1621785668775.398,0.038,0.056,0.052,0.03296565662705528,-6.203474987083244,-7.3462083548612584
1621785668780.353,0.035,0.072,0.04,0.06935942011366744,-6.1581369935872114,-7.4217716773546485
1621785668785.353,0.037,0.08,0.028,0.10608312311947239,-6.112387973740996,-7.498020043765006
1621785668785.614,0.037261190383111806,0.08,0.027738809616888193,0.108,-6.11,-7.502
1621785668790.349,0.042,0.08,0.023,0.14263759780848456,-6.0809396425166105,-7.5193187989042425
1621785668795.342,0.037,0.106,0.016,0.17916110968171567,-6.050297035097544,-7.537580554840858
1621785668800.33,0.04,0.105,0.017,0.21564890348553872,-6.01968439453332,-7.55582445174277
1621785668801.745,0.041135246303006565,0.10783811575751641,0.015013318969738518,0.226,-6.011,-7.561
1621785668805.316,0.044,0.115,0.01,0.17585701066427997,-5.99369401253015,-7.51085701066428
1621785668810.298,0.054,0.117,0.003,0.10589475281018189,-5.969547746545107,-7.440894752810181
1621785668815.276,0.061,0.115,0.005,0.03599420518499416,-5.945422778780662,-7.370994205184994
1621785668817.839,0.06357606242025714,0.11036308764353715,0.00757606242025714,0.0,-5.933,-7.335
1621785668820.251,0.066,0.106,0.01,-0.04266413223643192,-5.921282386216754,-7.326286902571433
1621785668825.222,0.072,0.096,0.007,-0.13059655418865285,-5.8971319323003,-7.30832887273612
1621785668830.19,0.08,0.08,0.01,-0.21847715211143381,-5.872995711744043,-7.290381426681468
1621785668833.894,0.08149235233364481,0.06433030049672946,0.004030590665420745,-0.284,-5.855,-7.277
1621785668835.154,0.082,0.059,0.002,-0.2932815252842381,-5.843358764897736,-7.2707860974791965
1621785668840.114,0.075,0.044,0.0,-0.32981775230895843,-5.797533666595544,-7.246325403115189
1621785668845.071,0.073,0.04,-0.003,-0.36633239857347516,-5.751735635687505,-7.22187915688725
1621785668849.913,0.06811189431655741,0.02631330408636072,-0.00495524227337704,-0.402,-5.707,-7.198
1621785668850.024,0.068,0.026,-0.005,-0.40288761264701395,-5.706188666564839,-7.198
1621785668854.974,0.061,0.0,-0.007,-0.4425290972964717,-5.669953872002444,-7.198
1621785668859.92,0.054,-0.031,-0.009,-0.4821353902550787,-5.633751244844967,-7.198
1621785668864.863,0.049,-0.058,-0.017,-0.521720177180388,-5.597568275546052,-7.198
1621785668865.897,0.0471159169550173,-0.0623961937716263,-0.017837370242214535,-0.53,-5.59,-7.198
1621785668869.802,0.04,-0.079,-0.021,-0.5057755323705789,-5.5995429720964385,-7.207542972096439
1621785668874.738,0.035,-0.087,-0.026,-0.47515532064618776,-5.611605479745441,-7.219605479745441
1621785668879.67,0.031,-0.113,-0.028,-0.44456085546444746,-5.623657844817036,-7.231657844817036
1621785668881.856,0.029678636430714743,-0.1191663633233312,-0.031083181661665602,-0.431,-5.629,-7.237
1621785668884.633,0.028,-0.127,-0.035,-0.431,-5.645986407826166,-7.247226510834121
1621785668889.593,0.021,-0.14,-0.037,-0.431,-5.676324505531344,-7.26549128394234
1621785668894.549,0.019,-0.15,-0.04,-0.431,-5.706638710267272,-7.283741672507848
1621785668897.878,0.015640136020895964,-0.15335986397910403,-0.04470380957074565,-0.431,-5.727,-7.296
1621785668899.503,0.014,-0.155,-0.047,-0.42906875066811234,-5.735944733747691,-7.306977627781256
1621785668904.453,0.021,-0.155,-0.049,-0.42318592611822914,-5.763191500083992,-7.340416841012171
1621785668909.4,0.024,-0.168,-0.054,-0.4173065833880549,-5.79042214009743,-7.3738362628468455
1621785668913.865,0.033936237467279105,-0.17432306020645033,-0.05129011705437842,-0.412,-5.815,-7.404
1621785668914.343,0.035,-0.175,-0.051,-0.4099324498041136,-5.817367195151812,-7.40576790523996
1621785668919.284,0.042,-0.18,-0.059,-0.3885621327130264,-5.841834659647405,-7.424041074926542
1621785668924.221,0.049,-0.178,-0.061,-0.36720871082272283,-5.86628278036239,-7.442299797992165
1621785668929.154,0.063,-0.175,-0.059,-0.34587218413320275,-5.890711557296768,-7.460544074436827
1621785668929.818,0.06461640172336948,-0.175,-0.05953880057445649,-0.343,-5.894,-7.463
1621785668934.084,0.075,-0.175,-0.063,-0.3271863600803792,-5.8835469159853355,-7.447186360080379
1621785668939.012,0.087,-0.166,-0.063,-0.30891827092696844,-5.8714713994263015,-7.428918270926968
1621785668943.936,0.096,-0.164,-0.061,-0.2906646623000107,-5.859405454740686,-7.410664662300011
1621785668945.734,0.09965422786820166,-0.16071119491861852,-0.06246169114728067,-0.284,-5.855,-7.404
1621785668948.856,0.106,-0.155,-0.065,-0.28026570352724195,-5.831808053484977,-7.382773472681165
1621785668953.773,0.108,-0.154,-0.059,-0.27438450779989243,-5.795282732651963,-7.349343518020441
1621785668958.686,0.112,-0.141,-0.063,-0.2685079843233689,-5.75878642895566,-7.315940121417045
1621785668961.619,0.11379129181370844,-0.13383483274516625,-0.06001451364381928,-0.265,-5.737,-7.296
1621785668963.598,0.115,-0.129,-0.058,-0.2551350402070432,-5.7332538127368515,-7.276394953322858
1621785668968.505,0.113,-0.126,-0.056,-0.2306746618603075,-5.72396506146594,-7.227783821671751
1621785668973.408,0.106,-0.115,-0.052,-0.20623375543026157,-5.71468370459377,-7.179211387374064
1621785668977.467,0.10517180572851806,-0.1092026400996264,-0.05117180572851805,-0.186,-5.707,-7.139
1621785668978.309,0.105,-0.108,-0.051,-0.18500188866042191,-5.708050643515345,-7.1338518467748075
1621785668983.373,0.099,-0.103,-0.044,-0.1789993298301729,-5.714369126494555,-7.1028912801766815
1621785668988.291,0.089,-0.084,-0.033,-0.17316982712664686,-5.720505445129845,-7.072823318863758
1621785668993.205,0.075,-0.077,-0.033,-0.16734495468738103,-5.726636889802757,-7.0427792399664915
1621785668993.496,0.07458526765743824,-0.07634827774740295,-0.03270376261245589,-0.167,-5.727,-7.041
1621785668998.117,0.068,-0.066,-0.028,-0.18419100033868038,-5.758468271806398,-7.064018458080606
1621785669003.025,0.056,-0.058,-0.024,-0.20245013701160752,-5.791891776224637,-7.088467132608763
1621785669007.931,0.047,-0.052,-0.023,-0.22070200745096832,-5.825301979740756,-7.112906077773331
1621785669009.355,0.045547487424672545,-0.047642462274017625,-0.021837989939738033,-0.226,-5.835,-7.12
1621785669012.833,0.042,-0.037,-0.019,-0.23457041047711602,-5.8565359032501885,-7.150106313727305
1621785669017.733,0.045,-0.03,-0.024,-0.24664454625387572,-5.88687603930461,-7.192520585558486
1621785669022.629,0.047,-0.026,-0.028,-0.25870905641168035,-5.917191987906273,-7.2349010443179536
1621785669025.182,0.045956491368126934,-0.0244347370521904,-0.028,-0.265,-5.933,-7.257
1621785669027.522,0.045,-0.023,-0.028,-0.2592213513889533,-5.938778648611047,-7.2715207067662195
1621785669032.412,0.058,-0.021,-0.031,-0.24714557343597832,-5.950854426564022,-7.301864969314721
1621785669037.298,0.063,-0.021,-0.033,-0.23508004452070677,-5.962919955479293,-7.332183477871045
1621785669040.975,0.0735427,-0.01723475,-0.0314939,-0.226,-5.972,-7.355
1621785669042.181,0.077,-0.016,-0.031,-0.21995480602379772,-5.973530428854735,-7.350485234878533
1621785669047.062,0.079,-0.014,-0.031,-0.1954839489340605,-5.9797255825483395,-7.3322095314824
1621785669051.94,0.082,-0.009,-0.024,-0.17102900347050073,-5.985916707982152,-7.313945711452653
1621785669056.733,0.09085210420841683,-0.009,-0.025967134268537074,-0.147,-5.992,-7.296
1621785669056.813,0.091,-0.009,-0.026,-0.14639921144950482,-5.991699605724753,-7.295501040017386
1621785669061.684,0.091,-0.016,-0.017,-0.10985368352426189,-5.973426841762131,-7.265149669367608
1621785669066.552,0.091,-0.002,-0.012,-0.07333196734034957,-5.955165983670175,-7.234818074570799
1621785669071.417,0.089,0.01,-0.007,-0.036832231225357795,-5.936916115612679,-7.204504734407501
1621785669072.461,0.089,0.010429425056490083,-0.005067587245794627,-0.029,-5.933,-7.198
1621785669076.279,0.089,0.012,0.002,0.004323633252974569,-5.937864763978537,-7.183648946263318
1621785669081.137,0.084,0.019,0.01,0.04672235788163932,-5.944054358814838,-7.165389641496229
1621785669085.992,0.077,0.033,0.017,0.08909551287036317,-5.950240220856988,-7.147141348471887
1621785669088.158,0.07521470972934903,0.03701690310896469,0.022802193379615657,0.108,-5.953,-7.139
1621785669090.845,0.073,0.042,0.03,0.1248130066093029,-5.9629505549320365,-7.142431225838633
1621785669095.694,0.066,0.045,0.038,0.15515463274722535,-5.980907843870807,-7.148623394438209
1621785669100.54,0.065,0.056,0.047,0.18547639980047387,-5.99885337947375,-7.154811510163362
1621785669103.82,0.06025815559925377,0.06548368880149247,0.05919331417334745,0.206,-6.011,-7.159
1621785669105.382,0.058,0.07,0.065,0.2040013744845683,-6.018894570785956,-7.166794639510184
1621785669110.222,0.054,0.082,0.072,0.19780869673872298,-6.043355647882044,-7.19094608271898
1621785669115.059,0.054,0.089,0.084,0.19161945520429838,-6.067803151943021,-7.215084124703236
1621785669119.451,0.058543594665589005,0.10444822186300262,0.09217847039806021,0.186,-6.09,-7.237
1621785669119.892,0.059,0.106,0.093,0.18433119932379552,-6.091103105531729,-7.240337601352409
1621785669124.722,0.07,0.112,0.099,0.16606120276742947,-6.103179882916445,-7.276877594465141
1621785669129.549,0.072,0.119,0.099,0.14780136493128385,-6.115249945214914,-7.313397270137433
1621785669134.374,0.073,0.126,0.11,0.12954983877531853,-6.127314513351908,-7.349900322449363
1621785669135.048,0.07397873094647288,0.12669909353319492,0.11097873094647288,0.127,-6.129,-7.355
1621785669139.195,0.08,0.131,0.117,0.11660986856551335,-6.129,-7.357664136265253
1621785669144.012,0.096,0.136,0.124,0.10454126540983091,-6.129,-7.360758649894915
1621785669148.827,0.103,0.138,0.127,0.09247755575770883,-6.129,-7.363851908780075
1621785669150.614,0.10485692541856925,0.13874277016742773,0.12662861491628616,0.088,-6.129,-7.365
1621785669153.639,0.108,0.14,0.126,0.08040510507206514,-6.121405105072065,-7.343967983276488
1621785669158.447,0.119,0.145,0.136,0.06833296135045502,-6.109332961350455,-7.310537431432029
1621785669163.252,0.126,0.148,0.138,0.056268786445153485,-6.097268786445153,-7.277128947078887
1621785669166.147,0.1278086328740658,0.148,0.13980863287406578,0.049,-6.09,-7.257
1621785669168.054,0.129,0.148,0.141,0.049,-6.0827407063197025,-7.242481412639405
1621785669172.853,0.129,0.159,0.148,0.049,-6.064472118959108,-7.2059442379182155
1621785669177.649,0.126,0.162,0.148,0.049,-6.046215613382899,-7.169431226765799
1621785669181.646,0.126,0.1636678891605542,0.1538376120619397,0.049,-6.031,-7.139
1621785669182.442,0.126,0.164,0.155,0.04797084589522201,-6.028993149495682,-7.133957144886588
1621785669187.231,0.119,0.164,0.159,0.0417782425457358,-6.016917572964185,-7.1036133884741055
1621785669192.017,0.117,0.171,0.166,0.03558942749356779,-6.0048493836124575,-7.073288194718483
1621785669196.801,0.101,0.176,0.166,0.029403453664388426,-5.9927867346455574,-7.0429769229555035
1621785669197.113,0.10126109607232239,0.17613054803616118,0.1661958220542418,0.029,-5.992,-7.041
1621785669201.581,0.105,0.178,0.169,0.020604780284096305,-6.003290123066215,-7.041
1621785669206.358,0.096,0.188,0.169,0.011629266980923154,-6.01536064095669,-7.041
1621785669211.132,0.082,0.188,0.176,0.002658799708943657,-6.027424372805213,-7.041
1621785669212.547,0.08259318391157508,0.19007614369051273,0.176,0.0,-6.031,-7.041
1621785669215.903,0.084,0.195,0.176,-0.006319699419766004,-6.052356225625416,-7.062356225625416
1621785669220.67,0.079,0.201,0.178,-0.01529628396588351,-6.08269089064333,-7.092690890643331
1621785669225.435,0.075,0.201,0.182,-0.02426965027426361,-6.113014680237166,-7.1230146802371666
1621785669227.947,0.07763806984257217,0.20152761396851446,0.182,-0.029,-6.129,-7.139
1621785669230.196,0.08,0.202,0.182,-0.04334093183587235,-6.130463360391415,-7.144707105526521
1621785669234.954,0.079,0.199,0.18,-0.07368075169576338,-6.133559260377119,-7.156781115470763
1621785669239.71,0.084,0.201,0.18,-0.10400656065828978,-6.136653730679417,-7.168849549649727
1621785669243.316,0.08779496402877697,0.2032769784172662,0.17696402877697842,-0.127,-6.139,-7.178
1621785669244.461,0.089,0.204,0.176,-0.13439147046181765,-6.136834821783912,-7.178
1621785669249.21,0.091,0.199,0.173,-0.1650479488036678,-6.127854641259532,-7.178
1621785669253.956,0.087,0.188,0.173,-0.19568551506757725,-6.1188800006367705,-7.178
1621785669258.652,0.09591105162917589,0.188,0.16903953260925517,-0.226,-6.11,-7.178
1621785669258.699,0.096,0.188,0.169,-0.2261776388202077,-6.109819298441513,-7.177761106414203
1621785669263.438,0.101,0.183,0.162,-0.24413673850276763,-6.091550559109254,-7.153609213737657
1621785669268.174,0.101,0.178,0.155,-0.26208473575906455,-6.0732931136244,-7.129472251910223
1621785669272.907,0.099,0.175,0.15,-0.28002070538690993,-6.055047903140902,-7.105351465169328
1621785669273.957,0.099,0.175,0.148002425430901,-0.284,-6.051,-7.1
1621785669277.638,0.099,0.175,0.141,-0.28882078337330136,-6.051,-7.076378161470823
1621785669282.365,0.093,0.166,0.14,-0.2950116706634692,-6.051,-7.0460428137490005
1621785669287.088,0.086,0.161,0.133,-0.3011971223021583,-6.051,-7.015734100719424
1621785669289.228,0.0832801737511635,0.161,0.13118678250077567,-0.304,-6.051,-7.002
1621785669291.809,0.08,0.161,0.129,-0.30738786431878995,-6.04761213568121,-6.99861213568121
1621785669296.526,0.07,0.157,0.124,-0.31357908061078976,-6.0414209193892106,-6.99242091938921
1621785669301.241,0.065,0.143,0.119,-0.3197680537084809,-6.0352319462915185,-6.986231946291519
1621785669304.465,0.06089365671641791,0.12999657960199004,0.11420926616915422,-0.324,-6.031,-6.982
1621785669305.952,0.059,0.124,0.112,-0.32204428459031137,-6.03872507586827,-6.980142070360796
1621785669310.66,0.054,0.126,0.11,-0.31585150692849917,-6.063186547632428,-6.974258931582074
1621785669315.365,0.047,0.113,0.101,-0.30966258289311005,-6.0876327975722155,-6.9683794537484545
1621785669319.67,0.04516885611921699,0.10842214029804248,0.09642214029804247,-0.304,-6.11,-6.963
1621785669320.067,0.045,0.108,0.096,-0.304,-6.112799613806421,-6.964543712285783
1621785669324.766,0.038,0.103,0.089,-0.304,-6.1459404296403575,-6.982817620082066
1621785669329.461,0.037,0.101,0.086,-0.304,-6.179050253439536,-7.001074438812455
1621785669334.153,0.037,0.094,0.08,-0.304,-6.212141137661919,-7.019320814224797
1621785669334.842,0.03744061621734152,0.09223753513063392,0.07985312792755282,-0.304,-6.217,-7.022
1621785669338.844,0.04,0.082,0.079,-0.2987133665521745,-6.217,-7.042617870446519
1621785669343.529,0.037,0.077,0.068,-0.2925243416702949,-6.217,-7.0667550674858495
1621785669348.212,0.042,0.068,0.063,-0.2863382194056085,-6.217,-7.090880944318126
1621785669349.982,0.04464736567553469,0.06421804903495044,0.061487219613980175,-0.284,-6.217,-7.1
1621785669352.892,0.049,0.058,0.059,-0.2803394213673832,-6.209486180701471,-7.092486180701471
1621785669357.569,0.047,0.049,0.047,-0.27445639243575237,-6.197410489736544,-7.080410489736544
1621785669362.243,0.049,0.044,0.049,-0.26857735574591884,-6.185342993373202,-7.068342993373202
1621785669365.087,0.049,0.039737205290396774,0.04230132259919494,-0.265,-6.178,-7.061
1621785669366.913,0.049,0.037,0.038,-0.26027494776397414,-6.178,-7.053851844053192
1621785669371.58,0.054,0.037,0.033,-0.24819953352014124,-6.178,-7.035583909684316
1621785669376.245,0.051,0.028,0.026,-0.23612917280811158,-6.178,-7.017323620402014
1621785669380.16,0.045120527997485727,0.022120527997485727,0.023480226284636738,-0.226,-6.178,-7.002
1621785669380.906,0.044,0.021,0.023,-0.22401597091475686,-6.178992014542621,-7.003934428358112
1621785669385.564,0.051,0.017,0.017,-0.21162942283970657,-6.185185288580147,-7.016011312731286
1621785669390.219,0.049,0.012,0.012,-0.19925066545478154,-6.191374667272609,-7.028080601181588
1621785669394.87,0.044,0.005,0.005,-0.18688229565669026,-6.197558852171655,-7.040139761734728
1621785669395.202,0.044356767825265146,0.0051427071301060594,0.005,-0.186,-6.198,-7.041
1621785669399.52,0.049,0.007,0.005,-0.17477965743286106,-6.192245978170698,-7.052220342567139
1621785669404.165,0.054,-0.005,0.0,-0.16270987523789385,-6.186056346275843,-7.064290124762106
1621785669408.807,0.059,-0.009,0.0,-0.15064834002960456,-6.179870943604925,-7.0763516599703955
1621785669410.211,0.05869734764761604,-0.009907957057151879,-0.0027238711714556363,-0.147,-6.178,-7.08
1621785669413.446,0.058,-0.012,-0.009,-0.14267878689059188,-6.182321213109408,-7.08
1621785669418.083,0.066,-0.014,-0.012,-0.1364850807109082,-6.188514919289092,-7.08
1621785669422.715,0.066,-0.016,-0.016,-0.13029789662481656,-6.1947021033751835,-7.08
1621785669425.184,0.06813309428390635,-0.01973291499683611,-0.017599820712929762,-0.127,-6.198,-7.08
1621785669427.345,0.07,-0.023,-0.019,-0.1242524098944548,-6.198,-7.077252409894455
1621785669431.971,0.07,-0.03,-0.024,-0.11837043753880339,-6.198,-7.071370437538803
1621785669436.596,0.068,-0.031,-0.028,-0.11248970689148123,-6.198,-7.065489706891481
1621785669440.127,0.06952853519340521,-0.031,-0.0302928027901078,-0.108,-6.198,-7.061
1621785669441.216,0.07,-0.031,-0.031,-0.1036897139020356,-6.198,-7.065310286097964
1621785669445.833,0.073,-0.042,-0.031,-0.08541761787006862,-6.198,-7.083582382129931
1621785669450.447,0.07,-0.042,-0.037,-0.06715711642074579,-6.198,-7.101842883579255
1621785669455.035,0.07198994017048763,-0.04498491025573145,-0.035010059829512365,-0.049,-6.198,-7.12
1621785669455.058,0.072,-0.045,-0.035,-0.04903117974301328,-6.198091980241889,-7.1198160395162216
1621785669459.666,0.072,-0.052,-0.038,-0.05522577416019824,-6.216366033772585,-7.08326793245483
1621785669464.271,0.073,-0.051,-0.045,-0.06141643008352889,-6.23462846874641,-7.046743062507179
1621785669468.872,0.082,-0.059,-0.044,-0.06760183468172047,-6.2528754123110755,-7.010249175377849
1621785669469.912,0.08041694537346711,-0.05945230132186654,-0.04467845198279981,-0.069,-6.257,-7.002
1621785669473.471,0.075,-0.061,-0.047,-0.05485664950911872,-6.221761482675261,-6.985459471459817
1621785669478.066,0.072,-0.068,-0.054,-0.036595553289809075,-6.1762634971796935,-6.964103274186387
1621785669482.658,0.073,-0.068,-0.052,-0.01834610008386916,-6.130794520547945,-6.942760693318423
1621785669484.758,0.0661356067457573,-0.07211863595254563,-0.054745757301697076,-0.01,-6.11,-6.933
1621785669487.247,0.058,-0.077,-0.058,-8.628077924646357e-05,-6.11,-6.906619425124435
1621785669491.833,0.047,-0.077,-0.054,0.018179467317137495,-6.11,-6.858013959851007
1621785669496.417,0.031,-0.075,-0.056,0.036437436134093684,-6.11,-6.809429195371988
1621785669499.571,0.01791293452761783,-0.07844396459799531,-0.05462241416080188,0.049,-6.11,-6.776
1621785669500.996,0.012,-0.08,-0.054,0.05652215576776923,-6.116557776823184,-6.779857515778343
1621785669505.572,-0.002,-0.063,-0.054,0.08067630439810991,-6.137615239731685,-6.792244258665697
1621785669510.146,-0.003,-0.063,-0.047,0.10482014340944387,-6.158663714767208,-6.804625714568945
1621785669514.348,-0.011273193398493832,-0.0675962185547188,-0.04883848742188752,0.127,-6.178,-6.816
1621785669514.717,-0.012,-0.068,-0.049,0.12750069541029208,-6.179977746870653,-6.820155771905424
1621785669519.283,-0.012,-0.061,-0.051,0.1336938207828333,-6.204440592092191,-6.871558712497516
1621785669523.847,-0.01,-0.058,-0.047,0.13988429697330948,-6.228892973044572,-6.922939664878469
1621785669528.408,-0.002,-0.051,-0.045,0.14607079939068812,-6.253329657593218,-6.974287634942711
1621785669529.093,-0.0016993464052287581,-0.05145098039215686,-0.045901960784313724,0.147,-6.257,-6.982
1621785669532.965,0.0,-0.054,-0.051,0.13673616089207485,-6.272264170981017,-6.997527346342759
1621785669537.521,0.007,-0.051,-0.047,0.12465964755077658,-6.290224113898845,-7.015796943448826
1621785669542.072,0.014,-0.051,-0.047,0.11259607726005574,-6.308164808177353,-7.03404696004248
1621785669543.806,0.017812335605775942,-0.05138123356057759,-0.047762467121155186,0.108,-6.315,-7.041
1621785669546.62,0.024,-0.052,-0.049,0.11164287021173966,-6.303879659353637,-7.0260450591307535
1621785669551.166,0.028,-0.049,-0.052,0.11752733653798174,-6.285916551620898,-7.001887776317759
1621785669555.708,0.024,-0.049,-0.049,0.12340674639477055,-6.26796887942649,-6.977751251642521
1621785669558.484,0.024,-0.04594223321858864,-0.050223106712564546,0.127,-6.257,-6.963
1621785669560.247,0.024,-0.044,-0.051,0.12940773462243707,-6.24989718286381,-6.94999823303884
1621785669564.782,0.023,-0.044,-0.049,0.1356004334055676,-6.231628721453576,-6.916557659609936
1621785669569.316,0.016,-0.04,-0.049,0.1417917986331055,-6.213364194032339,-6.88312428738123
1621785669573.13,0.008421001563258045,-0.04336844374966309,-0.04478944531292113,0.147,-6.198,-6.855
1621785669573.845,0.007,-0.044,-0.044,0.1460213668788319,-6.198,-6.855
1621785669578.371,-0.002,-0.04,-0.044,0.13982714378790156,-6.198,-6.855
1621785669582.894,-0.007,-0.037,-0.042,0.1336372642376251,-6.198,-6.855
1621785669587.414,-0.017,-0.038,-0.042,0.12745139410949063,-6.198,-6.855
1621785669587.744,-0.017438043771953526,-0.03792699270467441,-0.041634963523372065,0.127,-6.198,-6.855
1621785669591.932,-0.023,-0.037,-0.037,0.11034228502544871,-6.209200877310474,-6.883145794267346
1621785669596.446,-0.03,-0.038,-0.035,0.09238722207339942,-6.221274109295473,-6.913483659255291
1621785669600.956,-0.033,-0.037,-0.035,0.07444866729172248,-6.233336240959014,-6.94379363112778
1621785669602.326,-0.03421548876252369,-0.03578451123747631,-0.03591161657189277,0.069,-6.237,-6.953
1621785669605.464,-0.037,-0.033,-0.038,0.06468664955285985,-6.249724383819063,-6.963567708595494
1621785669609.969,-0.031,-0.037,-0.033,0.05849480713410849,-6.26799031895438,-6.978737722521434
1621785669614.47,-0.03,-0.035,-0.037,0.052308333752789385,-6.286240415429272,-6.993894582305666
1621785669616.877,-0.027859531046461137,-0.03874582066869301,-0.037,0.049,-6.296,-7.002
1621785669618.968,-0.026,-0.042,-0.037,0.04611936232468974,-6.296,-7.00488063767531
1621785669623.463,-0.019,-0.03,-0.038,0.039927252547674305,-6.296,-7.011072747452325
1621785669627.956,-0.016,-0.04,-0.037,0.033737497057141894,-6.296,-7.017262502942859
1621785669631.395,-0.012934994288201055,-0.046896262851547625,-0.037,0.029,-6.296,-7.022
1621785669632.444,-0.012,-0.049,-0.037,0.029,-6.296,-7.0177272604702114
1621785669636.93,-0.014,-0.047,-0.033,0.029,-6.296,-6.999456998398921
1621785669641.412,-0.009,-0.045,-0.038,0.029,-6.296,-6.981201651638999
1621785669645.881,-0.005009809264305177,-0.044002452316076295,-0.03301226158038147,0.029,-6.296,-6.963
1621785669645.892,-0.005,-0.044,-0.033,0.029015201932334513,-6.295984798067666,-6.9629923990338325
1621785669650.368,-0.009,-0.044,-0.033,0.03520846916541392,-6.289791530834586,-6.9598957654172935
1621785669654.841,-0.007,-0.049,-0.037,0.04139802037058933,-6.2836019796294105,-6.956800989814705
1621785669659.311,-0.005,-0.052,-0.033,0.04758317990642366,-6.277416820093576,-6.953708410046788
1621785669660.335,-0.006145839025189881,-0.050395825364734165,-0.03185416097481012,0.049,-6.276,-6.953
1621785669663.779,-0.01,-0.045,-0.028,0.03490828592712989,-6.280776852228091,-6.955388426114046
1621785669668.242,-0.012,-0.045,-0.031,0.01664809359339022,-6.286966747934444,-6.958483373967222
1621785669672.703,-0.007,-0.051,-0.031,-0.0016041074089123697,-6.293153934714886,-6.961576967357443
1621785669674.755,-0.004698017090271692,-0.04915841367221735,-0.030539603418054336,-0.01,-6.296,-6.963
1621785669677.16,-0.002,-0.047,-0.03,-0.008328469134964538,-6.302518970373638,-6.969518970373638
1621785669681.615,0.002,-0.056,-0.03,-0.005232124070994672,-6.314594716123121,-6.981594716123121
1621785669686.066,0.007,-0.052,-0.03,-0.002138663589778397,-6.326659211999864,-6.993659211999864
1621785669689.143,0.007,-0.048540973708765575,-0.032075415774740657,0.0,-6.335,-7.002
1621785669690.514,0.007,-0.047,-0.033,0.0065892547365556655,-6.3330900710908535,-6.997320674172591
1621785669694.959,0.016,-0.054,-0.03,0.02795533861695976,-6.3268970032994325,-6.982147658083608
1621785669699.401,0.019,-0.059,-0.028,0.04930616687642437,-6.320708357427123,-6.966985475696452
1621785669703.498,0.017154099983501075,-0.05438524995875268,-0.03261475004124732,0.069,-6.315,-6.953
1621785669703.84,0.017,-0.054,-0.033,0.07038507167572912,-6.315955221845331,-6.950659706478941
1621785669708.275,0.012,-0.058,-0.026,0.08834354918437964,-6.328340378747848,-6.920316072067773
1621785669712.708,0.019,-0.056,-0.026,0.10629510627780525,-6.340720762950211,-6.8899841307719845
1621785669717.137,0.012,-0.058,-0.028,0.12422985664854178,-6.35308955630934,-6.85968058704212
1621785669717.821,0.012309117987754426,-0.05691808704285951,-0.027227205030613932,0.127,-6.355,-6.855
1621785669721.563,0.014,-0.051,-0.023,0.12202472151985239,-6.355,-6.859975278480148
1621785669725.986,0.012,-0.054,-0.023,0.11614378459646006,-6.355,-6.86585621540354
1621785669730.406,0.007,-0.052,-0.024,0.11026706758696098,-6.355,-6.871732932413039
1621785669732.111,0.0104742427592306,-0.04929781118726509,-0.022841919080256467,0.108,-6.355,-6.874
1621785669734.823,0.016,-0.045,-0.021,0.10058147818343723,-6.358614151654224,-6.88160874032468
1621785669739.237,0.012,-0.056,-0.023,0.088506678539626,-6.36449674635249,-6.893993150215768
1621785669743.647,0.019,-0.047,-0.021,0.07644323241317899,-6.37037380984999,-6.906365915473662
1621785669746.368,0.020234834635200268,-0.052556755858401194,-0.022234834635200266,0.069,-6.374,-6.914
1621785669748.054,0.021,-0.056,-0.023,0.06425800803378309,-6.376370995983108,-6.916252446183953
1621785669752.459,0.021,-0.049,-0.023,0.0518688158753047,-6.382565592062347,-6.92213731245923
1621785669756.86,0.023,-0.047,-0.024,0.039490610086860986,-6.388754694956569,-6.9280169602087405
1621785669760.59,0.028936826912401466,-0.048696236260686136,-0.024,0.029,-6.394,-6.933
1621785669761.258,0.03,-0.049,-0.024,0.029,-6.394941403158655,-6.933941403158655
1621785669765.653,0.035,-0.049,-0.023,0.029,-6.401135533152118,-6.940135533152118
1621785669770.045,0.04,-0.056,-0.024,0.029,-6.407325190104256,-6.946325190104257
1621785669774.434,0.051,-0.061,-0.024,0.029,-6.4135110621752744,-6.952511062175275
1621785669774.781,0.0513955793107288,-0.06084176827570848,-0.024474695172874563,0.029,-6.414,-6.953
1621785669778.819,0.056,-0.059,-0.03,0.017878084104898363,-6.402592906774254,-6.953
1621785669783.201,0.061,-0.052,-0.03,0.005809393265401128,-6.390214762323488,-6.953
1621785669787.581,0.066,-0.059,-0.037,-0.006254590596389591,-6.377841445542164,-6.953
1621785669788.941,0.06786453916536488,-0.06024302611024325,-0.03575697388975675,-0.01,-6.374,-6.953
1621785669791.957,0.072,-0.063,-0.033,-0.0078651782474209,-6.3699438386701,-6.940404551659784
1621785669796.33,0.072,-0.061,-0.037,-0.004769911351500804,-6.364062831567852,-6.922142476973855
1621785669800.699,0.075,-0.061,-0.037,-0.001677582125144723,-6.358187406037775,-6.903897734538354
1621785669803.069,0.07120081623525465,-0.0669701459160284,-0.03971370268910382,0.0,-6.355,-6.894
1621785669805.066,0.068,-0.072,-0.042,0.0,-6.355,-6.885641504858573
1621785669809.43,0.072,-0.073,-0.044,0.0,-6.355,-6.867374222714912
1621785669813.79,0.07,-0.072,-0.04,0.0,-6.355,-6.849123291704918
1621785669817.164,0.06612798386192985,-0.072,-0.041548806455228064,0.0,-6.355,-6.835
1621785669818.147,0.065,-0.072,-0.042,0.0006989826035626237,-6.35220406958575,-6.835
1621785669822.502,0.063,-0.073,-0.04,0.0037959651376783914,-6.339816139449287,-6.835
1621785669826.853,0.061,-0.07,-0.04,0.006890169797562415,-6.32743932080975,-6.835
1621785669831.2,0.056,-0.077,-0.042,0.009981422966075211,-6.315074308135699,-6.835
1621785669831.226,0.05595791425521155,-0.077,-0.04197595100297803,0.01,-6.315,-6.835
1621785669835.545,0.049,-0.077,-0.038,0.015849256900212313,-6.32115711252654,-6.822993630573248
1621785669839.887,0.044,-0.079,-0.038,0.021729925864049288,-6.3273472903832095,-6.8109227837527415
1621785669844.225,0.042,-0.075,-0.042,0.02760530437506526,-6.333531899342174,-6.798862796282761
1621785669845.255,0.04105,-0.074525,-0.042,0.029,-6.335,-6.796
1621785669848.561,0.038,-0.073,-0.042,0.03372505233775297,-6.339725052337753,-6.8052138520586185
1621785669852.893,0.037,-0.072,-0.04,0.039916259595254716,-6.3459162595952545,-6.817286706210747
1621785669857.222,0.031,-0.059,-0.04,0.04610293091416609,-6.352102930914167,-6.829350715282624
1621785669859.249,0.029594300225733634,-0.06087426636568849,-0.04,0.049,-6.355,-6.835
1621785669861.548,0.028,-0.063,-0.04,0.05542202909701336,-6.355,-6.841422029097013
1621785669865.871,0.031,-0.063,-0.042,0.06749751696160033,-6.355,-6.853497516961601
1621785669870.19,0.031,-0.07,-0.038,0.0795614114849269,-6.355,-6.865561411484927
1621785669873.211,0.028964802631578947,-0.06525120614035088,-0.038,0.088,-6.355,-6.874
1621785669874.643,0.028,-0.063,-0.038,0.08631775164898192,-6.358453036088933,-6.872317751648982
1621785669879.674,0.031,-0.058,-0.038,0.08040808718095785,-6.370583399996981,-6.866408087180957
1621785669884.704,0.033,-0.056,-0.031,0.07449956983080011,-6.382711409294673,-6.8604995698308
1621785669889.386,0.033,-0.0522766721677507,-0.03286166391612465,0.069,-6.394,-6.855
1621785669889.734,0.033,-0.052,-0.033,0.0694066475420916,-6.394428050044307,-6.854165302413602
1621785669894.766,0.04,-0.054,-0.031,0.07528862588426127,-6.400619606193959,-6.842091767921779
1621785669899.796,0.04,-0.051,-0.031,0.08116775055946891,-6.406808158483651,-6.830024090956879
1621785669904.826,0.047,-0.051,-0.026,0.08704716060137276,-6.412997011159339,-6.817955828239287
1621785669905.641,0.04651177072671443,-0.050674513817809616,-0.026,0.088,-6.414,-6.816
1621785669909.835,0.044,-0.049,-0.026,0.088,-6.403626185156108,-6.810813092578054
1621785669914.84,0.047,-0.045,-0.019,0.088,-6.391245606618757,-6.804622803309378
1621785669919.844,0.042,-0.047,-0.023,0.088,-6.378868047587415,-6.798434023793708
1621785669921.812,0.04042650790552411,-0.041492777669334374,-0.021426507905524108,0.088,-6.374,-6.796
1621785669924.847,0.038,-0.033,-0.019,0.08443369873769402,-6.374,-6.788679697408951
1621785669929.851,0.037,-0.03,-0.016,0.07855336111614424,-6.374,-6.7766095307120855
1621785669934.855,0.035,-0.024,-0.012,0.07267331038231564,-6.374,-6.764539952890016
1621785669937.981,0.03250068319344134,-0.02649931680655866,-0.01324965840327933,0.069,-6.374,-6.757
1621785669939.858,0.031,-0.028,-0.014,0.06667832336775986,-6.369472730567131,-6.754678323367759
1621785669944.861,0.026,-0.023,-0.003,0.0604897022407441,-6.357404919369451,-6.748489702240744
1621785669949.865,0.017,-0.019,-0.009,0.054300175152503474,-6.345335341547382,-6.742300175152503
1621785669954.15,0.016143519422213547,-0.019,-0.005574077688854187,0.049,-6.335,-6.737
1621785669954.868,0.016,-0.019,-0.005,0.05073209000302024,-6.332379658713379,-6.737
1621785669959.871,0.0,-0.014,-0.003,0.06280135910601027,-6.314121020839625,-6.737
1621785669964.874,-0.009,-0.012,0.0,0.07487003926306252,-6.295863273935367,-6.737
1621785669969.876,-0.019,-0.003,0.0,0.08693636363636363,-6.277609090909091,-6.737
1621785669970.317,-0.01944065976966621,-0.0035287917235994537,0.00044065976966621123,0.088,-6.276,-6.737
1621785669974.879,-0.024,-0.009,0.005,0.088,-6.303655370303249,-6.76465537030325
1621785669979.881,-0.037,0.0,0.012,0.088,-6.333979189319802,-6.794979189319802
1621785669984.883,-0.033,0.005,0.01,0.088,-6.364301528331521,-6.825301528331521
1621785669986.483,-0.032360308473252636,0.004040462709878954,0.011919074580242092,0.088,-6.374,-6.835
1621785669989.885,-0.031,0.002,0.016,0.07558133949610295,-6.403047036432843,-6.865941408374116
1621785669994.888,-0.026,0.005,0.017,0.05731918010996314,-6.445761917708899,-6.911442042776872
1621785669999.89,-0.017,0.005,0.021,0.03906058546311401,-6.488468461120173,-6.9569337955410555
1621785670002.646,-0.01038696607273615,0.007755430803026605,0.018795655357578718,0.029,-6.512,-6.982
1621785670004.891,-0.005,0.01,0.017,0.023582416918429005,-6.5160284592145015,-6.9875564954682785
1621785670009.893,0.012,0.009,0.019,0.011512447129909367,-6.525003564954683,-6.999935951661632
1621785670014.895,0.021,0.01,0.019,-0.0005575226586102718,-6.533978670694864,-7.012315407854985
1621785670018.808,0.035866822886155045,0.01,0.019,-0.01,-6.541,-7.022
1621785670019.896,0.04,0.01,0.019,-0.011279086280612168,-6.540326796694415,-7.014729404299678
1621785670024.896,0.051,0.016,0.014,-0.01715783112507743,-6.537232720460485,-6.981313380973244
1621785670029.898,0.056,0.017,0.012,-0.023038872354247557,-6.534137435603028,-6.947884304512698
1621785670034.899,0.065,0.014,0.012,-0.028918765391065256,-6.531042755057333,-6.914461754619207
1621785670034.968,0.065069091796875,0.0139447265625,0.01197236328125,-0.029,-6.531,-6.914
1621785670039.899,0.07,0.01,0.01,-0.035103380022060045,-6.512995028934923,-6.877990057869845
1621785670044.9,0.063,0.007,0.01,-0.041293489264614784,-6.494734206669387,-6.841468413338773
1621785670049.901,0.061,0.0,0.005,-0.04748359850716952,-6.4764733844038505,-6.8049467688077
1621785670051.126,0.05977490234375,0.0,0.005,-0.049,-6.472,-6.796
1621785670054.901,0.056,0.0,0.005,-0.05811082236693006,-6.4584505718645655,-6.759323099702359
1621785670059.901,0.051,0.005,0.007,-0.07017844894012419,-6.440503845165969,-6.710743167087193
1621785670064.901,0.04,0.003,0.005,-0.08224607551331832,-6.422557118467372,-6.662163234472026
1621785670067.285,0.035708740234375,0.0006159667968749999,0.005,-0.088,-6.414,-6.639
1621785670069.901,0.031,-0.002,0.005,-0.08492372202662475,-6.414,-6.629447347345835
1621785670074.901,0.021,0.0,0.005,-0.07904391121050484,-6.414,-6.611188987443147
1621785670079.9,0.014,-0.003,0.005,-0.07316524879493495,-6.414,-6.592934193626377
1621785670083.442,0.007623168587614768,-0.007959757765188515,0.005,-0.069,-6.414,-6.58
1621785670084.899,0.005,-0.01,0.005,-0.069,-6.41751743210772,-6.588838675552735
1621785670089.898,0.0,0.0,0.01,-0.069,-6.4295856190778435,-6.619163863323813
1621785670094.898,-0.012,-0.009,0.005,-0.069,-6.441656163576189,-6.6494949751401675
1621785670099.597,-0.012,-0.016519828091424108,0.009699892557140067,-0.069,-6.453,-6.678
1621785670099.897,-0.012,-0.017,0.01,-0.0697244381300727,-6.454095944863443,-6.680191889726887
1621785670104.896,-0.014,-0.024,0.007,-0.08179408430693892,-6.472355153182292,-6.716710306364584
1621785670109.895,-0.012,-0.021,0.009,-0.09386373048380514,-6.490614361501141,-6.753228723002282
1621785670114.894,-0.005,-0.019,0.005,-0.10593337666067137,-6.50887356981999,-6.789747139639981
1621785670115.75,-0.004143708479874952,-0.01985629152012505,0.004143708479874952,-0.108,-6.512,-6.796
1621785670119.892,0.0,-0.024,0.0,-0.10287114375973035,-6.501742287519461,-6.80112885624027
1621785670124.89,0.01,-0.03,0.003,-0.09668271890445744,-6.489365437808915,-6.807317281095543
1621785670129.889,0.012,-0.03,0.0,-0.09049278253903474,-6.47698556507807,-6.813507217460965
1621785670131.902,0.011194411879640485,-0.034833528722157094,-0.0020139703008987884,-0.088,-6.472,-6.816
1621785670134.887,0.01,-0.042,-0.005,-0.08448795016782075,-6.457582111215265,-6.819512049832179
1621785670139.885,0.01,-0.047,0.0,-0.07860714825678086,-6.433439871790996,-6.825392851743219
1621785670144.882,0.007,-0.042,-0.005,-0.07272749538870915,-6.40930234949049,-6.831272504611291
1621785670148.05,0.010169361535831176,-0.04326774461433247,-0.0075354892286649405,-0.069,-6.394,-6.835
1621785670149.88,0.012,-0.044,-0.009,-0.07115314947533945,-6.394,-6.837266473131936
1621785670154.878,0.009,-0.047,-0.009,-0.07703430705494572,-6.394,-6.843457165320996
1621785670159.875,0.005,-0.052,-0.01,-0.08291431552209017,-6.394,-6.84964664791799
1621785670164.197,0.006729822161422708,-0.053729822161422705,-0.01172982216142271,-0.088,-6.394,-6.855
1621785670164.872,0.007,-0.054,-0.012,-0.08883623166490245,-6.396466883411462,-6.855
1621785670169.869,0.014,-0.054,-0.01,-0.09502616059277182,-6.414727173748677,-6.855
1621785670174.866,0.01,-0.059,-0.014,-0.10121639195523968,-6.432988356267957,-6.855
1621785670179.863,0.017,-0.063,-0.016,-0.10740662331770755,-6.451249538787238,-6.855
1621785670180.342,0.01786292332502566,-0.06395880369447295,-0.016287641108341886,-0.108,-6.453,-6.855
1621785670184.859,0.026,-0.073,-0.019,-0.11331621850518737,-6.419983485073047,-6.849403980520855
1621785670189.856,0.024,-0.077,-0.019,-0.11919764979885666,-6.383456701249206,-6.84321300021173
1621785670194.853,0.028,-0.08,-0.023,-0.12507908109252594,-6.346929917425365,-6.837022019902604
1621785670196.485,0.02505995895230649,-0.08294004104769351,-0.023326671227521502,-0.127,-6.335,-6.835
1621785670199.849,0.019,-0.089,-0.024,-0.12304033758337493,-6.318744543763328,-6.806448749943282
1621785670204.845,0.007,-0.091,-0.03,-0.11715989836199464,-6.294603793275557,-6.76404768818912
1621785670209.841,0.0,-0.094,-0.028,-0.11127917177125399,-6.2704618630609374,-6.721644554350621
1621785670212.627,-0.0078069686751698186,-0.09623056247861995,-0.029115281239309974,-0.108,-6.257,-6.698
1621785670214.837,-0.014,-0.098,-0.03,-0.10266031400308558,-6.2730190579907426,-6.692660314003086
1621785670219.833,-0.026,-0.096,-0.026,-0.09058880116162991,-6.30923359651511,-6.68058880116163
1621785670224.828,-0.038,-0.103,-0.03,-0.07852023777112262,-6.345439286686632,-6.668520237771123
1621785670228.768,-0.042731919468334635,-0.09195885457388585,-0.03,-0.069,-6.374,-6.659
1621785670229.824,-0.044,-0.089,-0.03,-0.069,-6.375308524317374,-6.6705150139928895
1621785670234.819,-0.051,-0.087,-0.031,-0.069,-6.381498676348234,-6.724988351864458
1621785670239.814,-0.044,-0.089,-0.03,-0.069,-6.387688525830119,-6.779459027305045
1621785670244.809,-0.042,-0.082,-0.033,-0.069,-6.393878677860979,-6.833932365176613
1621785670244.907,-0.041921599296153286,-0.08217640158365512,-0.033,-0.069,-6.394,-6.835
1621785670249.804,-0.038,-0.091,-0.033,-0.069,-6.38793110542957,-6.835
1621785670254.799,-0.038,-0.096,-0.035,-0.069,-6.381740578811213,-6.835
1621785670259.793,-0.035,-0.093,-0.037,-0.069,-6.375551565029273,-6.835
1621785670261.045,-0.033997262416894804,-0.09425342197888151,-0.0372506843957763,-0.069,-6.374,-6.835
1621785670264.787,-0.031,-0.098,-0.038,-0.069,-6.369593602953414,-6.807865870818392
1621785670269.782,-0.037,-0.099,-0.037,-0.069,-6.363712178294222,-6.771648676864419
1621785670274.776,-0.04,-0.106,-0.033,-0.069,-6.357831903529875,-6.735438563841859
1621785670277.181,-0.04674198279233477,-0.10455528940164255,-0.033,-0.069,-6.355,-6.718
1621785670279.77,-0.054,-0.103,-0.033,-0.07830755844745405,-6.3517904970870855,-6.711580994174169
1621785670284.764,-0.059,-0.106,-0.031,-0.09626004388287812,-6.345599984867973,-6.699199969735946
1621785670289.758,-0.07,-0.108,-0.031,-0.11421340697586442,-6.339409170008323,-6.686818340016645
1621785670293.315,-0.07641147132169576,-0.10586284289276808,-0.0274380714879468,-0.127,-6.335,-6.678
1621785670294.751,-0.079,-0.105,-0.026,-0.12878023940315672,-6.335,-6.681560478806313
1621785670299.745,-0.089,-0.105,-0.028,-0.13497142900379835,-6.335,-6.693942858007596
1621785670304.739,-0.091,-0.098,-0.03,-0.14116231594558193,-6.335,-6.706324631891164
1621785670309.448,-0.0957156618258276,-0.10082939709549656,-0.026227470539337928,-0.147,-6.335,-6.718
1621785670309.732,-0.096,-0.101,-0.026,-0.146647965129478,-6.335352034870522,-6.720059403992554
1621785670314.725,-0.099,-0.096,-0.028,-0.14045723669274893,-6.341542763307251,-6.756275165347419
1621785670319.717,-0.106,-0.099,-0.028,-0.13426802173353714,-6.347731978266463,-6.792482072858808
1621785670324.711,-0.105,-0.099,-0.021,-0.1280763852102977,-6.353923614789703,-6.828703146519758
1621785670325.579,-0.10465217391304348,-0.09882608695652174,-0.02065217391304348,-0.127,-6.355,-6.835
1621785670329.703,-0.103,-0.098,-0.019,-0.11702922746261428,-6.355,-6.844970772537385
1621785670334.695,-0.105,-0.101,-0.024,-0.10495875461645576,-6.355,-6.857041245383544
1621785670339.688,-0.103,-0.099,-0.021,-0.09288651086759096,-6.355,-6.869113489132409
1621785670341.709,-0.10138059373013156,-0.099,-0.01938059373013156,-0.088,-6.355,-6.874
1621785670344.68,-0.099,-0.099,-0.017,-0.07713087380404504,-6.355,-6.874
1621785670349.672,-0.106,-0.099,-0.009,-0.058867097614145575,-6.355,-6.874
1621785670354.664,-0.112,-0.096,-0.007,-0.04060421460578902,-6.355,-6.874
1621785670357.836,-0.11072920232796987,-0.09472920232796987,-0.007,-0.029,-6.355,-6.874
1621785670359.656,-0.11,-0.094,-0.007,-0.03125731242051717,-6.355,-6.876257312420517
1621785670364.648,-0.11,-0.087,-0.002,-0.03744849512505299,-6.355,-6.882448495125053
1621785670369.639,-0.112,-0.086,0.003,-0.043638466662629445,-6.355,-6.88863846666263
1621785670373.962,-0.11286616445727143,-0.08253534217091425,0.0047323289145428755,-0.049,-6.355,-6.894
1621785670374.63,-0.113,-0.082,0.005,-0.05223110465116279,-6.355,-6.894
1621785670379.621,-0.115,-0.086,0.01,-0.07637463662790697,-6.355,-6.894
1621785670384.613,-0.124,-0.084,0.012,-0.10052171148255815,-6.355,-6.894
1621785670389.604,-0.126,-0.098,0.019,-0.1246640625,-6.355,-6.894
1621785670390.087,-0.126,-0.09693546651010324,0.018516121140956014,-0.127,-6.355,-6.894
1621785670394.594,-0.126,-0.087,0.014,-0.13818306275745093,-6.349408468621275,-6.904903486188514
1621785670399.585,-0.136,-0.08,0.023,-0.1505667555124788,-6.3432166222437605,-6.916977586624667
1621785670404.576,-0.138,-0.075,0.024,-0.16295044826750668,-6.337024775866246,-6.929051687060819
1621785670406.208,-0.1373458584079456,-0.07630828318410882,0.02628949557219042,-0.167,-6.335,-6.933
1621785670409.566,-0.136,-0.079,0.031,-0.17095708661417325,-6.330834645669292,-6.937165354330709
1621785670414.556,-0.14,-0.084,0.028,-0.17683747728649304,-6.3246447607510605,-6.94335523924894
1621785670419.547,-0.14,-0.084,0.03,-0.18271930648092066,-6.3184533615990315,-6.949546638400969
1621785670422.331,-0.14,-0.0828841919859093,0.030557904007045354,-0.186,-6.315,-6.953
1621785670424.537,-0.14,-0.082,0.031,-0.186,-6.307062519878232,-6.950262937889046
1621785670429.527,-0.138,-0.082,0.037,-0.186,-6.289108319323913,-6.944071834249625
1621785670434.516,-0.136,-0.08,0.037,-0.186,-6.271157632483681,-6.937881942235752
1621785670438.451,-0.14151979059640882,-0.08157708302754538,0.03936562454131807,-0.186,-6.257,-6.933
1621785670439.506,-0.143,-0.082,0.04,-0.18730930021205694,-6.257,-6.9304468645864885
1621785670444.495,-0.143,-0.086,0.045,-0.19349984853074825,-6.257,-6.918375295365041
1621785670449.484,-0.154,-0.08,0.044,-0.19969009391093606,-6.257,-6.906304316873674
1621785670454.473,-0.159,-0.084,0.049,-0.20588064222962738,-6.257,-6.894232747652227
1621785670454.569,-0.15919276872645433,-0.08392289250941827,0.048922892509418274,-0.206,-6.257,-6.894
1621785670459.463,-0.169,-0.08,0.045,-0.22391277282159247,-6.262768520061191,-6.920717356072884
1621785670464.452,-0.171,-0.084,0.054,-0.2421740605546552,-6.26864927373794,-6.947954530996774
1621785670469.44,-0.169,-0.087,0.056,-0.2604317737758054,-6.274528876300683,-6.975186374445269
1621785670470.688,-0.16874984095913875,-0.08574920479569366,0.05549968191827746,-0.265,-6.276,-6.982
1621785670474.429,-0.168,-0.082,0.054,-0.27405189415168363,-6.298745785304231,-7.004745785304231
1621785670479.418,-0.164,-0.087,0.061,-0.286123646223057,-6.329079931534861,-7.035079931534861
1621785670484.406,-0.148,-0.091,0.061,-0.2981930353383117,-6.359408140080886,-7.065408140080886
1621785670486.806,-0.1446320787039303,-0.09003773677255152,0.05859434193137879,-0.304,-6.374,-7.08
1621785670489.394,-0.141,-0.089,0.056,-0.31026232959709177,-6.374,-7.089473780672524
1621785670494.382,-0.126,-0.089,0.059,-0.3223315358982127,-6.374,-7.107732323538322
1621785670499.37,-0.117,-0.089,0.056,-0.3344007421993336,-6.374,-7.12599086640412
1621785670502.924,-0.10702457170827215,-0.09042506118453254,0.057425061184532555,-0.343,-6.374,-7.139
1621785670504.358,-0.103,-0.091,0.058,-0.352608762176001,-6.365280938025481,-7.1373095696171855
1621785670509.345,-0.089,-0.093,0.056,-0.3860291921043463,-6.3349549923497595,-7.131430049537198
1621785670514.333,-0.086,-0.096,0.049,-0.4194561663965097,-6.304623108269833,-7.125549378133948
1621785670519.04,-0.07561766289714593,-0.09411230234493563,0.04428075586233906,-0.451,-6.276,-7.12
1621785670519.32,-0.075,-0.094,0.044,-0.451,-6.27532229915009,-7.116750511309407
1621785670524.307,-0.068,-0.105,0.047,-0.451,-6.263253670065296,-7.058882982107958
1621785670529.294,-0.072,-0.112,0.045,-0.451,-6.251184450134077,-7.0010126198736495
1621785670534.282,-0.077,-0.117,0.044,-0.451,-6.239112866817156,-6.943130925507901
1621785670535.155,-0.07910116045634823,-0.11857587034226118,0.044525290114087054,-0.451,-6.237,-6.933
1621785670539.268,-0.089,-0.126,0.047,-0.4910736178658546,-6.221940487553596,-6.907985894580549
1621785670544.255,-0.096,-0.129,0.044,-0.5396605305819433,-6.203681711437359,-6.877657757980698
1621785670549.241,-0.112,-0.133,0.042,-0.588240307258761,-6.185425617017408,-6.847334075723831
1621785670551.269,-0.11688001174915554,-0.133,0.0399666617711852,-0.608,-6.178,-6.835
1621785670554.228,-0.124,-0.133,0.037,-0.6151629034702227,-6.185162903470222,-6.856672374602213
1621785670559.214,-0.126,-0.136,0.04,-0.627232868616457,-6.197232868616457,-6.893191756326717
1621785670564.2,-0.131,-0.145,0.037,-0.6393022427640551,-6.209302242764055,-6.929709349901501
1621785670567.38,-0.13546432943250258,-0.14818880673750182,0.037,-0.647,-6.217,-6.953
1621785670569.186,-0.138,-0.15,0.037,-0.6558563895076601,-6.221484247851979,-6.971721734782016
1621785670574.172,-0.145,-0.152,0.035,-0.6803054355897016,-6.233863511690988,-7.023405161309876
1621785670579.157,-0.134,-0.155,0.033,-0.7047484960070313,-6.246239744813686,-7.075075934597142
1621785670583.491,-0.13921529647945943,-0.16282294471918915,0.028653919600450474,-0.726,-6.257,-7.12
1621785670584.143,-0.14,-0.164,0.028,-0.7311412873793176,-6.257769168978008,-7.125546113157217
1621785670589.128,-0.131,-0.166,0.028,-0.770442974279695,-6.263648948907986,-7.167942421073372
1621785670594.114,-0.124,-0.176,0.026,-0.8097542854544628,-6.2695301686900375,-7.210349111080799
1621785670599.099,-0.122,-0.192,0.019,-0.8490578972097182,-6.27541023659043,-7.252747495415208
1621785670599.599,-0.12129773684726168,-0.19250161653767023,0.018097090232193594,-0.853,-6.276,-7.257
1621785670604.083,-0.115,-0.197,0.01,-0.8802814745202655,-6.259575438809228,-7.2734245611907715
1621785670609.069,-0.112,-0.211,0.009,-0.9106184860702701,-6.241311319610755,-7.291688680389244
1621785670614.053,-0.105,-0.218,0.0,-0.9409421287173735,-6.2230552490374995,-7.3099447509625
1621785670615.706,-0.10367358832459964,-0.22264244086390128,-0.001658014594250453,-0.951,-6.217,-7.316
1621785670619.038,-0.101,-0.232,-0.005,-0.9754105859884197,-6.2089320944614546,-7.307932094461455
1621785670624.022,-0.098,-0.258,-0.005,-1.0119227271349318,-6.196864522387607,-7.295864522387607
1621785670629.007,-0.099,-0.274,-0.01,-1.0484438111983507,-6.184793994603935,-7.283793994603935
1621785670631.813,-0.09731101205055355,-0.27794097188204175,-0.011125991966297639,-1.069,-6.178,-7.277
1621785670633.991,-0.096,-0.281,-0.012,-1.0915844677561168,-6.178,-7.261042112603462
1621785670638.975,-0.098,-0.297,-0.014,-1.1432672285722947,-6.178,-7.224523754661492
1621785670643.958,-0.101,-0.314,-0.016,-1.194937331352515,-6.178,-7.188014340720978
1621785670647.918,-0.09941128360840394,-0.3211492237621823,-0.02235486556638425,-1.236,-6.178,-7.159
1621785670648.943,-0.099,-0.323,-0.024,-1.2447216562054642,-6.175517192759028,-7.155243958276479
1621785670653.926,-0.099,-0.33,-0.031,-1.2871148458109707,-6.163449058491768,-7.136987037205494
1621785670658.909,-0.098,-0.332,-0.042,-1.3295080354164772,-6.151380924224506,-7.118730116134509
1621785670663.892,-0.093,-0.347,-0.042,-1.3719033021013372,-6.139312198671882,-7.100472300554898
1621785670664.021,-0.09307759380817086,-0.3471551876163417,-0.04231037523268345,-1.373,-6.139,-7.1
1621785670668.876,-0.096,-0.353,-0.054,-1.373,-6.112468449619455,-7.082211801449407
1621785670673.859,-0.096,-0.36,-0.061,-1.373,-6.085237787683071,-7.0639548803784225
1621785670678.842,-0.103,-0.367,-0.075,-1.373,-6.058005791564329,-7.045697064798811
1621785670680.124,-0.10197069489365873,-0.36905861021268255,-0.07551465255317064,-1.373,-6.051,-7.041
1621785670683.824,-0.099,-0.375,-0.077,-1.3256592970005763,-6.071223212931793,-6.989292921481212
1621785670688.807,-0.106,-0.379,-0.087,-1.2619031935219724,-6.098458829951779,-6.919656400691475
1621785670693.79,-0.108,-0.368,-0.087,-1.1981439662754374,-6.1256957813969,-6.850016468019288
1621785670696.224,-0.11044290894834853,-0.3665342546309909,-0.08993149073801823,-1.167,-6.139,-6.816
1621785670698.772,-0.113,-0.365,-0.093,-1.1328152590952518,-6.166854233329795,-6.794159748866411
1621785670703.754,-0.117,-0.358,-0.082,-1.0659722327535222,-6.221318921460093,-6.751454482036972
1621785670708.736,-0.12,-0.349,-0.087,-0.9991259307562821,-6.27578627864303,-6.708747122427624
1621785670712.323,-0.11784004704498677,-0.3454000784083113,-0.07836018817994707,-0.951,-6.315,-6.678
1621785670713.718,-0.117,-0.344,-0.075,-0.9425069540290901,-6.326959595346792,-6.676353389046456
1621785670718.699,-0.127,-0.333,-0.077,-0.9121822911137063,-6.369661671697026,-6.670474117664902
1621785670723.682,-0.119,-0.326,-0.066,-0.8818457373394203,-6.4123804923179595,-6.664592540912745
1621785670728.42,-0.11043934715483017,-0.326,-0.06504881635053669,-0.853,-6.453,-6.659
1621785670728.663,-0.11,-0.326,-0.065,-0.853,-6.453286996875853,-6.659
1621785670733.644,-0.096,-0.312,-0.061,-0.853,-6.459165822439261,-6.659
1621785670738.625,-0.073,-0.298,-0.061,-0.853,-6.46504464800267,-6.659
1621785670743.607,-0.07,-0.293,-0.061,-0.853,-6.470924626163972,-6.659
1621785670744.518,-0.07384138809920597,-0.2917195373002647,-0.06008538378590334,-0.853,-6.472,-6.659
1621785670748.588,-0.091,-0.286,-0.056,-0.8059703165526552,-6.482113910418784,-6.644081982132294
1621785670753.568,-0.106,-0.279,-0.04,-0.7484203157942635,-6.4944902546679,-6.625826874364847
1621785670758.549,-0.127,-0.272,-0.023,-0.6908618513855815,-6.506868419056864,-6.607569081891125
1621785670760.614,-0.13238937359082442,-0.26785432800705816,-0.014294088814822076,-0.667,-6.512,-6.6
1621785670763.53,-0.14,-0.262,-0.002,-0.6776913052053465,-6.50837582874395,-6.589308694794654
1621785670768.51,-0.148,-0.251,0.012,-0.6959499491754282,-6.502186457906634,-6.571050050824572
1621785670773.49,-0.159,-0.239,0.021,-0.71420859314551,-6.495997087069319,-6.552791406854491
1621785670776.706,-0.16803940790118616,-0.2286692481129301,0.026811047936476817,-0.726,-6.492,-6.541
1621785670778.471,-0.173,-0.223,0.03,-0.7399287090558767,-6.4725875472213374,-6.543193497489114
1621785670783.45,-0.188,-0.222,0.038,-0.779223506743738,-6.417822356742979,-6.549381654605313
1621785670788.43,-0.204,-0.215,0.049,-0.8185260115606936,-6.363046424832734,-6.555571025442629
1621785670792.798,-0.21803431708991078,-0.2114914207275223,0.05514001372683597,-0.853,-6.315,-6.561
1621785670793.41,-0.22,-0.211,0.056,-0.8641793517844136,-6.307927348871085,-6.561
1621785670798.39,-0.236,-0.199,0.063,-0.9551755280407865,-6.2503583394027675,-6.561
1621785670803.369,-0.241,-0.194,0.066,-1.0461538601602332,-6.192800619082301,-6.561
1621785670808.348,-0.25,-0.185,0.066,-1.1371321922796795,-6.135242898761835,-6.561
1621785670808.888,-0.25054221002059024,-0.18445778997940973,0.06621688400823611,-1.147,-6.129,-6.561
1621785670813.328,-0.255,-0.18,0.068,-1.1525198579515274,-6.129,-6.536436632115703
1621785670818.306,-0.267,-0.176,0.073,-1.1587086792223757,-6.129,-6.508896377460428
1621785670823.285,-0.283,-0.168,0.082,-1.1648987145827328,-6.129,-6.48135072010684
1621785670824.975,-0.2877534085335949,-0.1642651790093183,0.0857348209906817,-1.167,-6.129,-6.472
1621785670828.263,-0.297,-0.157,0.093,-1.1629124021125479,-6.143102212711709,-6.484058413767984
1621785670833.243,-0.316,-0.143,0.105,-1.1567210587021186,-6.1644623474776905,-6.50232287682875
1621785670838.221,-0.33,-0.131,0.113,-1.150532143507558,-6.185814104898926,-6.520580176652704
1621785670841.062,-0.33171216282491417,-0.12186846493379108,0.11699504659146641,-1.147,-6.198,-6.531
1621785670843.199,-0.333,-0.115,0.12,-1.1640064359441409,-6.20318164845173,-6.553188084395871
1621785670848.177,-0.333,-0.112,0.12,-1.2036227079538555,-6.215252231329691,-6.604874939283546
1621785670853.156,-0.339,-0.106,0.12,-1.2432467516697023,-6.227325182149363,-6.656571933819065
1621785670857.146,-0.33418993426861576,-0.09397483567153929,0.12721509859707641,-1.275,-6.237,-6.698
1621785670858.133,-0.333,-0.091,0.129,-1.2761661555744472,-6.246636127641486,-6.707636127641487
1621785670863.111,-0.332,-0.094,0.141,-1.2820474101287345,-6.295233862642701,-6.756233862642701
1621785670868.088,-0.321,-0.094,0.148,-1.287927222492106,-6.343819680592665,-6.804819680592665
1621785670873.066,-0.309,-0.089,0.15,-1.2938084770463931,-6.392417415593879,-6.85341741559388
1621785670873.228,-0.30860914352987345,-0.08883714313744727,0.15022799960757383,-1.294,-6.394,-6.855
1621785670878.043,-0.297,-0.084,0.157,-1.3059766806339954,-6.399988340316997,-6.878354527236291
1621785670883.02,-0.284,-0.086,0.157,-1.3183565919718225,-6.406178295985911,-6.902495354345054
1621785670887.998,-0.267,-0.079,0.162,-1.3307389324102752,-6.412369466205138,-6.926640918200036
1621785670889.309,-0.2625210479835149,-0.07662879010891964,0.162,-1.334,-6.414,-6.933
1621785670892.974,-0.25,-0.07,0.162,-1.3160139223804541,-6.404893125255926,-6.910688156877018
1621785670897.951,-0.243,-0.075,0.164,-1.291590381728013,-6.392526775558487,-6.880390600118295
1621785670902.927,-0.229,-0.065,0.169,-1.267170435415624,-6.380162245780062,-6.850097502161153
1621785670905.407,-0.22700608499362057,-0.06200912749043086,0.16999695750318972,-1.255,-6.374,-6.835
1621785670907.902,-0.225,-0.059,0.171,-1.2381190640055058,-6.361808212892865,-6.807490326527491
1621785670912.842,-0.222,-0.044,0.18,-1.2046974535443908,-6.337670383115394,-6.753025479850119
1621785670917.781,-0.227,-0.038,0.182,-1.1712824501032346,-6.313537325074559,-6.698571400168234
1621785670921.37,-0.227,-0.027826297577854674,0.18563346515076617,-1.147,-6.296,-6.659
1621785670922.72,-0.227,-0.024,0.187,-1.137103827560886,-6.299298724146372,-6.646566347448292
1621785670927.66,-0.237,-0.016,0.194,-1.100887666748256,-6.311370777750581,-6.601063991555501
1621785670932.599,-0.239,-0.005,0.201,-1.0646768755354301,-6.32344104148819,-6.555568382082976
1621785670937.329,-0.2361263719964402,-0.003084247997626817,0.2124945120142391,-1.03,-6.335,-6.512
1621785670937.537,-0.236,-0.003,0.213,-1.0279530200315241,-6.337046979968476,-6.510200743721976
1621785670942.474,-0.236,0.016,0.218,-0.9793684790426492,-6.385631520957351,-6.46749586055978
1621785670947.413,-0.23,0.033,0.232,-0.9307647175845869,-6.434235282415413,-6.424774082972439
1621785670952.35,-0.229,0.047,0.243,-0.8821801765957121,-6.482819823404288,-6.3820691998102435
1621785670953.283,-0.2286220012860464,0.05096898649651284,0.2445119948558144,-0.873,-6.492,-6.374
1621785670957.286,-0.227,0.068,0.251,-0.873,-6.501787158490854,-6.369231897145481
1621785670962.222,-0.229,0.084,0.269,-0.873,-6.513855758781664,-6.363352322644831
1621785670967.159,-0.225,0.089,0.278,-0.873,-6.525926746766664,-6.357471584908549
1621785670969.234,-0.22415926402215847,0.09572588782273221,0.28430551983381147,-0.873,-6.531,-6.355
1621785670972.095,-0.223,0.105,0.293,-0.9011711044081395,-6.560965442268531,-6.347822648558436
1621785670977.03,-0.222,0.117,0.3,-0.9497631945614062,-6.612652570011178,-6.335442498200916
1621785670981.965,-0.22,0.14,0.312,-0.9983552847146728,-6.6643396977538245,-6.323062347843396
1621785670985.179,-0.2108823034680651,0.1491176965319349,0.3211176965319349,-1.03,-6.698,-6.315
1621785670986.9,-0.206,0.154,0.326,-1.0606576823534817,-6.725527144366683,-6.3277380511187005
1621785670991.833,-0.194,0.173,0.34,-1.1485381093125469,-6.804433865755985,-6.3642517496439455
1621785670996.767,-0.176,0.185,0.346,-1.2364359331689614,-6.883356207598892,-6.400772676457526
1621785671001.121,-0.1565854817160671,0.2097093869068237,0.34864743431144535,-1.314,-6.953,-6.433
1621785671001.701,-0.154,0.213,0.349,-1.3147276125118716,-6.959075564474128,-6.442640865782298
1621785671006.634,-0.12,0.229,0.353,-1.3209179865812934,-7.010765187953801,-6.524663322202138
1621785671011.566,-0.096,0.25,0.363,-1.327106828834901,-7.062442020771423,-6.606665482062437
1621785671016.499,-0.063,0.274,0.368,-1.3332972029043229,-7.114131644251096,-6.6886879384822775
1621785671017.059,-0.05902544428493639,0.2766118508984704,0.36902202861244493,-1.334,-7.12,-6.698
1621785671021.431,-0.028,0.297,0.377,-1.3178119512755688,-7.184477821190531,-6.6925125258561255
1621785671026.362,0.016,0.318,0.382,-1.2995528231057993,-7.257204857120969,-6.686322990883322
1621785671031.293,0.065,0.333,0.384,-1.2812945989427718,-7.329928292346588,-6.680133762353482
1621785671032.993,0.08154410454410455,0.34161672111672114,0.3846893376893377,-1.275,-7.355,-6.678
1621785671036.225,0.113,0.358,0.386,-1.275,-7.357028841143839,-6.628293391975971
1621785671041.155,0.173,0.38,0.384,-1.275,-7.360123364084961,-6.552477579918472
1621785671046.085,0.225,0.405,0.386,-1.275,-7.363217887026083,-6.476661767860974
1621785671048.924,0.24803570544248008,0.411910711632744,0.38887946318031,-1.275,-7.365,-6.433
1621785671051.015,0.265,0.417,0.391,-1.2904914230527493,-7.358567120935723,-6.359612665368755
1621785671055.944,0.3,0.435,0.384,-1.3270131221927552,-7.343401330614873,-6.1865988533411
1621785671060.873,0.33,0.45,0.391,-1.363533012432358,-7.32823629144758,-6.013593610595864
1621785671064.85,0.3412984889769631,0.4709829081000743,0.38777186029229627,-1.393,-7.316,-5.874
1621785671065.801,0.344,0.476,0.387,-1.423993269348706,-7.30429541273151,-5.867013078008095
1621785671070.73,0.353,0.494,0.396,-1.5846410523733594,-7.243626885808904,-5.830797681834907
1621785671075.657,0.353,0.513,0.394,-1.7452251778486447,-7.18298239911689,-5.7945966362075305
1621785671080.584,0.346,0.529,0.389,-1.9058093033239298,-7.122337912424874,-5.758395590580154
1621785671080.774,0.3453831822010802,0.5295397155740549,0.38907710222486497,-1.912,-7.12,-5.757
1621785671085.511,0.33,0.543,0.391,-2.13964044168392,-6.970917828387393,-6.03106123763515
1621785671090.438,0.298,0.532,0.396,-2.376408557625949,-6.815857925005751,-6.316111479181044
1621785671095.365,0.265,0.515,0.398,-2.613176673567978,-6.6607980216241085,-6.601161720726938
1621785671096.693,0.24855028999157291,0.5079886481931294,0.398,-2.677,-6.619,-6.678
1621785671100.29,0.204,0.489,0.398,-2.741417179325898,-6.508247656597579,-7.13253665833116
1621785671105.216,0.131,0.473,0.403,-2.829637190678551,-6.3565711458509115,-7.755029440191461
1621785671110.141,0.031,0.429,0.422,-2.9178397128085547,-6.204924704294064,-8.377398815642115
1621785671112.607,-0.018568709101725166,0.40296391037081103,0.4285090224072972,-2.962,-6.129,-8.689
1621785671115.066,-0.068,0.377,0.435,-2.9270728533726142,-6.238108696986435,-8.94353544466949
1621785671119.99,-0.159,0.311,0.428,-2.8571318664457133,-6.456596912784631,-9.453238123734119
1621785671124.914,-0.188,0.241,0.407,-2.787190879518812,-6.675085128582827,-9.962940802798748
1621785671128.518,-0.1601858389527965,0.19781485521618405,0.38504145180483934,-2.736,-6.835,-10.336
1621785671129.838,-0.15,0.182,0.377,-2.6725230004144223,-6.922125293548833,-10.362884376295069
1621785671134.761,-0.049,0.14,0.332,-2.4357465119491644,-7.24711263065801,-10.463166183174472
1621785671139.684,0.089,0.089,0.295,-2.198970023483907,-7.572099967767187,-10.563447990053875
1621785671144.424,0.24401958936718904,0.05530008926800238,0.2680400714144019,-1.971,-7.885,-10.66
1621785671144.607,0.25,0.054,0.267,-1.9615251005557433,-7.878008812060548,-10.645902637477356
1621785671149.529,0.4,0.042,0.22,-1.7064871196536584,-7.689825447511437,-10.26644078725168
1621785671154.45,0.525,0.03,0.192,-1.4515123890816422,-7.501688753108785,-9.887073044920015
1621785671159.372,0.627,0.044,0.162,-1.196474408179557,-7.3135053885596735,-9.507611194694341
1621785671160.327,0.6361197162135345,0.04555229212145267,0.15773119666600516,-1.147,-7.277,-9.434
1621785671164.293,0.674,0.052,0.14,-0.9831106675061039,-6.946726824624173,-8.966778204321054
1621785671169.213,0.684,0.086,0.117,-0.7798051686808041,-6.537021374936659,-8.38718733780692
1621785671174.133,0.649,0.133,0.11,-0.5764895812539349,-6.127295594490426,-7.807567710332755
1621785671176.226,0.6281587120460409,0.16022127406231396,0.11127599722167097,-0.49,-5.953,-7.561
1621785671179.054,0.6,0.197,0.113,-0.3802363538626939,-5.813349331899862,-7.377764091537398
1621785671183.973,0.534,0.272,0.126,-0.189308447243127,-5.570434572262325,-7.059035171248656
1621785671188.892,0.466,0.342,0.134,0.0016289356473659922,-5.327507756105053,-6.74029043157733
1621785671192.122,0.4154386539606909,0.38665157832042885,0.1379398451459202,0.127,-5.168,-6.531
1621785671193.811,0.389,0.41,0.14,0.16983295180445238,-5.119002504263394,-6.536207976770268
1621785671198.729,0.333,0.463,0.157,0.29455497856780716,-4.976330409132111,-6.551372689701793
1621785671203.647,0.3,0.517,0.164,0.41927700533116197,-4.83365831400083,-6.566537402633317
1621785671208.013,0.2786895729890765,0.563172591857001,0.17376727904667327,0.53,-4.707,-6.58
1621785671208.564,0.276,0.569,0.175,0.5507398312767952,-4.688306406257203,-6.578300582387018
1621785671213.482,0.264,0.604,0.176,0.7358453524286614,-4.521463804416307,-6.563133073128755
1621785671218.399,0.274,0.646,0.187,0.920914117122793,-4.354654332559891,-6.547968575687262
1621785671223.315,0.271,0.67,0.199,1.1059461253591898,-4.187877990687954,-6.532807090062541
1621785671223.901,0.26861620977353995,0.6733373063170441,0.20150297973778308,1.128,-4.168,-6.531
1621785671228.231,0.251,0.698,0.22,1.298934288393255,-4.151915274297924,-6.314537759195782
1621785671233.147,0.213,0.719,0.248,1.492999062360699,-4.133653995726824,-6.068784281476244
1621785671238.062,0.173,0.726,0.278,1.6870252855188528,-4.11539634474384,-5.823079622484898
1621785671239.784,0.15338108484005564,0.726,0.2888604708921121,1.755,-4.109,-5.737
1621785671242.977,0.117,0.726,0.309,1.709755077566458,-4.193859365630909,-5.7034182131271045
1621785671247.891,0.049,0.737,0.34,1.6401251518273088,-4.324454159683891,-5.651737334911825
1621785671252.806,-0.035,0.737,0.374,1.570484848018942,-4.455068418382251,-5.600048753862948
1621785671255.663,-0.08558431041335454,0.7317671403020668,0.37981428855325916,1.53,-4.531,-5.57
1621785671257.72,-0.122,0.728,0.384,1.3711599618625823,-4.59318859568186,-5.723787214738267
1621785671262.633,-0.215,0.721,0.377,0.9917537983637817,-4.741732607492157,-6.0911241772774805
1621785671267.547,-0.295,0.707,0.361,0.6122722211970228,-4.890306145045211,-6.458534154518054
1621785671271.539,-0.34620100402604503,0.6899329986579851,0.343932998657985,0.304,-5.011,-6.757
1621785671272.459,-0.358,0.686,0.34,0.24660957860890168,-5.0900132771273405,-6.822390298312281
1621785671277.371,-0.387,0.658,0.312,-0.059838212895583054,-5.511920691087555,-7.171555054693149
1621785671282.283,-0.393,0.641,0.276,-0.36627077339651387,-5.933807135494392,-7.520702456960876
1621785671287.195,-0.365,0.625,0.227,-0.6727185649009986,-6.355714549454607,-7.8698672133417436
1621785671287.408,-0.36239895600298283,0.6246098434004475,0.22465906040268457,-0.686,-6.374,-7.885
1621785671292.106,-0.305,0.616,0.173,-0.8488479327906941,-6.684891508054961,-8.15769626563678
1621785671297.016,-0.255,0.616,0.11,-1.0190499607637982,-7.009822652367251,-8.44270729793356
1621785671301.927,-0.176,0.614,0.049,-1.1892773768675662,-7.334802264928991,-8.727760843809142
1621785671303.275,-0.15074357316891254,0.6112547362140123,0.034175575555666055,-1.236,-7.424,-8.806
1621785671306.837,-0.084,0.604,-0.005,-1.2490237783762985,-7.360003847633705,-8.9272558676414
1621785671311.747,0.019,0.606,-0.059,-1.266976775682955,-7.2717865332820315,-9.094404463255097
1621785671316.656,0.131,0.586,-0.103,-1.2849253097345132,-7.183591150442478,-9.261511504424778
1621785671319.138,0.17700915104192572,0.5723489332073407,-0.12575177798776543,-1.294,-7.139,-9.346
1621785671321.565,0.222,0.559,-0.148,-1.198047060453517,-7.039986360627473,-9.192811973706492
1621785671326.474,0.307,0.538,-0.182,-1.0039597746270725,-6.839708092796995,-8.882953324404625
1621785671331.381,0.37,0.513,-0.201,-0.8099593589802798,-6.639519466124787,-8.573233362582553
1621785671334.997,0.40830367533694734,0.5004776446013826,-0.20615626398766598,-0.667,-6.492,-8.345
1621785671336.29,0.422,0.496,-0.208,-0.619785637298679,-6.418446709574107,-8.24184599513442
1621785671341.197,0.466,0.473,-0.211,-0.4406010685800511,-6.139302528254242,-7.850363301819974
1621785671346.104,0.494,0.459,-0.215,-0.2614164998614233,-5.8601583469343765,-7.4588806085055275
1621785671350.853,0.49690400597163475,0.43383194824583227,-0.21984000995272457,-0.088,-5.59,-7.08
1621785671351.01,0.497,0.433,-0.22,-0.08684135222547358,-5.582038010164792,-7.070879362390267
1621785671355.917,0.489,0.412,-0.22,-0.05062414908362852,-5.333160819343909,-6.785784968427537
1621785671360.823,0.449,0.403,-0.218,-0.014414153703988908,-5.084333158786385,-6.5007473124903745
1621785671365.728,0.386,0.391,-0.223,0.02178863391344525,-4.835555028492222,-6.215766394578777
1621785671366.705,0.37165805584590117,0.388211288636703,-0.2224024189935792,0.029,-4.786,-6.159
1621785671370.633,0.314,0.377,-0.22,0.0825399405321296,-4.737417461368993,-6.027628849620237
1621785671375.538,0.232,0.374,-0.223,0.1493974795482907,-4.676750435224699,-5.863580258515768
1621785671380.442,0.143,0.365,-0.22,0.21623837988568612,-4.616098507140766,-5.69957249379901
1621785671382.552,0.10642634539752077,0.35725499079006323,-0.21827888684223626,0.245,-4.59,-5.629
1621785671385.346,0.058,0.347,-0.216,0.29525717675701496,-4.671116846695533,-5.64628141516557
1621785671390.25,-0.012,0.351,-0.22,0.3834707305422439,-4.8134966177173055,-5.6766144968180345
1621785671395.154,-0.094,0.354,-0.215,0.4716842843274728,-4.955876388739079,-5.7069475784704995
1621785671398.396,-0.1356663512302022,0.3487090347644187,-0.21235451738220937,0.53,-5.05,-5.727
1621785671400.056,-0.157,0.346,-0.211,0.54844706172535,-5.094231023000555,-5.812317660479744
1621785671404.958,-0.202,0.346,-0.204,0.6029254486033175,-5.224855336992046,-6.0642801997903435
1621785671409.861,-0.22,0.347,-0.213,0.657414688290066,-5.3555056730591355,-6.316292933341556
1621785671414.233,-0.22,0.3380812829963144,-0.213,0.706,-5.472,-6.541
1621785671414.763,-0.22,0.337,-0.213,0.712894719802667,-5.487429445771989,-6.556429445771989
1621785671419.664,-0.218,0.321,-0.216,0.7766494411469976,-5.63010384645032,-6.69910384645032
1621785671424.564,-0.227,0.302,-0.216,0.840388283357743,-5.772742711786017,-6.841742711786017
1621785671429.466,-0.232,0.283,-0.211,0.9041557080089416,-5.915445540738457,-6.984445540738457
1621785671430.069,-0.23224613851519682,0.28041554559043347,-0.2090308918784255,0.912,-5.933,-7.002
1621785671434.366,-0.234,0.262,-0.195,0.9440281294819796,-6.058126844840615,-7.05519926591922
1621785671439.265,-0.236,0.243,-0.195,0.9805438366516047,-6.2007856669185575,-7.115852474438259
1621785671444.165,-0.223,0.223,-0.192,1.0170686427216509,-6.343480036395602,-7.176520796385115
1621785671445.9,-0.22052108043456595,0.2176880295026413,-0.19058347453403768,1.03,-6.394,-7.198
1621785671449.064,-0.216,0.208,-0.188,1.0337983587338804,-6.474365274264207,-7.239182205219967
1621785671453.963,-0.209,0.188,-0.183,1.039679366940211,-6.598795026840254,-7.302944715246499
1621785671458.861,-0.194,0.162,-0.176,1.0455594958968346,-6.723206176343555,-7.366697692355155
1621785671461.727,-0.18346965015449018,0.14386439748828866,-0.17541498056413835,1.049,-6.796,-7.404
1621785671463.76,-0.176,0.131,-0.175,1.018808763403533,-6.8198960425827355,-7.4115799274859215
1621785671468.657,-0.152,0.094,-0.182,0.9460843940445884,-6.877456607266836,-7.42983838617604
1621785671473.554,-0.131,0.066,-0.185,0.8733600246856437,-6.935017171950937,-7.448096844866158
1621785671477.551,-0.10977794396250873,0.03661561471731978,-0.19234609632067007,0.814,-6.982,-7.463
1621785671478.451,-0.105,0.03,-0.194,0.7967063199320935,-6.982,-7.455718450497724
1621785671483.348,-0.08,-0.002,-0.201,0.702599799367235,-6.982,-7.416094652365151
1621785671488.243,-0.051,-0.031,-0.215,0.6085308125626977,-6.982,-7.376486657921136
1621785671493.139,-0.028,-0.061,-0.225,0.5144430588779998,-6.982,-7.336870761632842
1621785671493.37,-0.02710277251421163,-0.062416674977560586,-0.2256611149895283,0.51,-6.982,-7.335
1621785671498.035,-0.009,-0.091,-0.239,0.48669806107011643,-6.956043409799624,-7.222324801630183
1621785671502.93,0.009,-0.119,-0.246,0.4622460866343512,-6.9288057673901635,-7.104088672080027
1621785671507.824,0.021,-0.148,-0.255,0.43779899039797465,-6.901573558924326,-6.985876130785144
1621785671509.185,0.026839152119700747,-0.15634164588528676,-0.25444389027431424,0.431,-6.894,-6.953
1621785671512.719,0.042,-0.178,-0.253,0.4879917086125436,-6.876567242071458,-6.891538353457061
1621785671517.612,0.049,-0.194,-0.248,0.5669020936911342,-6.852429947812124,-6.806438918568385
1621785671522.506,0.061,-0.218,-0.237,0.645828227773832,-6.828287836210357,-6.721322499459593
1621785671524.997,0.06303642532807745,-0.22512748864827106,-0.23343625567586448,0.686,-6.816,-6.678
1621785671527.399,0.065,-0.232,-0.23,0.7203385689354276,-6.803996694929651,-6.663109824089947
1621785671532.292,0.065,-0.243,-0.216,0.7902931937172776,-6.779543529629801,-6.632775517768614
1621785671537.184,0.07,-0.257,-0.202,0.8602338568935428,-6.755095244714204,-6.602447265594836
1621785671540.805,0.06851934308391155,-0.257,-0.1908950731293366,0.912,-6.737,-6.58
1621785671542.075,0.068,-0.257,-0.187,0.9293600926998842,-6.749618215527231,-6.576061830822711
1621785671546.968,0.08,-0.258,-0.175,0.9962441714947856,-6.79823303205871,-6.560889053688683
1621785671551.859,0.099,-0.267,-0.164,1.0630982155272306,-6.846826017767478,-6.545723089996137
1621785671556.607,0.1184188716924613,-0.2534067898152771,-0.1474939590614079,1.128,-6.894,-6.531
1621785671556.749,0.119,-0.253,-0.147,1.1305540120833784,-6.894791384025836,-6.530118685971228
1621785671561.64,0.145,-0.253,-0.134,1.218465565461934,-6.922031583664261,-6.499783009101163
1621785671566.53,0.175,-0.234,-0.124,1.306363953829751,-6.949267704003585,-6.469451875086917
1621785671571.419,0.206,-0.223,-0.103,1.3942404005130027,-6.976497025511072,-6.439128312499034
1621785671572.407,0.21266888045540797,-0.22097912713472487,-0.10017077798861479,1.412,-6.982,-6.433
1621785671576.308,0.239,-0.213,-0.089,1.4073072678372696,-6.860976907382218,-6.57847469704464
1621785671581.198,0.257,-0.206,-0.072,1.4014251267466304,-6.709279584518363,-6.760821070854458
1621785671586.086,0.271,-0.19,-0.059,1.3955453351057252,-6.557642852726598,-6.943094611722518
1621785671588.202,0.2740301168714414,-0.18393976625711717,-0.05380551393467186,1.393,-6.492,-7.022
1621785671590.974,0.278,-0.176,-0.047,1.2207683375595275,-6.373140840497248,-7.085555414682418
1621785671595.862,0.269,-0.166,-0.045,0.9170915331807781,-6.1635697940503436,-7.197615560640733
1621785671600.75,0.257,-0.182,-0.044,0.6134147288020285,-5.953998747603439,-7.309675706599048
1621785671603.992,0.22980116900634462,-0.20853544487185893,-0.05395079182694709,0.412,-5.815,-7.384
1621785671605.637,0.216,-0.222,-0.059,0.23620343334364366,-5.852827002783792,-7.310430126817198
1621785671610.523,0.19,-0.288,-0.093,-0.2859421125889266,-5.965179600989793,-7.0919151562016705
1621785671615.41,0.188,-0.384,-0.145,-0.8081920197958552,-6.077554655119084,-6.873356510980513
1621785671619.778,0.20856243441762853,-0.47429590766002094,-0.21026337880377755,-1.275,-6.178,-6.678
1621785671620.296,0.211,-0.485,-0.218,-1.327130191335014,-6.162547942027192,-6.69440345856986
1621785671625.181,0.251,-0.579,-0.3,-1.8189137832361446,-6.016776971740576,-6.84914971152805
1621785671630.066,0.307,-0.688,-0.387,-2.3106973751372752,-5.87100600145396,-7.003895964486241
1621785671634.951,0.367,-0.782,-0.487,-2.802480967038406,-5.725235031167345,-7.158642217444433
1621785671635.562,0.371754511372157,-0.7900075981004749,-0.4976350912271932,-2.864,-5.707,-7.178
1621785671639.835,0.405,-0.846,-0.572,-2.8239267315397822,-5.44679452033602,-7.451743746035675
1621785671644.719,0.422,-0.89,-0.639,-2.7781224957069264,-5.149376475502406,-7.764636194866876
1621785671649.604,0.415,-0.878,-0.681,-2.7323091013165426,-4.85189896192701,-8.077591206547131
1621785671651.343,0.4100131519727959,-0.861970845626844,-0.697029154373156,-2.716,-4.746,-8.189
1621785671654.486,0.401,-0.833,-0.726,-2.8528811403101497,-4.609318104435571,-8.183022657628378
1621785671659.369,0.36,-0.792,-0.77,-3.065528554183304,-4.3969802210047355,-8.173736744358807
1621785671664.252,0.312,-0.763,-0.833,-3.2781866004271523,-4.184631720679729,-8.164450366793575
1621785671667.118,0.2720814122118318,-0.7594777716657499,-0.8770278541781267,-3.403,-4.06,-8.159
1621785671669.134,0.244,-0.757,-0.908,-3.1873527135382806,-4.167759728800966,-8.033599888548343
1621785671674.016,0.178,-0.768,-0.967,-2.665156202594347,-4.428703213522801,-7.729939676790193
1621785671678.897,0.136,-0.757,-0.981,-2.143090260363456,-4.689581452586607,-7.426355391473948
1621785671682.89,0.12454749162206773,-0.7529098184364528,-0.9564589106187165,-1.716,-4.903,-7.178
1621785671683.778,0.122,-0.752,-0.951,-1.5961414460442793,-4.914602848738195,-7.186842947824741
1621785671688.659,0.122,-0.73,-0.916,-0.9374794859885431,-4.978364297878929,-7.235437838674717
1621785671693.539,0.124,-0.717,-0.876,-0.27891636476234716,-5.042116178975073,-7.284025437374207
1621785671698.419,0.098,-0.7,-0.826,0.37961381018733564,-5.105864870723022,-7.332610605356867
1621785671698.659,0.09500020011006054,-0.6983771574365901,-0.8229510230626844,0.412,-5.109,-7.335
1621785671703.299,0.037,-0.667,-0.764,0.891167590671168,-5.2390934122092485,-7.265832688078794
1621785671708.177,-0.051,-0.639,-0.686,1.3948910707095736,-5.375853718214762,-7.1931207606776715
1621785671713.056,-0.154,-0.599,-0.592,1.8987153962895282,-5.512641403660917,-7.120394276334128
1621785671714.424,-0.183162672004003,-0.5846990743057293,-0.5619960970728046,2.04,-5.551,-7.1
1621785671717.935,-0.258,-0.548,-0.485,2.199469652619678,-6.101348479920706,-7.069486951942882
1621785671722.812,-0.356,-0.49,-0.372,2.4209817714383064,-6.8658127894190715,-7.027102649878424
1621785671727.69,-0.443,-0.412,-0.248,2.6425382459074784,-7.630430175471202,-6.9847098607691
1621785671730.188,-0.4680985182218662,-0.373583900680817,-0.19165638766519824,2.756,-8.022,-6.963
1621785671732.567,-0.492,-0.337,-0.138,2.5768163100900088,-8.235148584796047,-7.344916373607647
1621785671737.444,-0.478,-0.265,-0.038,2.2094566453391993,-8.672142558366511,-8.12791549055756
1621785671742.321,-0.407,-0.227,0.037,1.842115369719128,-9.109114657082216,-8.910875412477344
1621785671745.947,-0.31997656249999995,-0.2165869391025641,0.07939603365384615,1.569,-9.434,-9.493
1621785671747.196,-0.29,-0.213,0.094,1.387010726021452,-9.366358670717341,-9.693624341248682
1621785671752.073,-0.127,-0.215,0.131,0.6764130448260897,-9.102245458490916,-10.476984747969496
1621785671756.948,0.089,-0.227,0.129,-0.03390005580011146,-8.838238018476037,-11.260031434062867
1621785671761.698,0.3082307692307692,-0.2542820512820513,0.10658974358974359,-0.726,-8.581,-12.023
1621785671761.823,0.314,-0.255,0.106,-0.7363485646971294,-8.56877853555707,-12.01179434558869
1621785671766.698,0.529,-0.291,0.079,-1.1399425878851757,-8.092141422282845,-11.574773823547647
1621785671771.572,0.714,-0.335,0.045,-1.5434557629115258,-7.615599789199578,-11.137840845681692
1621785671776.445,0.864,-0.384,0.017,-1.9468880897761793,-7.139153636307273,-10.700995411990824
1621785671777.449,0.8837731917451412,-0.3918268883991184,0.011438789821679023,-2.03,-7.041,-10.611
1621785671781.319,0.96,-0.422,-0.01,-1.957744372093023,-6.66030623255814,-9.796280930232559
1621785671786.192,1.007,-0.459,-0.051,-1.866768465116279,-6.180980790697674,-8.770481162790698
1621785671791.065,0.99,-0.482,-0.063,-1.775788,-5.701631333333333,-7.744630000000001
1621785671793.196,0.9637552615754661,-0.48856118460613346,-0.057751052315093206,-1.736,-5.492,-7.296
1621785671795.937,0.93,-0.497,-0.051,-1.60281571479523,-5.302408252826151,-6.862324111836494
1621785671800.809,0.833,-0.503,-0.031,-1.3660805588723308,-4.9654087955712,-6.091464930916309
1621785671805.681,0.707,-0.494,-0.012,-1.129357265805511,-4.628426225440786,-5.320644377936638
1621785671808.94,0.6133321972734562,-0.47526643945469127,-0.001964163993584603,-0.971,-4.403,-4.805
1621785671810.552,0.567,-0.466,0.003,-0.9106757146624064,-4.372889066401948,-4.689472336399311
1621785671815.422,0.393,-0.443,0.024,-0.7284329698624188,-4.281922399218253,-4.340457368429216
1621785671820.293,0.188,-0.419,0.054,-0.5461628173907649,-4.190942051465,-3.9913899117432643
1621785671824.68,-0.002967916583116098,-0.38296831762582717,0.08732930619610989,-0.382,-4.109,-3.677
1621785671825.163,-0.024,-0.379,0.091,-0.38261418618003507,-4.1255523175519455,-3.7056210759896344
1621785671830.032,-0.197,-0.34,0.12,-0.3888035318032991,-4.292355182098909,-3.994044582033735
1621785671834.903,-0.321,-0.297,0.145,-0.39499567059261675,-4.459233322471021,-4.28259824961594
1621785671839.771,-0.386,-0.262,0.159,-0.40118377480874573,-4.626002731095697,-4.570963906087551
1621785671840.413,-0.3907484828727619,-0.25738341942925924,0.15992331611414815,-0.402,-4.648,-4.609
1621785671844.639,-0.422,-0.227,0.166,-0.5180632042964021,-4.832572734610251,-4.933009778660789
1621785671849.507,-0.438,-0.192,0.157,-0.651768230217614,-5.045200866109956,-5.30626964269084
1621785671854.376,-0.442,-0.168,0.152,-0.7854933722410207,-5.2578609877999565,-5.6795856641728495
1621785671856.142,-0.4380083270629546,-0.1578393779784299,0.1476454477050414,-0.834,-5.335,-5.815
1621785671859.243,-0.431,-0.14,0.14,-0.8919747240292505,-5.4006652486453754,-5.973543122855502
1621785671864.11,-0.407,-0.127,0.136,-0.982974180626931,-5.503736061730503,-6.222398779673648
1621785671868.977,-0.372,-0.103,0.134,-1.0739690726451272,-5.606801704730706,-6.471241953764226
1621785671871.867,-0.34468064823641564,-0.09706101048617731,0.12984270734032413,-1.128,-5.668,-6.619
1621785671873.843,-0.326,-0.093,0.127,-1.1560816320236846,-5.64840526121014,-6.63859473878986
1621785671878.709,-0.274,-0.068,0.119,-1.2252310028989082,-5.600154366866096,-6.686845633133904
1621785671883.574,-0.225,-0.058,0.106,-1.294366496021711,-5.551913156109295,-6.735086843890705
1621785671887.7,-0.20025380710659899,-0.050576142131979696,0.106,-1.353,-5.511,-6.776
1621785671888.576,-0.195,-0.049,0.106,-1.353,-5.51419839243356,-6.743582395334431
1621785671893.577,-0.183,-0.04,0.099,-1.353,-5.532458111109433,-6.5585093145179565
1621785671898.578,-0.188,-0.04,0.105,-1.353,-5.550717829785306,-6.373436233701482
1621785671903.579,-0.201,-0.019,0.105,-1.353,-5.5689784398749005,-6.188354117878133
1621785671903.859,-0.2019508980866849,-0.01821690745802421,0.10544748145255758,-1.353,-5.57,-6.178
1621785671908.581,-0.218,-0.005,0.113,-1.353,-5.670222158438577,-6.083621699196327
1621785671913.583,-0.236,0.012,0.131,-1.353,-5.776382409813282,-5.983651549942595
1621785671918.584,-0.255,0.031,0.136,-1.353,-5.8825219348601125,-5.883700918484501
1621785671920.02,-0.25959351815696996,0.03616770792659117,0.13915804373291685,-1.353,-5.913,-5.855
1621785671923.586,-0.271,0.049,0.147,-1.4547263072018854,-6.006120394011271,-5.89825023039386
1621785671928.587,-0.267,0.059,0.159,-1.5973910803583569,-6.136715913039537,-5.958905969089454
1621785671933.589,-0.258,0.068,0.147,-1.7400906769802542,-6.267343309513378,-6.019576513423275
1621785671936.18,-0.24194005077133374,0.07525288029681704,0.13871099394649483,-1.814,-6.335,-6.051
1621785671938.59,-0.227,0.082,0.131,-1.808183466279913,-6.39212134396906,-6.099172830553541
1621785671943.593,-0.178,0.089,0.11,-1.7961096809282089,-6.51069210780759,-6.199168540004834
1621785671948.594,-0.129,0.106,0.094,-1.7840406091370558,-6.629216582064298,-6.299125211505922
1621785671952.34,-0.09679617336977743,0.1194806716126513,0.08276610698945724,-1.775,-6.718,-6.374
1621785671953.596,-0.086,0.124,0.079,-1.723167565526097,-6.7316769242389904,-6.375554195936249
1621785671958.599,-0.051,0.14,0.056,-1.5166741596797342,-6.786163939874613,-6.381745902258478
1621785671963.6,-0.012,0.162,0.031,-1.310271440441121,-6.840627026210439,-6.3879348893420955
1621785671968.501,0.01837358453729012,0.1825756540413901,0.02120206950409996,-1.108,-6.894,-6.394
1621785671968.602,0.019,0.183,0.021,-1.1062864652567976,-6.895044380664653,-6.392893081570997
1621785671973.604,0.037,0.194,0.021,-1.0214871903323264,-6.9467286102719035,-6.338113987915408
1621785671978.607,0.061,0.209,0.026,-0.9366713595166163,-6.998422930513595,-6.2833241993957705
1621785671983.609,0.072,0.204,0.024,-0.851872084592145,-7.050107160120846,-6.228545105740181
1621785671984.663,0.07895465859729611,0.20252476938845232,0.019574308165357022,-0.834,-7.061,-6.217
1621785671988.611,0.105,0.197,0.003,-1.0782786144805812,-6.938860692759709,-6.289062191271771
1621785671993.614,0.133,0.171,-0.028,-1.3878301182797323,-6.784084940860134,-6.380379884892521
1621785671998.616,0.173,0.155,-0.077,-1.6973211982054108,-6.629339400897295,-6.471679753470596
1621785672000.825,0.18448223350253806,0.14660913705583756,-0.10791370558375635,-1.834,-6.561,-6.512
1621785672003.618,0.199,0.136,-0.147,-1.8728774770420493,-6.505016433059449,-6.603405268245529
1621785672008.621,0.227,0.106,-0.208,-1.9425204960125666,-6.404730485741904,-6.767143743958434
1621785672013.623,0.251,0.08,-0.257,-2.012146523078782,-6.304469006766554,-6.9308422698163366
1621785672016.989,0.26513154041390086,0.060485015618898866,-0.29064652479500197,-2.059,-6.237,-7.041
1621785672018.625,0.272,0.051,-0.307,-2.0342047211985745,-6.231028892043739,-7.099597822147043
1621785672023.629,0.305,0.024,-0.332,-1.9583646922008096,-6.212765374856522,-7.278827931492781
1621785672028.631,0.346,-0.012,-0.358,-1.8825505648522927,-6.194508095209327,-7.45799682836948
1621785672033.154,0.38306646496193636,-0.04183398399375366,-0.3661365410892055,-1.814,-6.178,-7.62
1621785672033.634,0.387,-0.045,-0.367,-1.7680090914582578,-6.16956783858886,-7.615902682131207
1621785672038.636,0.403,-0.08,-0.367,-1.288730488099553,-6.081694937779389,-7.573203878216745
1621785672043.64,0.396,-0.098,-0.351,-0.8092647396399664,-5.993787725021143,-7.530488401594781
1621785672048.642,0.372,-0.093,-0.305,-0.32996274314365137,-5.905910535218075,-7.487787513591881
1621785672049.32,0.3660372828420847,-0.09313551629904353,-0.2948362775717353,-0.265,-5.894,-7.482
1621785672053.645,0.328,-0.094,-0.23,0.24916837813349446,-6.177300890969496,-7.277616732105105
1621785672058.649,0.271,-0.075,-0.119,0.844053790395651,-6.505075943823618,-7.041148233162187
1621785672063.651,0.199,-0.04,0.009,1.438707006946542,-6.832723059498641,-6.804772032618544
1621785672065.487,0.17000673400673402,-0.017612794612794615,0.05304040404040405,1.657,-6.953,-6.718
1621785672068.654,0.12,0.021,0.129,1.837612866203564,-7.13165394140743,-6.973443793415886
1621785672073.657,0.091,0.093,0.227,2.1229288432497735,-7.413875385080036,-7.376970945333736
1621785672078.661,0.093,0.155,0.323,2.4083005134400484,-7.696151917849592,-7.78057686499547
1621785672081.654,0.11573361635680476,0.17593885717074123,0.37385151027180014,2.579,-7.865,-8.022
1621785672083.664,0.131,0.19,0.408,2.400973061125876,-7.674789653297898,-8.281705499516791
1621785672088.667,0.209,0.195,0.459,1.9578626479826045,-7.201354644841749,-8.928114475114763
1621785672093.671,0.309,0.166,0.489,1.5146657405170332,-6.727827222759121,-9.574649628533463
1621785672097.822,0.40773405553115694,0.14110906163080078,0.4856812082174401,1.147,-6.335,-10.111
1621785672098.674,0.428,0.136,0.485,1.1578561850688571,-6.260060703068374,-10.052081481034067
1621785672103.677,0.553,0.099,0.478,1.22159972215511,-5.8200446363856,-9.706133546750424
1621785672108.681,0.658,0.096,0.496,1.2853557018603528,-5.379942679391157,-9.36011808407828
1621785672113.685,0.731,0.134,0.541,1.349114792220343,-4.939819249818797,-9.014085739309012
1621785672113.99,0.7330113702908452,0.13796178996681632,0.5445351356626976,1.353,-4.913,-8.993
1621785672118.688,0.764,0.199,0.599,1.5866500543675244,-4.80198716322339,-8.086588906004591
1621785672123.691,0.754,0.269,0.644,1.8354655672345053,-4.683768847408481,-7.121345641536789
1621785672128.696,0.689,0.354,0.67,2.0843903588256616,-4.565498610607708,-6.155678446296967
1621785672130.156,0.6589424165528011,0.3837657622486824,0.6787546359554948,2.157,-4.531,-5.874
1621785672133.699,0.586,0.456,0.7,2.2236170572602076,-4.535163566078762,-5.671957477651606
1621785672138.702,0.447,0.548,0.731,2.317685189659338,-4.541042824353708,-5.386658733993718
1621785672143.707,0.295,0.635,0.778,2.4117946363856,-4.5469246647740995,-5.101234688330514
1621785672146.324,0.21289212529274004,0.677361387587822,0.7983962236533958,2.461,-4.55,-4.952
1621785672148.711,0.138,0.716,0.817,2.235279262547563,-4.6861115238267805,-5.127232514948361
1621785672153.714,-0.002,0.761,0.841,1.7621591773872076,-4.971406957782207,-5.494527178836746
1621785672158.718,-0.134,0.785,0.845,1.2889698314912121,-5.2567441565501,-5.861875611523827
1621785672162.493,-0.2079159024390244,0.7902797073170732,0.8208641951219512,0.932,-5.472,-6.139
1621785672163.723,-0.232,0.792,0.813,0.7417504416494285,-5.583137386945296,-6.273262483202223
1621785672168.727,-0.281,0.785,0.771,-0.03227599691977823,-6.035297573570491,-6.819506651164898
1621785672173.73,-0.295,0.764,0.707,-0.8061136209213485,-6.487347461082003,-7.365617569342735
1621785672178.662,-0.27824793912492074,0.7107875713379834,0.6360500951173114,-1.569,-6.933,-7.904
1621785672178.735,-0.278,0.71,0.635,-1.5743583096805362,-6.938001690923365,-7.908604444712845
1621785672183.739,-0.22,0.653,0.553,-1.941662373935624,-7.280860076091551,-8.224232200012079
1621785672188.743,-0.147,0.586,0.473,-2.308966438190712,-7.623718461259738,-8.53985995531131
1621785672193.747,-0.061,0.524,0.396,-2.676288423213962,-7.966593574491213,-8.855503110091188
1621785672194.833,-0.04364195121951219,0.512934243902439,0.3790759024390244,-2.756,-8.041,-8.924
1621785672198.752,0.019,0.473,0.318,-2.7036533607101876,-7.905528836282384,-8.973923183767136
1621785672203.757,0.089,0.433,0.237,-2.6367982366084908,-7.7325102512229,-9.037683163234496
1621785672208.761,0.15,0.401,0.166,-2.5699594178392413,-7.5595338637598894,-9.101427592245908
1621785672211.004,0.1791280913126189,0.39651875518267404,0.1391125310960441,-2.54,-7.482,-9.13
1621785672213.766,0.215,0.391,0.106,-2.3925991153515196,-7.272769312057487,-9.022737247324166
1621785672218.771,0.251,0.367,0.063,-2.125521323651515,-6.893661206805453,-8.828386316631693
1621785672223.775,0.255,0.34,0.014,-1.8584956446913543,-6.514627073866638,-8.63407330807204
1621785672227.176,0.23800848904717764,0.3284457725520808,-0.011827096648289992,-1.677,-6.257,-8.502
1621785672228.779,0.23,0.323,-0.024,-1.5953165650099643,-6.213184371036898,-8.395137447913521
1621785672233.785,0.202,0.314,-0.056,-1.3402393260462588,-6.076358958874328,-8.061432030919741
1621785672238.789,0.166,0.309,-0.075,-1.0852491696358477,-5.939580258469714,-7.727840539887675
1621785672243.347,0.15325043902439023,0.29260770731707314,-0.09139229268292683,-0.853,-5.815,-7.424
1621785672243.794,0.152,0.291,-0.093,-0.847858682688969,-5.813921981854139,-7.403932277592428
1621785672248.8,0.136,0.283,-0.106,-0.790282106248396,-5.801849473890793,-7.17919789858245
1621785672253.804,0.103,0.258,-0.126,-0.7327308011654413,-5.789782264760496,-6.954562159387691
1621785672258.809,0.059,0.241,-0.138,-0.6751654564393654,-5.77771211183406,-6.7298716202955875
1621785672259.519,0.052901482637534136,0.241,-0.1397019118220835,-0.667,-5.776,-6.698
1621785672263.815,0.016,0.241,-0.15,-0.5809494966265679,-5.752628258343019,-6.601591565664951
1621785672268.819,-0.005,0.229,-0.157,-0.48071210360285577,-5.725403287398306,-6.489288560518014
1621785672273.824,-0.023,0.22,-0.159,-0.3804600395453791,-5.698174331728374,-6.376969118379545
1621785672275.694,-0.03794561240915077,0.21215355348519585,-0.16161548217160138,-0.343,-5.688,-6.335
1621785672278.829,-0.063,0.199,-0.166,-0.27845385521072336,-5.708933884796522,-6.260956074145635
1621785672283.835,-0.11,0.195,-0.169,-0.17538912872841445,-5.742360282574568,-6.142725667189953
1621785672288.84,-0.169,0.188,-0.178,-0.07233948194662482,-5.775781789638932,-6.024512558869702
1621785672291.868,-0.1956189268292683,0.18437014634146343,-0.178,-0.01,-5.796,-5.953
1621785672293.845,-0.213,0.182,-0.178,0.04390273647985751,-5.8103007260048605,-5.982945964711032
1621785672298.852,-0.262,0.161,-0.173,0.1804168415015169,-5.846518753867749,-6.05878713416751
1621785672303.857,-0.288,0.152,-0.175,0.31687103980197123,-5.882720888110727,-6.134595022112206
1621785672308.043,-0.2938544461245793,0.15450904833910542,-0.1775090483391054,0.431,-5.913,-6.198
1621785672308.862,-0.295,0.155,-0.178,0.453379831273298,-5.904088573972624,-6.221341860219436
1621785672313.867,-0.295,0.157,-0.195,0.5901269374141652,-5.8496372375907395,-6.3639672356288015
1621785672318.874,-0.264,0.138,-0.197,0.7269340788699235,-5.795161995744103,-6.50665522705664
1621785672323.879,-0.23,0.147,-0.201,0.8636811850107906,-5.740710659362219,-6.649280602466005
1621785672324.22,-0.2278875664601727,0.14802214526120677,-0.20168143017413787,0.873,-5.737,-6.659
1621785672328.884,-0.199,0.162,-0.211,1.028401457871146,-5.688851496355323,-6.514842803459048
1621785672333.891,-0.185,0.164,-0.204,1.195231886026471,-5.637161920284934,-6.360083593667467
1621785672338.896,-0.183,0.166,-0.206,1.36198910369599,-5.585495027240761,-6.205392297128024
1621785672340.397,-0.1904957327481102,0.166,-0.20180238966105826,1.412,-5.57,-6.159
1621785672343.902,-0.208,0.166,-0.192,1.4460197865885869,-5.574333730775616,-6.010136347857585
1621785672348.909,-0.246,0.178,-0.183,1.4946147425932355,-5.580524171030985,-5.7974947250856514
1621785672353.914,-0.288,0.18,-0.175,1.5431931116712196,-5.586712498302066,-5.584925683324027
1621785672356.573,-0.3156205618415919,0.1778753413968006,-0.1665013655872025,1.569,-5.59,-5.472
1621785672358.92,-0.34,0.176,-0.159,1.5518808197884124,-5.645419718990055,-5.477658034137728
1621785672363.926,-0.398,0.171,-0.143,1.515364769623157,-5.763632694948764,-5.489726898175397
1621785672368.933,-0.457,0.152,-0.126,1.4788415961123436,-5.881868731229532,-5.501798116539141
1621785672372.75,-0.49741172454155286,0.14666260241904017,-0.11380023410066328,1.451,-5.972,-5.511
1621785672373.939,-0.51,0.145,-0.11,1.4286568418828574,-6.036898054662623,-5.557156260847256
1621785672378.945,-0.557,0.127,-0.099,1.334581593999487,-6.310149514797543,-5.751495917658955
1621785672383.952,-0.572,0.098,-0.087,1.240492582363683,-6.583440953200224,-5.94586400748555
1621785672388.927,-0.5670309680565715,0.07911767861497196,-0.07706193611314313,1.147,-6.855,-6.139
1621785672388.958,-0.567,0.079,-0.077,1.1463617127246932,-6.856502754425948,-6.140916778604525
1621785672393.964,-0.536,0.035,-0.065,1.043305960124968,-7.0991325143003765,-6.450393513138235
1621785672398.97,-0.469,0.012,-0.052,0.9402552334093002,-7.341750441462789,-6.759855154927027
1621785672403.977,-0.396,-0.024,-0.044,0.8371793772733447,-7.584427532185279,-7.069392260440407
1621785672405.103,-0.37553121342177137,-0.03232247366367538,-0.04107588763168162,0.814,-7.639,-7.139
1621785672408.983,-0.305,-0.061,-0.031,0.7058389496717724,-7.657946170678337,-7.268505470459519
1621785672413.99,-0.216,-0.101,-0.023,0.5662545687768807,-7.682396649815137,-7.4356353278502985
1621785672418.997,-0.127,-0.138,-0.017,0.42667018788198896,-7.706847128951935,-7.602765185241077
1621785672421.281,-0.08091850370659384,-0.153056330472103,-0.018825009754194304,0.363,-7.718,-7.679
1621785672424.003,-0.026,-0.171,-0.021,0.35307332679393344,-7.681658281143892,-7.607999049271863
