time,gyro_x,gyro_y,gyro_z,acc_x,acc_y,acc_z
1621786946645.748,,,,-1.089,-7.757,-8.022
1621786946664.322,,,,-1.275,-8.287,-7.62
1621786946681.245,1.6,0.508,0.157,-1.275,-8.559478121444087,-6.86351468914865
1621786946683.203,1.5890382751335903,0.511321734808003,0.15068870386479433,-1.275,-8.591,-6.776
1621786946687.139,1.567,0.518,0.138,-1.0515677670594823,-8.64721710911451,-6.54066779505714
1621786946693.063,1.525,0.525,0.119,-0.7152829926951564,-8.731828705235563,-6.1864725368423725
1621786946699.016,1.475,0.531,0.126,-0.37734901626409423,-8.816855252106187,-5.830540240270813
1621786946702.387,1.4327302228753367,0.541708343538248,0.136708343538248,-0.186,-8.865,-5.629
1621786946704.997,1.4,0.55,0.145,-0.03374012651092878,-8.910932398071022,-5.516110753428947
1621786946711.008,1.33,0.565,0.171,0.3169090499154506,-9.01671310828584,-5.256130757186697
1621786946717.049,1.255,0.579,0.199,0.6693099768272062,-9.1230222709338,-4.99485196968748
1621786946721.878,1.2008937967656288,0.5917308713492638,0.22684878107651463,0.951,-9.208,-4.786
1621786946723.118,1.187,0.595,0.234,0.949685362032559,-9.222253443225938,-4.779219235746884
1621786946729.217,1.124,0.604,0.265,0.9432190722702813,-9.292361637490634,-4.745866793815135
1621786946734.036,1.072,0.628,0.278,0.9381101287378244,-9.347753341053062,-4.719515400858252
1621786946739.643,1.045,0.632,0.297,0.9321653974524897,-9.412206743409849,-4.688853102649683
1621786946739.799,1.0448054456091513,0.6316108912183028,0.2970833804532208,0.932,-9.414,-4.688
1621786946745.256,1.038,0.618,0.3,0.7814663064080333,-9.411295801911521,-4.6642631501122445
1621786946750.875,1.035,0.623,0.293,0.6264675162318023,-9.408511392507158,-4.639822223118387
1621786946756.501,1.051,0.623,0.291,0.47127342017179497,-9.405723474613865,-4.6153504993883665
1621786946757.961,1.0530741383047908,0.6188517233904184,0.29281487101669196,0.431,-9.405,-4.609
1621786946762.132,1.059,0.607,0.298,0.33899011333494095,-9.281404629852906,-4.447410497548429
1621786946767.77,1.047,0.586,0.311,0.21462462824531792,-9.114346515553413,-4.228997481445758
1621786946773.414,1.009,0.578,0.323,0.09012450767623187,-8.947107547624789,-4.010348015968706
1621786946776.185,0.979087704138944,0.5623083038105936,0.3288843860710274,0.029,-8.865,-3.903
1621786946779.065,0.948,0.546,0.335,-0.09603536385117548,-8.74453141895951,-3.788672954463535
1621786946784.721,0.857,0.522,0.34,-0.3416011721200956,-8.507934638952301,-3.5641379710841443
1621786946790.383,0.742,0.497,0.354,-0.5874319756498058,-8.271082542352516,-3.3393606872521926
1621786946794.473,0.643883204134367,0.47968527131782945,0.3641002583979328,-0.765,-8.1,-3.177
1621786946796.052,0.606,0.473,0.368,-0.7978656787890075,-8.084857697730719,-3.1736446034744206
1621786946801.726,0.469,0.44,0.379,-0.9159595626380058,-8.030447950198196,-3.161587898055282
1621786946807.407,0.323,0.412,0.384,-1.0341957221527576,-7.975972651573599,-3.149516667110059
1621786946812.827,0.19338722417789989,0.3853150167425088,0.39353035116338975,-1.147,-7.924,-3.138
1621786946813.094,0.187,0.384,0.394,-1.1569619325336338,-7.935092981642256,-3.149092981642256
1621786946818.787,0.054,0.356,0.401,-1.3693040758168202,-8.171543839883359,-3.3855438398833586
1621786946824.486,-0.044,0.311,0.405,-1.5818647624097024,-8.408238054211678,-3.622238054211677
1621786946830.191,-0.115,0.265,0.403,-1.7946439923122806,-8.645175624627212,-3.8591756246272118
1621786946831.246,-0.12368205325469078,0.2563179467453092,0.4004138564773262,-1.834,-8.689,-3.903
1621786946835.903,-0.162,0.218,0.389,-1.8859040762951418,-8.829846498296039,-4.2068656117084515
1621786946841.62,-0.182,0.166,0.377,-1.949622962512879,-9.00275357303252,-4.579899479565689
1621786946847.344,-0.176,0.124,0.358,-2.013418038200407,-9.175867394922463,-4.953379388687819
1621786946849.729,-0.17100604924597426,0.11026663542642924,0.3521737241203033,-2.04,-9.248,-5.109
1621786946853.075,-0.164,0.091,0.344,-1.9885818940550788,-9.209030488125954,-5.202815491548628
1621786946858.811,-0.143,0.054,0.328,-1.900433889737244,-9.142223579590333,-5.363646938023274
1621786946864.553,-0.117,0.017,0.316,-1.8121958427676268,-9.075348428202833,-5.524642672845031
1621786946868.275,-0.10210977577713606,-0.0017746305418719181,0.30693638525564804,-1.755,-9.032,-5.629
1621786946870.302,-0.094,-0.012,0.302,-1.6931307935508415,-8.952920697390688,-5.603402705078253
1621786946876.056,-0.079,-0.035,0.29,-1.5175155391134374,-8.728454720768232,-5.530744985372637
1621786946881.817,-0.072,-0.051,0.279,-1.3416841932648538,-8.503712542799795,-5.457997861650071
1621786946886.885,-0.0728787994242655,-0.06945478790957582,0.27812120057573453,-1.187,-8.306,-5.394
1621786946887.584,-0.073,-0.072,0.278,-1.16091113754919,-8.283991031390133,-5.3631574997712095
1621786946893.357,-0.086,-0.084,0.281,-0.9454388212684177,-8.10221524663677,-5.108424087123639
1621786946899.136,-0.105,-0.086,0.284,-0.7297386944527972,-7.920247277386291,-4.853421354704598
1621786946904.921,-0.141,-0.075,0.293,-0.5138198695237224,-7.738094811018578,-4.598160075304946
1621786946905.559,-0.14485561970584515,-0.07400855493278267,0.29454224788233807,-0.49,-7.718,-4.57
1621786946910.714,-0.176,-0.066,0.307,-0.35518008391754186,-7.564195238591645,-4.437656368090486
1621786946916.51,-0.223,-0.052,0.319,-0.20359946313622268,-7.39126959161867,-4.288859881160252
1621786946922.311,-0.267,-0.023,0.339,-0.051884756717312575,-7.218190977561179,-4.139931771389852
1621786946924.295,-0.28202980369078146,-0.014460338812055992,0.346173315397873,0.0,-7.159,-4.089
1621786946928.119,-0.311,0.002,0.36,0.053907230151824095,-7.109161240048313,-4.083100718209801
1621786946933.933,-0.34,0.038,0.382,0.1358711378365391,-7.033383287660558,-4.074131083029209
1621786946939.752,-0.379,0.072,0.403,0.2179004376793901,-6.957544878371884,-4.065154291725651
1621786946943.093,-0.39505749486652975,0.08748401290701086,0.4138961572308595,0.265,-6.914,-4.06
1621786946945.578,-0.407,0.099,0.422,0.2623646461769504,-6.906225706222004,-4.079369850599415
1621786946951.41,-0.426,0.136,0.438,0.25617941016545404,-6.887979259988089,-4.124831335283913
1621786946957.248,-0.436,0.175,0.456,0.24998770099168846,-6.869713717925481,-4.170340397711089
1621786946961.951,-0.4488757989723023,0.212822659481138,0.46404737435768895,0.245,-6.855,-4.207
1621786946963.092,-0.452,0.222,0.466,0.22847365568502961,-6.8537936974952585,-4.222380356935465
1621786946968.942,-0.461,0.25,0.476,0.14375227439897797,-6.847609655065619,-4.301226897913359
1621786946974.798,-0.468,0.29,0.483,0.05893896222884645,-6.841418902352471,-4.380158995006
1621786946980.662,-0.466,0.314,0.485,-0.025987495644767933,-6.835219890828849,-4.459196391932174
1621786946980.87,-0.466,0.3149216559184523,0.4848936550863324,-0.029,-6.835,-4.462
1621786946986.53,-0.466,0.34,0.482,-0.1342444635921706,-6.835,-4.467962859127035
1621786946992.404,-0.459,0.365,0.478,-0.24347026672496722,-6.835,-4.474151289899432
1621786946998.284,-0.464,0.38,0.469,-0.3528050232773477,-6.835,-4.480345893670105
1621786946999.854,-0.4621330817401402,0.3880010782565421,0.46766648695724294,-0.382,-6.835,-4.482
1621786947004.171,-0.457,0.41,0.464,-0.4420572922674665,-6.830694005460068,-4.437580266851232
1621786947010.063,-0.463,0.417,0.45,-0.5240289409261609,-6.824816792914728,-4.376952179541405
1621786947015.962,-0.461,0.433,0.447,-0.6060956921854372,-6.8189327616923645,-4.316253752194921
1621786947018.902,-0.4649839556713394,0.44096791134267876,0.44351403878757806,-0.647,-6.816,-4.286
1621786947021.866,-0.469,0.449,0.44,-0.6972460335709358,-6.797700518637746,-4.298096267341151
1621786947027.777,-0.473,0.466,0.424,-0.7974566567026903,-6.761204057126798,-4.322221046983981
1621786947033.695,-0.476,0.473,0.407,-0.897783168544493,-6.724665389233796,-4.346373725760711
1621786947038.014,-0.4752708161582852,0.4853961253091508,0.3887704039571311,-0.971,-6.698,-4.364
1621786947039.618,-0.475,0.49,0.382,-0.9759358868246469,-6.699673181974457,-4.373871773649294
1621786947045.547,-0.483,0.497,0.37,-0.9941813887155718,-6.705858097869686,-4.410362777431144
1621786947051.482,-0.489,0.496,0.356,-1.0124441699667657,-6.712048871175175,-4.4468883399335315
1621786947057.187,-0.4986026299568523,0.4988807889870557,0.3425563180604069,-1.03,-6.718,-4.482
1621786947057.423,-0.499,0.499,0.342,-1.0312026294749934,-6.720883856394116,-4.482355880150764
1621786947063.37,-0.506,0.497,0.33,-1.0614972017411388,-6.79352900417518,-4.491320600515235
1621786947069.323,-0.52,0.503,0.326,-1.0918216221018033,-6.86624572646861,-4.500294153479105
1621786947075.282,-0.539,0.49,0.319,-1.1221771342275917,-6.939037005545756,-4.509276907067349
1621786947076.425,-0.5430241476691361,0.48904186960258667,0.319,-1.128,-6.953,-4.511
1621786947081.247,-0.56,0.485,0.319,-1.1132591426005338,-7.004468078377798,-4.5552225721983985
1621786947087.219,-0.583,0.473,0.318,-1.0950030485876563,-7.068209694761742,-4.609990854237031
1621786947093.197,-0.607,0.471,0.321,-1.0767282962063425,-7.132016457313448,-4.664815111380972
1621786947095.725,-0.6137607932751162,0.46466175630457845,0.3226901983187791,-1.069,-7.159,-4.688
1621786947099.18,-0.623,0.456,0.325,-1.0799519243382216,-7.159,-4.747957145105858
1621786947104.892,-0.641,0.452,0.328,-1.0980596321851142,-7.159,-4.8470891728100325
1621786947110.604,-0.656,0.435,0.319,-1.1161665660991158,-7.159,-4.946216963559567
1621786947114.337,-0.66318883569841,0.42454351171140364,0.3124646948196273,-1.128,-7.159,-5.011
1621786947116.316,-0.667,0.419,0.309,-1.0985076471210837,-7.1778751058425065,-5.019472348645216
1621786947122.028,-0.663,0.408,0.3,-1.0133814960838272,-7.23235584250635,-5.0439267702159185
1621786947127.74,-0.656,0.391,0.295,-0.9282589833827264,-7.286834250635055,-5.068380146591871
1621786947132.79,-0.6595365019661481,0.3848111215592409,0.295,-0.853,-7.335,-5.09
1621786947133.452,-0.66,0.384,0.295,-0.8414140700459122,-7.33291955437357,-5.085049974199182
1621786947139.165,-0.663,0.384,0.298,-0.7414058270154408,-7.314961417854166,-5.042321994204739
1621786947144.877,-0.668,0.382,0.304,-0.64141895235449,-7.297007118379444,-4.999603143730401
1621786947150.59,-0.681,0.386,0.316,-0.5414107093240186,-7.279048981860041,-4.956875163735958
1621786947151.242,-0.681,0.38577175585570184,0.31714122072149087,-0.53,-7.277,-4.952
1621786947156.302,-0.681,0.384,0.326,-0.5083407323138791,-7.145125218265517,-5.0328795438912115
1621786947162.014,-0.7,0.368,0.337,-0.48389123763162073,-6.996261839250754,-5.124178289856606
1621786947167.726,-0.719,0.36,0.34,-0.4594406979205249,-6.847392097465475,-5.215480938144875
1621786947169.698,-0.7262485897435897,0.3520610683760684,0.34207102564102565,-0.451,-6.796,-5.247
1621786947173.439,-0.74,0.337,0.346,-0.462957793238453,-6.670747182688747,-5.3165173403523625
1621786947179.151,-0.764,0.314,0.346,-0.4812156102851701,-6.479504285487541,-5.422660242844294
1621786947184.863,-0.799,0.295,0.34,-0.49947420771387757,-6.288253214115655,-5.528807682133221
1621786947188.156,-0.824357716629636,0.2857790121346778,0.34403418219107845,-0.51,-6.178,-5.59
1621786947190.577,-0.843,0.279,0.347,-0.5073769971431594,-6.17157364300074,-5.6028527139985185
1621786947196.289,-0.888,0.283,0.354,-0.5011879695270341,-6.156410525341234,-5.633178949317532
1621786947202.002,-0.942,0.267,0.365,-0.49499814834409056,-6.141245463443021,-5.663509073113956
1621786947206.615,-0.9791487797580887,0.2686151643373082,0.373075821686541,-0.49,-6.129,-5.688
1621786947207.714,-0.988,0.269,0.375,-0.49242577725092945,-6.152226817177649,-5.70880103992672
1621786947213.427,-1.03,0.265,0.386,-0.5050342152055607,-6.272952610593243,-5.816918395387682
1621786947218.977,-1.059,0.267,0.396,-0.5172832587962714,-6.390237202974298,-5.921953944178027
1621786947224.523,-1.073,0.272,0.405,-0.5295231424106903,-6.507434088582358,-6.026910946171668
1621786947224.739,-1.0729610269508543,0.27242870354060245,0.40527281134401977,-0.53,-6.512,-6.031
1621786947230.067,-1.072,0.283,0.412,-0.5707728531100413,-6.6140809388083515,-6.223555007023333
1621786947235.608,-1.052,0.288,0.412,-0.6131767698119384,-6.720245489383174,-6.423812920206745
1621786947241.147,-1.019,0.278,0.412,-0.6555657397684346,-6.826372618544329,-6.624000245475745
1621786947242.641,-1.0076601667622533,0.2788099880884105,0.4095700357347686,-0.667,-6.855,-6.678
1621786947246.681,-0.977,0.281,0.403,-0.6979763059726987,-6.905873495210637,-6.751257833103316
1621786947252.213,-0.929,0.283,0.396,-0.7403943948731263,-6.975538239755134,-6.851575065247394
1621786947257.741,-0.873,0.284,0.38,-0.7827825314622249,-7.04515379254745,-6.951821461268327
1621786947260.508,-0.8499664678595096,0.2834992710404241,0.3724890656063618,-0.804,-7.08,-7.002
1621786947263.267,-0.827,0.283,0.365,-0.8267393643232589,-7.1104738419842315,-6.991326420827858
1621786947268.789,-0.777,0.281,0.354,-0.8722502874507227,-7.171464670937363,-6.969964150788436
1621786947274.308,-0.719,0.283,0.339,-0.917737064717477,-7.232423141151993,-6.948613214520368
1621786947278.344,-0.6860740937458505,0.2778781923604656,0.3258296374983402,-0.951,-7.277,-6.933
1621786947279.824,-0.674,0.276,0.321,-0.9689572939095135,-7.2785795767790775,-6.910220840133302
1621786947285.339,-0.628,0.274,0.302,-1.0358750222856123,-7.2844658584417905,-6.825334462471028
1621786947290.849,-0.586,0.269,0.278,-1.1027305429460894,-7.2903466681295175,-6.740526996448016
1621786947296.146,-0.5475182688896773,0.2670759134444839,0.26453139411138704,-1.167,-7.296,-6.659
1621786947296.355,-0.546,0.267,0.264,-1.1684933377290585,-7.294612489354104,-6.658071073381136
1621786947301.859,-0.517,0.262,0.244,-1.207822550070057,-7.258070386549081,-6.633606445232012
1621786947307.36,-0.489,0.264,0.223,-1.2471325723234155,-7.221546113904228,-6.6091537542240175
1621786947312.858,-0.463,0.253,0.211,-1.286418170828869,-7.185044534190499,-6.584716255941097
1621786947313.919,-0.4577866536342634,0.25242073929269593,0.2069451750488715,-1.294,-7.178,-6.58
1621786947318.353,-0.436,0.25,0.19,-1.33343946665929,-7.138811740134718,-6.5578938021272775
1621786947323.844,-0.417,0.244,0.175,-1.3822795197720577,-7.090282770162796,-6.530518485732859
1621786947329.271,-0.398,0.236,0.159,-1.4305506300225452,-7.042319119213268,-6.50346206724851
1621786947331.57,-0.3929127087741413,0.23006482690316482,0.15094512222572368,-1.451,-7.022,-6.492
1621786947334.694,-0.386,0.222,0.14,-1.48259902896367,-7.032354484067191,-6.463971482783638
1621786947340.113,-0.368,0.201,0.119,-1.5374108488196887,-7.050315419387243,-6.4153530889000505
1621786947345.527,-0.356,0.182,0.103,-1.592173279758915,-7.0682601707684585,-6.366778503264691
1621786947349.069,-0.3422508235931224,0.17741694119770746,0.09252443702333137,-1.628,-7.08,-6.335
1621786947350.937,-0.335,0.175,0.087,-1.6311034198195677,-7.084280579061473,-6.339173564584936
1621786947356.343,-0.318,0.159,0.07,-1.6400851248339043,-7.096669137701937,-6.351252409259389
1621786947361.745,-0.295,0.147,0.054,-1.6490603398839079,-7.10904874466746,-6.363322526050773
1621786947366.524,-0.2764053198226726,0.13283262462679815,0.038947163665973034,-1.657,-7.12,-6.374
1621786947367.142,-0.274,0.131,0.037,-1.6625734955975549,-7.110592507430879,-6.378898996130334
1621786947372.537,-0.25,0.117,0.012,-1.7112161123885368,-7.028488727497056,-6.421654926812853
1621786947377.927,-0.23,0.099,-0.01,-1.7598125035051315,-6.946462971790702,-6.46437022601088
1621786947383.312,-0.213,0.079,-0.047,-1.8083648701699289,-6.864511524872413,-6.507046828557007
1621786947383.937,-0.2113739394764303,0.07551558459235062,-0.05083285694841432,-1.814,-6.855,-6.512
1621786947388.693,-0.199,0.049,-0.08,-1.765806136935468,-6.822688205445371,-6.485164780793612
1621786947394.07,-0.188,0.028,-0.103,-1.7113211700378113,-6.786158511729896,-6.454826560589235
1621786947399.443,-0.188,0.01,-0.129,-1.6568757853899891,-6.749655356113743,-6.424510380501244
1621786947401.306,-0.188,0.004101677959165113,-0.13628616252103135,-1.638,-6.737,-6.414
1621786947404.812,-0.188,-0.007,-0.15,-1.550595773457312,-6.772811453930685,-6.378188546069315
1621786947410.177,-0.197,-0.021,-0.171,-1.416851056635672,-6.827609636517328,-6.323390363482671
1621786947415.539,-0.201,-0.031,-0.182,-1.2831793744716822,-6.882377895181741,-6.268622104818259
1621786947418.635,-0.2090925335035099,-0.02926588567781931,-0.18951449539611634,-1.206,-6.914,-6.237
1621786947420.895,-0.215,-0.028,-0.195,-1.125121978115192,-6.948549834591568,-6.2703719993214015
1621786947426.247,-0.209,-0.038,-0.199,-0.9335903808635168,-7.030369157689371,-6.349402027313597
1621786947431.596,-0.206,-0.033,-0.204,-0.7421723640681991,-7.112139960980575,-6.42838518958351
1621786947435.904,-0.19709728019079945,-0.03623735265789112,-0.20723735265789112,-0.588,-7.178,-6.492
1621786947436.919,-0.195,-0.037,-0.208,-0.553839029799818,-7.183851100432211,-6.519246033325751
1621786947442.238,-0.171,-0.044,-0.206,-0.37480004549590534,-7.21451694722475,-6.662043562329391
1621786947447.553,-0.152,-0.049,-0.204,-0.19590076205641493,-7.245158866014559,-6.804729669017289
1621786947452.863,-0.12,-0.056,-0.199,-0.017165832575068207,-7.275772634212921,-6.947284690627844
1621786947453.076,-0.11883642387153177,-0.05608024662954953,-0.1986388901670271,-0.01,-7.277,-6.953
1621786947458.169,-0.091,-0.058,-0.19,0.10091847702132513,-7.3147658085300495,-6.923857880031931
1621786947463.471,-0.065,-0.058,-0.183,0.21638832820161932,-7.354081280647736,-6.893519956665527
1621786947468.767,-0.044,-0.047,-0.169,0.33173057076063406,-7.393353304253621,-6.863215560497206
1621786947470.203,-0.03450576568265683,-0.04754252767527675,-0.16194714022140222,0.363,-7.404,-6.855
1621786947474.06,-0.009,-0.049,-0.143,0.42713544882790166,-7.434938579188107,-6.801704345340195
1621786947479.347,0.007,-0.035,-0.122,0.5150431103487707,-7.477344739851344,-6.72865431675243
1621786947484.631,0.033,-0.014,-0.089,0.6029061177815895,-7.519729359634077,-6.655641395082904
1621786947487.283,0.05057930269120503,-0.002447886802922409,-0.07694562101174512,0.647,-7.541,-6.619
1621786947489.911,0.068,0.009,-0.065,0.6349657717832213,-7.506285880143908,-6.616068585434374
1621786947495.185,0.093,0.031,-0.033,0.6108134648186105,-7.436615763899838,-6.6101853311737635
1621786947500.455,0.115,0.058,-0.005,0.5866801639743718,-7.367000473002996,-6.604306706609141
1621786947504.316,0.1289330396475771,0.08733271504753072,0.015532900533271506,0.569,-7.316,-6.6
1621786947505.72,0.134,0.098,0.023,0.5575930578512396,-7.277894200503054,-6.617854344232842
1621786947510.981,0.15,0.119,0.044,0.5148512396694215,-7.135111749910169,-6.684754581386992
1621786947516.238,0.166,0.157,0.065,0.47214115702479337,-6.992435314408912,-6.75160514552641
1621786947521.302,0.17949888434362216,0.17917673856452213,0.07946309036816661,0.431,-6.855,-6.816
1621786947521.49,0.18,0.18,0.08,0.43339688715953306,-6.850539126675314,-6.816
1621786947526.738,0.188,0.211,0.096,0.5003105058365759,-6.7260054474708175,-6.816
1621786947531.982,0.201,0.251,0.113,0.567171206225681,-6.601570255079983,-6.816
1621786947537.221,0.211,0.279,0.134,0.6339696498054475,-6.477250929528751,-6.816
1621786947538.243,0.21060956955649862,0.2868086088700275,0.13673301310450964,0.647,-6.453,-6.816
1621786947542.456,0.209,0.319,0.148,0.647,-6.303893136829938,-6.845173081924577
1621786947547.688,0.209,0.339,0.157,0.647,-6.118730010114145,-6.881400650195058
1621786947552.915,0.202,0.356,0.166,0.647,-5.933739690796128,-6.917594408322497
1621786947555.14,0.20157393987563701,0.36707756323343776,0.17196484174108187,0.647,-5.855,-6.933
1621786947558.137,0.201,0.382,0.18,0.6505573328696862,-5.743299747891855,-6.990628792488915
1621786947563.355,0.192,0.401,0.187,0.6567507896490771,-5.548825205018981,-7.0909627923150484
1621786947568.569,0.185,0.408,0.209,0.6629396099568229,-5.354496247355763,-7.19122168130053
1621786947571.99,0.17711923509561303,0.4014326959130109,0.21753749531308586,0.667,-5.227,-7.257
1621786947573.778,0.173,0.398,0.222,0.6815779831175813,-5.1925236019701,-7.2381656714466285
1621786947578.983,0.161,0.4,0.237,0.7240121751006117,-5.092168286623371,-7.183341934359063
1621786947584.183,0.145,0.396,0.255,0.7664085487221957,-4.991902410321231,-7.128567057490302
1621786947588.794,0.13878691606353982,0.3880117492245512,0.27541441864836924,0.804,-4.903,-7.08
1621786947589.378,0.138,0.387,0.278,0.8197191857669499,-4.897527910941438,-7.071460752743009
1621786947594.57,0.12,0.389,0.298,0.9594766789549607,-4.8488761893660115,-6.99553927639919
1621786947599.756,0.101,0.38,0.312,1.0990698829940695,-4.800281659356831,-6.919707048040916
1621786947604.939,0.079,0.372,0.328,1.2385776566757492,-4.7517168689621005,-6.843921228635125
1621786947605.549,0.07628997123862512,0.3692899712386251,0.3298852373992173,1.255,-4.746,-6.835
1621786947610.117,0.056,0.349,0.344,1.2202830050844484,-4.877487201215593,-6.813677751154228
1621786947615.29,0.03,0.328,0.354,1.1809661475074513,-5.0263959295190235,-6.789530389807726
1621786947620.459,-0.003,0.307,0.353,1.1416808339664541,-5.175185187890831,-6.765402401963649
1621786947622.259,-0.01833717851739788,0.3035142776096823,0.3498628498487141,1.128,-5.227,-6.757
1621786947625.623,-0.047,0.297,0.344,0.9537943598007617,-5.409078200996191,-6.865802827424553
1621786947630.783,-0.094,0.297,0.328,0.6865880164078524,-5.688359917960739,-7.032690682683856
1621786947635.938,-0.143,0.3,0.3,0.41963452973923243,-5.967377351303838,-7.199420612364489
1621786947638.924,-0.1632893502061709,0.30695634864211574,0.2837685198350633,0.265,-6.129,-7.296
1621786947641.089,-0.178,0.312,0.272,0.13878409040939274,-6.297331207950398,-7.3853000307814085
1621786947646.251,-0.197,0.321,0.234,-0.16213866291426643,-6.698664849097812,-7.59820830218548
1621786947651.407,-0.192,0.325,0.187,-0.46271983055567767,-7.099542925406388,-7.81087489556308
1621786947655.58,-0.16770061128749467,0.34038961285125335,0.13597128370373882,-0.706,-7.424,-7.983
1621786947656.559,-0.162,0.344,0.124,-0.7239094127844623,-7.480614952914041,-8.008980431045881
1621786947661.707,-0.11,0.358,0.066,-0.8180834471917375,-7.778316423523881,-8.145594737538014
1621786947666.85,-0.033,0.347,0.016,-0.9121681578444768,-8.075735525291257,-8.282079465820441
1621786947671.989,0.045,0.339,-0.051,-1.0061769433058605,-8.37291461354254,-8.41845405262462
1621786947672.198,0.04829653401797176,0.3382674368848952,-0.05368606475538439,-1.01,-8.385,-8.424
1621786947677.124,0.126,0.321,-0.117,-0.9808695472826647,-8.355869547282666,-8.406462278466094
1621786947682.255,0.209,0.295,-0.171,-0.9505277921006497,-8.325527792100651,-8.388195303407533
1621786947687.381,0.291,0.269,-0.225,-0.9202134680829123,-8.295213468082913,-8.369944843029508
1621786947688.77,0.3105246675246675,0.2584241384241384,-0.23747409314075982,-0.912,-8.287,-8.365
1621786947692.503,0.363,0.23,-0.271,-0.7658819550093792,-8.1230406481249,-8.234239029289691
1621786947697.62,0.422,0.206,-0.305,-0.5655788665199475,-7.8982801500672055,-8.054987888276738
1621786947702.733,0.466,0.168,-0.335,-0.365447794041623,-7.673712671521203,-7.875890684312364
1621786947705.299,0.48458753524829135,0.14840773311666589,-0.3430378530803422,-0.265,-7.561,-7.786
1621786947707.841,0.503,0.129,-0.351,-0.14857089961195535,-7.449043010752688,-7.645359815160401
1621786947712.946,0.52,0.099,-0.368,0.08524897064486503,-7.224204301075269,-7.362917799697858
1621786947718.047,0.531,0.063,-0.374,0.3188899256494564,-6.999537634408602,-7.0806919043810534
1621786947721.783,0.5229343523887106,0.04760194546935646,-0.37766620345967705,0.49,-6.835,-6.874
1621786947723.142,0.52,0.042,-0.379,0.5532482104137583,-6.788783333828378,-6.8196809487034775
1621786947728.233,0.503,0.026,-0.374,0.7901534885793209,-6.6156721567113195,-6.616221121573053
1621786947733.32,0.476,0.012,-0.365,1.0268883476401223,-6.442685508064276,-6.4129076543796595
1621786947738.222,0.45671277617675315,0.0023563880883765605,-0.34089097022094145,1.255,-6.276,-6.217
1621786947738.403,0.456,0.002,-0.34,1.2594339333759457,-6.270485157492605,-6.216029387718698
1621786947743.481,0.415,0.0,-0.321,1.3837215078857787,-6.1158986220326135,-6.188822157477739
1621786947748.556,0.379,-0.005,-0.3,1.5079373745782112,-5.961401275400235,-6.161630624470441
1621786947753.651,0.342,-0.005,-0.278,1.6326432446895485,-5.806294471779168,-6.134331827033133
1621786947754.646,0.33613609552582363,-0.004609073035054909,-0.2754589747278569,1.657,-5.776,-6.129
1621786947758.742,0.312,-0.003,-0.265,1.7671831176356965,-5.724647687255762,-6.1314928307157395
1621786947763.829,0.293,0.005,-0.246,1.9040303264438865,-5.6608682188971935,-6.134588921412758
1621786947768.911,0.274,0.009,-0.229,2.0407330500289746,-5.597156089805501,-6.137681743213325
1621786947771.077,0.26675024033839645,0.014970390309555853,-0.21833858873293596,2.099,-5.57,-6.139
1621786947773.99,0.257,0.023,-0.204,2.166898465663638,-5.538716937285863,-6.116248681662446
1621786947779.064,0.257,0.037,-0.182,2.285163116341427,-5.484228511842693,-6.076620735885595
1621786947784.136,0.255,0.068,-0.161,2.4033822434083123,-5.429761060628631,-6.03700804409355
1621786947787.466,0.2431677108433735,0.07260144578313253,-0.14785301204819276,2.481,-5.394,-6.011
1621786947789.202,0.237,0.075,-0.141,2.4997963198064315,-5.374141741221454,-5.998575314026257
1621786947794.264,0.208,0.099,-0.112,2.554609666482458,-5.316231595298194,-5.96234276283363
1621786947799.323,0.168,0.117,-0.08,2.6093912894119753,-5.258354965423506,-5.926131181575135
1621786947803.812,0.11914801217332496,0.12943505144679002,-0.04891237138302497,2.658,-5.207,-5.894
1621786947804.377,0.113,0.131,-0.045,2.64677254144391,-5.210395959686719,-5.908588765592944
1621786947809.427,0.058,0.145,-0.014,2.5464095422076465,-5.240752669332255,-6.038998712131423
1621786947814.472,0.002,0.157,0.017,2.4461484343411652,-5.271078559983228,-6.169276262785091
1621786947819.515,-0.047,0.171,0.042,2.345926142234602,-5.301392710064842,-6.299503376911212
1621786947820.115,-0.05176448924210118,0.17326313238999808,0.04485869354526071,2.334,-5.305,-6.315
1621786947824.553,-0.087,0.19,0.066,2.135858298926507,-5.39888532392463,-6.539888101493882
1621786947829.586,-0.113,0.201,0.084,1.9111530966143684,-5.505357210419638,-6.79492541100518
1621786947834.615,-0.119,0.208,0.089,1.6866222956234518,-5.61174646047594,-7.049764777419113
1621786947836.376,-0.11829926652742022,0.20589779958226065,0.09215330062660902,1.608,-5.649,-7.139
1621786947839.641,-0.117,0.202,0.098,1.4996181383530545,-5.729833967313677,-7.269098449880471
1621786947844.662,-0.099,0.201,0.103,1.332952864939634,-5.854137195351145,-7.469158620378584
1621786947849.679,-0.063,0.195,0.106,1.1664253582114237,-5.978337673467546,-7.669053419735081
1621786947852.614,-0.04030160728117738,0.189179899302866,0.106,1.069,-6.051,-7.786
1621786947854.722,-0.024,0.185,0.106,1.0296167511928698,-6.056052456261441,-7.786
1621786947859.76,0.019,0.18,0.106,0.9354874110974402,-6.068128259760526,-7.786
1621786947864.794,0.052,0.166,0.103,0.8414356150406626,-6.080194115175704,-7.786
1621786947868.885,0.07395559761246179,0.166,0.0973078080263988,0.765,-6.09,-7.786
1621786947869.825,0.079,0.166,0.096,0.7547498571041786,-6.084324779639601,-7.756523600373033
1621786947874.851,0.094,0.152,0.096,0.6999395475467044,-6.053977828585181,-7.598905252549562
1621786947879.875,0.099,0.148,0.096,0.6451531993622334,-6.023644144279655,-7.441355810595349
1621786947884.894,0.093,0.143,0.103,0.5904200986733251,-5.993339941638339,-7.283959492795042
1621786947885.116,0.09344261576666504,0.14238033792666893,0.10277869211666747,0.588,-5.992,-7.277
1621786947889.908,0.103,0.129,0.098,0.5329499683343888,-5.907649145028499,-7.213070930968968
1621786947894.919,0.11,0.119,0.089,0.47538414909979193,-5.8194434542658104,-7.146220302180404
1621786947899.927,0.105,0.113,0.08,0.4178519858861848,-5.731289333212702,-7.079408757803312
1621786947901.307,0.10003533086082374,0.10913859066952958,0.0766902205738825,0.402,-5.707,-7.061
1621786947904.93,0.087,0.099,0.068,0.4307131736074371,-5.722478195147759,-6.961849822386819
1621786947909.93,0.072,0.08,0.049,0.4703389010656791,-5.743838938855718,-6.825017232257577
1621786947914.927,0.051,0.063,0.038,0.5099414103242386,-5.765187166502909,-6.6882648174741135
1621786947917.458,0.03933630093430514,0.06452135205204716,0.03292882649317615,0.53,-5.776,-6.619
1621786947919.918,0.028,0.066,0.028,0.5658793848018789,-5.808978498371088,-6.62800801575877
1621786947924.906,0.016,0.07,0.026,0.6386316387605122,-5.8758486552011515,-6.6462734752632775
1621786947929.89,0.0,0.066,0.028,0.7113233578301387,-5.9426631714523825,-6.664523736646715
1621786947933.57,-0.005171690437680733,0.060828309562319265,0.019873057883644563,0.765,-5.992,-6.678
1621786947934.871,-0.007,0.059,0.017,0.7618427696841722,-5.995157230315828,-6.702610205538761
1621786947939.847,-0.016,0.044,0.014,0.7497678004466253,-6.007232199553375,-6.79673304267246
1621786947944.82,-0.016,0.035,0.002,0.7376993482917343,-6.0193006517082654,-6.890805079982378
1621786947949.641,-0.009208421362944037,0.01656571512799096,5.95489608411538e-05,0.726,-6.031,-6.982
1621786947949.789,-0.009,0.016,0.0,0.7280628772864124,-6.031183366869903,-6.98308186453243
1621786947954.788,-0.003,0.005,0.0,0.797764981769218,-6.037379109490597,-7.019636745994523
1621786947959.782,0.002,-0.026,-0.005,0.8673956004054646,-6.043568497813819,-7.056154137101532
1621786947964.772,0.016,-0.049,0.002,0.9369717536348094,-6.049753044767539,-7.092642964128477
1621786947965.778,0.01700851647006999,-0.05363917576232196,0.003411923058097988,0.951,-6.051,-7.1
1621786947969.76,0.021,-0.072,0.009,1.0190150125104254,-6.055699219046175,-7.034458260671772
1621786947974.743,0.031,-0.087,0.016,1.1041276063386154,-6.06157972552885,-6.952440670255516
1621786947979.724,0.038,-0.098,0.031,1.189211009174312,-6.067458215179316,-6.870451209341118
1621786947981.878,0.038,-0.10449153789551141,0.03402938435123866,1.226,-6.07,-6.835
1621786947984.701,0.038,-0.113,0.038,1.2414674854832335,-6.066660429270666,-6.8040650290335325
1621786947989.674,0.038,-0.112,0.056,1.2687158361961512,-6.060777262639467,-6.749568327607697
1621786947994.643,0.03,-0.12,0.066,1.2959414465083756,-6.05489900586751,-6.695117106983249
1621786947997.939,0.02402537372147915,-0.11468922108575924,0.07662155782848151,1.314,-6.051,-6.659
1621786947999.608,0.021,-0.112,0.082,1.3180624752384726,-6.066312406668089,-6.6651457958735865
1621786948004.571,0.005,-0.112,0.093,1.3301435254319935,-6.11184867278213,-6.683422256422759
1621786948009.53,-0.002,-0.105,0.105,1.3422144729223173,-6.157346859476427,-6.7016834333953
1621786948013.961,-0.009153724871895941,-0.09516362830114308,0.11394215608986993,1.353,-6.198,-6.718
1621786948014.485,-0.01,-0.094,0.115,1.353655742711849,-6.211180428508163,-6.724426278576119
1621786948019.436,-0.012,-0.082,0.129,1.3598494112975887,-6.3356731670815325,-6.785124230716369
1621786948024.384,-0.005,-0.073,0.131,1.3660394148099506,-6.4600922376800085,-6.845786265137517
1621786948029.328,0.005,-0.059,0.141,1.3722242261350275,-6.584406945314051,-6.906397416123268
1621786948029.948,0.007008004348040911,-0.05799599782597954,0.1412510005435051,1.373,-6.6,-6.914
1621786948034.269,0.021,-0.051,0.143,1.3331733892571218,-6.690219465152234,-6.93784178058077
1621786948039.207,0.037,-0.038,0.143,1.287660477291166,-6.793320143279195,-6.965087605431139
1621786948044.141,0.061,-0.04,0.143,1.2421835688153444,-6.8963392624795254,-6.992311877171766
1621786948045.897,0.06848090544355838,-0.04320610233295359,0.1422875328148992,1.226,-6.933,-7.002
1621786948049.07,0.082,-0.049,0.141,1.111201626189895,-6.954413168171833,-6.988319364779106
1621786948054.032,0.103,-0.061,0.131,0.9316861880644374,-6.987897913107152,-6.966926333292653
1621786948058.99,0.12,-0.066,0.122,0.7523120728581889,-7.0213562972907,-6.9455501433976075
1621786948061.901,0.1346863914071738,-0.08068639140717383,0.10966343121797399,0.647,-7.041,-6.933
1621786948063.945,0.145,-0.091,0.101,0.5530305232780077,-7.056086256126797,-6.920470736437068
1621786948068.898,0.157,-0.105,0.091,0.3253512238322823,-7.092638851139851,-6.8901134965109705
1621786948073.846,0.171,-0.136,0.073,0.09789638270907453,-7.1291554106671144,-6.85978618436121
1621786948077.89,0.17999550728215255,-0.16216874845717108,0.05582675882498148,-0.088,-7.159,-6.835
1621786948078.791,0.182,-0.168,0.052,-0.11296055691554467,-7.150133919828641,-6.849965039779682
1621786948083.733,0.19,-0.197,0.024,-0.2498480110159119,-7.101511000611995,-6.9320355722154225
1621786948088.672,0.197,-0.213,0.003,-0.3866610771113831,-7.052914504283965,-7.014061505507955
1621786948093.607,0.197,-0.23,-0.019,-0.523352417380661,-7.004361245410037,-7.0960144583843325
1621786948093.847,0.19792451242451242,-0.2301946341946342,-0.020021829521829522,-0.53,-7.002,-7.1
1621786948098.539,0.216,-0.234,-0.04,-0.4922792830090314,-6.895026404158425,-7.117386892988025
1621786948103.468,0.234,-0.239,-0.056,-0.4526547679286076,-6.782653755922536,-7.135651317907907
1621786948108.393,0.258,-0.258,-0.075,-0.4130616557032676,-6.670370164220985,-7.153901268074275
1621786948109.769,0.2630321428571429,-0.2605160714285714,-0.0783547619047619,-0.402,-6.639,-7.159
1621786948113.315,0.276,-0.267,-0.087,-0.26185046326884964,-6.51201737834391,-7.042952612897773
1621786948118.234,0.29,-0.264,-0.098,-0.06743206158479437,-6.335864399748006,-6.881969222968301
1621786948123.149,0.283,-0.251,-0.096,0.1268319478803337,-6.1598513083695705,-6.72111367372966
1621786948125.658,0.27380586481113317,-0.25457549701789267,-0.09242450298210736,0.226,-6.07,-6.639
1621786948128.061,0.265,-0.258,-0.089,0.19173763977451252,-5.9852537196192594,-6.581087515017097
1621786948132.971,0.234,-0.265,-0.086,0.12173354280257524,-5.812101993038229,-6.4627620059760345
1621786948137.876,0.195,-0.281,-0.093,0.05179906354927147,-5.639122462495765,-6.344554169362043
1621786948141.509,0.16164948453608247,-0.2965635738831615,-0.09744673539518901,0.0,-5.511,-6.257
1621786948142.778,0.15,-0.302,-0.099,-0.04072603813006007,-5.501656967723104,-6.247577112746378
1621786948147.677,0.11,-0.311,-0.105,-0.1979420214155132,-5.465589771557617,-6.211201649946998
1621786948152.609,0.058,-0.316,-0.117,-0.35621572212065816,-5.42927992257232,-6.174581460372083
1621786948157.401,0.022037040705159945,-0.3325235218381698,-0.12866366247400218,-0.51,-5.394,-6.139
1621786948157.539,0.021,-0.333,-0.129,-0.5131539536097509,-5.3963806702178285,-6.139338854520056
1621786948162.465,-0.014,-0.346,-0.148,-0.625587384676788,-5.481247777965399,-6.15141847934544
1621786948167.389,-0.045,-0.34,-0.162,-0.7379706645380164,-5.566077030532828,-6.163492716024746
1621786948172.309,-0.084,-0.339,-0.178,-0.8502703590562302,-5.650843191133353,-6.175557972460586
1621786948173.305,-0.08967090367428004,-0.33575948361469715,-0.18083545183714,-0.873,-5.668,-6.178
1621786948177.226,-0.112,-0.323,-0.192,-0.9214151953245155,-5.793978314364811,-6.267666917871424
1621786948182.14,-0.133,-0.326,-0.201,-0.9820871731774838,-5.951849277145493,-6.380033897262381
1621786948187.051,-0.138,-0.312,-0.202,-1.0427259920024607,-6.109633958781913,-6.492339464780068
1621786948189.179,-0.138,-0.31373426851713676,-0.20286713425856837,-1.069,-6.178,-6.541
1621786948191.959,-0.138,-0.316,-0.204,-1.0758438872536178,-6.248544683998829,-6.628742144277151
1621786948196.865,-0.14,-0.319,-0.218,-1.0879215121206984,-6.37303712493643,-6.7835834887269035
1621786948201.767,-0.14,-0.321,-0.225,-1.0999895205658896,-6.497430442756091,-6.938301545716532
1621786948205.021,-0.1326937107545101,-0.32432104056613176,-0.22832104056613178,-1.108,-6.58,-7.041
1621786948206.666,-0.129,-0.326,-0.23,-1.0162401877528333,-6.632018034153723,-7.053276256060279
1621786948211.561,-0.133,-0.321,-0.227,-0.7431941450761202,-6.786806040206281,-7.089806225488682
1621786948216.454,-0.145,-0.321,-0.206,-0.47025704845134797,-6.94153228545842,-7.126321619368187
1621786948220.833,-0.1575370213190873,-0.3317460182735034,-0.18450796345299317,-0.226,-7.08,-7.159
1621786948221.344,-0.159,-0.333,-0.182,-0.20216549333910971,-7.100013213473411,-7.157737030217697
1621786948226.231,-0.169,-0.326,-0.157,0.025782581114325936,-7.291415265120453,-7.145658259968127
1621786948231.115,-0.176,-0.332,-0.126,0.2535940028778759,-7.482702573068652,-7.1335867308257646
1621786948235.996,-0.187,-0.325,-0.082,0.4812687719515403,-7.673875137318006,-7.121522442790611
1621786948236.612,-0.18371615939126953,-0.32361068281938327,-0.07732684221065278,0.51,-7.698,-7.12
1621786948240.873,-0.161,-0.314,-0.045,0.6293224141138534,-7.835991907478606,-7.186290230063252
1621786948245.748,-0.115,-0.293,-0.012,0.7658393432965398,-7.993868628302121,-7.2621329684980775
1621786948250.62,-0.063,-0.262,0.017,0.9022742310554384,-8.151650471288603,-7.337930128364133
1621786948252.36,-0.035482625482625485,-0.2555673669959384,0.029150529007671865,0.951,-8.208,-7.365
1621786948255.489,0.014,-0.244,0.051,0.9744944071588366,-8.211982102908278,-7.359026845637584
1621786948260.354,0.087,-0.199,0.077,1.0110247638578176,-8.218173688789461,-7.34973946681581
1621786948265.216,0.162,-0.168,0.106,1.0475331220482227,-8.224361546109868,-7.340457680835198
1621786948268.075,0.20553159851301114,-0.1544699085702803,0.12070662111926053,1.069,-8.228,-7.335
1621786948270.076,0.236,-0.145,0.131,1.0002386140771409,-8.130407309404477,-7.2899670329670325
1621786948274.932,0.295,-0.119,0.162,0.8333689256918719,-7.893569996575662,-7.1806813186813185
1621786948279.786,0.349,-0.098,0.175,0.6665663543255611,-7.656827942595648,-7.07143956043956
1621786948283.76,0.38341437632135306,-0.08079281183932346,0.18073572938689217,0.53,-7.463,-6.982
1621786948284.636,0.391,-0.077,0.182,0.5003341549405635,-7.40976939877071,-6.946904745561761
1621786948289.483,0.408,-0.065,0.19,0.3361881064553368,-7.1152356400736325,-6.752716873108484
1621786948294.327,0.417,-0.047,0.195,0.17214127484321867,-6.820879910143209,-6.5586463760881095
1621786948299.168,0.415,-0.049,0.197,0.008193660104208966,-6.526702208979438,-6.36469325450064
1621786948299.41,0.41440003027092476,-0.04880001009030826,0.1968500075677312,0.0,-6.512,-6.355
1621786948304.007,0.403,-0.045,0.194,-0.1500984682713348,-6.318637855579868,-6.1586947483588625
1621786948308.843,0.368,-0.028,0.185,-0.3079928102532042,-6.115232791497343,-5.952193716786496
1621786948313.674,0.332,-0.023,0.178,-0.46572772741481716,-5.9120331040950305,-5.745901187871209
1621786948315.03,0.31824065928510037,-0.02103437989787148,0.1760343798978715,-0.51,-5.855,-5.688
1621786948318.503,0.283,-0.016,0.171,-0.5995634945495552,-5.8046483836611955,-5.61804244455582
1621786948323.329,0.227,-0.007,0.152,-0.7240268450068914,-5.734676450319509,-5.520824802656309
1621786948328.152,0.168,-0.005,0.145,-0.848408344818945,-5.664750532514722,-5.423671093847888
1621786948330.618,0.13269962516462366,-0.006023199270590619,0.1403956032823422,-0.912,-5.629,-5.374
1621786948332.972,0.099,-0.007,0.136,-0.8956581400458241,-5.65124308715985,-5.394729951978908
1621786948337.788,0.038,0.002,0.131,-0.8622235962461945,-5.696751216220457,-5.437142289946957
1621786948342.603,-0.023,0.023,0.131,-0.8287975267568501,-5.7422478108031765,-5.479543878095477
1621786948346.175,-0.06532046077336852,0.030424642240941845,0.13322739267228256,-0.804,-5.776,-5.511
1621786948347.414,-0.08,0.033,0.134,-0.7836489227866017,-5.804172275515018,-5.570536876867432
1621786948352.221,-0.126,0.049,0.143,-0.7046947633275673,-5.913469602138701,-5.80151649630445
1621786948357.026,-0.175,0.068,0.157,-0.6257726843843372,-6.022722519264035,-6.032402264506998
1621786948361.7,-0.2119951690821256,0.09039181286549708,0.16576201372997712,-0.549,-6.129,-6.257
1621786948361.827,-0.213,0.091,0.166,-0.5471563189410653,-6.132138354869208,-6.264391112511818
1621786948366.626,-0.237,0.099,0.185,-0.4774616293728333,-6.2507742042231325,-6.543789379136464
1621786948371.422,-0.251,0.106,0.19,-0.4078094862905768,-6.369337630003151,-6.823017081626221
1621786948376.215,-0.25,0.105,0.19,-0.33820343523479357,-6.48782259691144,-7.102060006303183
1621786948377.193,-0.24591537088962528,0.10254922253377517,0.18857037981136884,-0.324,-6.512,-7.159
1621786948381.004,-0.23,0.093,0.183,-0.26583103840323397,-6.647316779307731,-7.1735422403991915
1621786948385.79,-0.194,0.089,0.176,-0.19277419151086408,-6.81726681720566,-7.191806452122284
1621786948390.573,-0.143,0.089,0.162,-0.11976579080343608,-6.9871041561394645,-7.210058552299141
1621786948392.654,-0.11427181739263646,0.09204692845835674,0.162,-0.088,-7.061,-7.218
1621786948395.354,-0.077,0.096,0.162,0.02345610315639586,-7.091794778894075,-7.144162518788071
1621786948400.132,-0.019,0.113,0.168,0.22069883711731667,-7.146291986393481,-7.013493078079266
1621786948404.906,0.031,0.136,0.18,0.4177702396962266,-7.200741855865833,-6.882937141048968
1621786948408.085,0.04965663698700235,0.16065341316139597,0.19132724388496572,0.549,-7.237,-6.796
1621786948409.677,0.059,0.173,0.197,0.5338012208657048,-7.164004502933249,-6.76250065007135
1621786948414.445,0.068,0.199,0.206,0.4882817980022198,-6.945387410813382,-6.662172126208975
1621786948419.211,0.065,0.232,0.216,0.4427833518312986,-6.726871063897256,-6.561889836689393
1621786948423.483,0.04436662394257883,0.2616044091258652,0.22138261984106639,0.402,-6.531,-6.472
1621786948423.973,0.042,0.265,0.222,0.3851301660443315,-6.515692778263287,-6.4707562882338925
1621786948428.732,0.021,0.278,0.225,0.22128179868117903,-6.367021291809009,-6.458676729959482
1621786948433.488,-0.005,0.291,0.229,0.057534297290855685,-6.218441328354651,-6.4466046079288155
1621786948438.241,-0.031,0.307,0.23,-0.10610393262890283,-6.0699605148168745,-6.434540541828871
1621786948438.848,-0.03572866543286037,0.3063609911577216,0.2291053876208102,-0.127,-6.051,-6.433
1621786948442.99,-0.068,0.302,0.223,-0.3047421347599032,-6.013722774168896,-6.417062635333078
1621786948447.737,-0.099,0.3,0.223,-0.5084447204177811,-5.97100095529232,-6.398797509871354
1621786948452.482,-0.126,0.279,0.211,-0.7120530187237295,-5.928298910966756,-6.380540838746656
1621786948454.182,-0.13352989340336782,0.27649003553221074,0.20741433647458674,-0.785,-5.913,-6.374
1621786948457.223,-0.147,0.272,0.201,-0.8454187449140779,-5.952152936671294,-6.401426930257048
1621786948461.96,-0.171,0.251,0.188,-0.939534424712396,-6.01314237390902,-6.444150495428653
1621786948466.695,-0.182,0.227,0.175,-1.0336112999218163,-6.074106664751967,-6.486856445359245
1621786948469.483,-0.19083914748684075,0.2158037465166684,0.16969651150789555,-1.089,-6.11,-6.512
1621786948471.426,-0.197,0.208,0.166,-1.0914176019184652,-6.136084652278178,-6.550681630695443
1621786948476.156,-0.195,0.188,0.154,-1.0973025899280575,-6.199580575539569,-6.64484143884892
1621786948480.881,-0.194,0.164,0.138,-1.1031815027977618,-6.263010951239009,-6.738904044764189
1621786948484.754,-0.1849799431377617,0.1541599379684673,0.12651992762987851,-1.108,-6.315,-6.816
1621786948485.604,-0.183,0.152,0.124,-1.1036485460225909,-6.327050180245133,-6.832959512937595
1621786948490.323,-0.183,0.126,0.108,-1.0794931026195627,-6.393942177361211,-6.927103805175038
1621786948495.04,-0.18,0.106,0.091,-1.055347656813266,-6.460806488824802,-7.021209132420092
1621786948499.753,-0.171,0.077,0.073,-1.031223455900024,-6.527611968276856,-7.115231659056317
1621786948499.992,-0.17064477503628447,0.07583283226207754,0.07228955007256893,-1.03,-6.531,-7.12
1621786948504.463,-0.164,0.054,0.059,-0.8944896789727127,-6.620360385232744,-7.137049020866773
1621786948509.171,-0.148,0.024,0.047,-0.7517942696629214,-6.714458876404494,-7.15500202247191
1621786948513.875,-0.131,0.007,0.038,-0.6092172552166935,-6.808479293739968,-7.172940128410914
1621786948515.202,-0.12253382833999689,0.005024559945999273,0.03715338283399969,-0.569,-6.835,-7.178
1621786948518.577,-0.101,0.0,0.035,-0.44469185232848063,-6.843672661465455,-7.1651021957693235
1621786948523.275,-0.079,-0.014,0.033,-0.2716549827073112,-6.855745001206467,-7.147148459744229
1621786948527.971,-0.054,-0.017,0.033,-0.0986900506715998,-6.867812322046167,-7.129202187726213
1621786948530.379,-0.04219662833654196,-0.018026380144648524,0.03505276028929705,-0.01,-6.874,-7.12
1621786948532.663,-0.031,-0.019,0.037,0.013673860138282269,-6.826803068641514,-7.096326139861718
1621786948537.352,-0.01,-0.005,0.035,0.0622715683272358,-6.729917191806211,-7.047728431672764
1621786948542.038,0.005,0.0,0.037,0.1108389124373459,-6.63309184972682,-6.999161087562654
1621786948545.527,0.018413881211868384,0.0067069406059341915,0.03252870626271054,0.147,-6.561,-6.963
1621786948546.72,0.023,0.009,0.031,0.1609708248521857,-6.53384766243417,-6.946740169946044
1621786948551.4,0.028,0.026,0.031,0.21578186488320247,-6.427322251300443,-6.882948790022939
1621786948556.078,0.026,0.045,0.031,0.2705700300474944,-6.3208412975348125,-6.8191840328260795
1621786948560.64,0.016239749281796813,0.06256845129276574,0.03783217550274223,0.324,-6.217,-6.757
1621786948560.752,0.016,0.063,0.038,0.3245795829825811,-6.2165690280385935,-6.7553206954607266
1621786948565.423,0.003,0.073,0.037,0.3487389755876449,-6.19860435148611,-6.685320404066567
1621786948570.09,-0.017,0.084,0.047,0.3728769021563168,-6.180655636858123,-6.615382309136826
1621786948574.755,-0.038,0.099,0.059,0.3970034643527812,-6.162715372660752,-6.545477141747069
1621786948575.721,-0.042765971931294514,0.10272989107666528,0.06127937788018433,0.402,-6.159,-6.531
1621786948579.417,-0.061,0.117,0.07,0.402,-6.22628990185741,-6.5383675075026355
1621786948584.076,-0.091,0.127,0.08,0.402,-6.3111101143645065,-6.547654392083705
1621786948588.732,-0.101,0.138,0.099,0.402,-6.395876989212426,-6.556935436775083
1621786948590.771,-0.10494479139333508,0.1423831015481501,0.10294479139333508,0.402,-6.433,-6.561
1621786948593.384,-0.11,0.148,0.108,0.3576195424167033,-6.485908467079695,-6.622436476576093
1621786948598.033,-0.108,0.15,0.119,0.27866105663690915,-6.580039367774038,-6.731739792184984
1621786948602.68,-0.105,0.147,0.129,0.19973574320698573,-6.674130721823829,-6.8409971868546435
1621786948605.785,-0.09229403722788936,0.147,0.13368114417919866,0.147,-6.737,-6.914
1621786948607.323,-0.086,0.147,0.136,0.10070288898665493,-6.749113213081097,-6.9370972283326
1621786948611.965,-0.066,0.148,0.134,-0.039026201300288416,-6.785672043799189,-7.006806863176418
1621786948616.602,-0.035,0.15,0.131,-0.1786009678838539,-6.822190497140343,-7.076439507259129
1621786948620.768,-0.005332859174964441,0.13921194879089616,0.12740398293029873,-0.304,-6.855,-7.139
1621786948621.236,-0.002,0.138,0.127,-0.3073799036813321,-6.8513071422741,-7.135933050363236
1621786948625.867,0.026,0.124,0.119,-0.3408227899763284,-6.814767692433271,-7.105586727614073
1621786948630.495,0.056,0.113,0.112,-0.37424628193616843,-6.778249432699372,-7.075258003428292
1621786948635.122,0.084,0.099,0.106,-0.40766095828911925,-6.741740804832259,-7.0449372785895035
1621786948635.723,0.08620997306006023,0.10016998573767895,0.10431002060113041,-0.412,-6.737,-7.041
1621786948639.744,0.101,0.108,0.093,-0.39879791915457474,-6.66560099134617,-6.932689051023246
1621786948644.363,0.115,0.099,0.086,-0.383631958644833,-6.583581000834301,-6.808266272963733
1621786948648.979,0.122,0.094,0.073,-0.3684764187210653,-6.501617366552701,-6.6839289862422095
1621786948650.647,0.11693792008467849,0.0958078856840434,0.0711921143159566,-0.363,-6.472,-6.639
1621786948653.592,0.108,0.099,0.068,-0.32028371422013835,-6.437194137512706,-6.582835994622775
1621786948658.202,0.087,0.099,0.061,-0.2534206695301485,-6.382713138135677,-6.4949234729007514
1621786948662.809,0.07,0.101,0.056,-0.18659657693694875,-6.328263877504181,-6.407062165972655
1621786948665.539,0.055176052603669534,0.10337183158341287,0.057778873687559656,-0.147,-6.296,-6.355
1621786948667.413,0.045,0.105,0.059,-0.13956030489207213,-6.29347806945494,-6.369753293688603
1621786948672.014,0.014,0.105,0.054,-0.12129544633176725,-6.28728659197687,-6.40597343693531
1621786948676.612,-0.002,0.108,0.052,-0.10304124913756282,-6.281098728521208,-6.442172438150935
1621786948680.401,-0.02179359090184408,0.11212366477121752,0.052,-0.088,-6.276,-6.472
1621786948681.206,-0.026,0.113,0.052,-0.09011758314125781,-6.286642212709911,-6.486388705959829
1621786948685.798,-0.044,0.105,0.045,-0.10219448468883767,-6.347336384590056,-6.568449703654923
1621786948690.387,-0.056,0.105,0.044,-0.11426303918340468,-6.407988607178137,-6.65045398419493
1621786948694.973,-0.063,0.103,0.035,-0.12632388870595984,-6.468602107342773,-6.732405910437932
1621786948695.23,-0.0626073407202216,0.10243905817174515,0.034887811634349036,-0.127,-6.472,-6.737
1621786948699.556,-0.056,0.093,0.033,-0.13869493762787935,-6.498021236222032,-6.814478961784701
1621786948704.135,-0.038,0.094,0.031,-0.15107431852682993,-6.525565358722197,-6.896492360240248
1621786948708.712,-0.023,0.086,0.028,-0.1634477592238136,-6.553096264272985,-6.978466404857765
1621786948710.026,-0.019265492393915132,0.0842763811048839,0.024552762209767813,-0.167,-6.561,-7.002
1621786948713.286,-0.01,0.08,0.016,-0.167,-6.569610850226528,-6.997584179371011
1621786948717.856,0.003,0.068,0.014,-0.167,-6.581682033136016,-6.991393829161018
1621786948722.424,0.014,0.065,0.009,-0.167,-6.593748057144746,-6.985206124541156
1621786948724.791,0.017630309190114477,0.060332459612709964,0.0043324596127099595,-0.167,-6.6,-6.982
1621786948726.988,0.021,0.056,0.0,-0.15820055354834434,-6.583892538698664,-6.968875401902616
1621786948731.549,0.033,0.052,0.0,-0.13993282840001325,-6.5504533130034135,-6.941628625410189
1621786948736.108,0.037,0.038,-0.005,-0.12167390367595876,-6.517030196559382,-6.914394974974312
1621786948739.522,0.04074745417515275,0.035751527494908356,-0.010246435845213848,-0.108,-6.492,-6.894
1621786948740.663,0.042,0.035,-0.012,-0.09426093166154613,-6.485945495308478,-6.886393058208088
1621786948745.216,0.038,0.028,-0.012,-0.039442813252511824,-6.461788358382463,-6.8560417836087355
1621786948749.765,0.028,0.037,-0.017,0.015325334219048414,-6.437653242547538,-6.825718176534086
1621786948754.223,0.028,0.0242520272810268,-0.012096933569625691,0.069,-6.414,-6.796
1621786948754.311,0.028,0.024,-0.012,0.06946863609885995,-6.414,-6.796
1621786948758.854,0.023,0.021,-0.017,0.09362481484563535,-6.414,-6.796
1621786948763.395,0.017,0.023,-0.016,0.11777060830490138,-6.414,-6.796
1621786948767.931,0.019,0.024,-0.017,0.14188914038445535,-6.414,-6.796
1621786948768.892,0.018576028429894465,0.023788014214947233,-0.017423971570105536,0.147,-6.414,-6.796
1621786948772.465,0.017,0.023,-0.019,0.1709209766999683,-6.418637740380606,-6.810401404339777
1621786948776.996,0.014,0.026,-0.016,0.20125574995413378,-6.424518971929883,-6.828664175992795
1621786948781.525,0.01,0.037,-0.014,0.23157581266574379,-6.430397351435195,-6.846918091298765
1621786948783.53,0.00867039015703416,0.037443203280988616,-0.014886406561977228,0.245,-6.433,-6.855
1621786948786.049,0.007,0.038,-0.016,0.2417235685396263,-6.429723568539626,-6.86172530668182
1621786948790.571,0.01,0.03,-0.009,0.2358419961894575,-6.4238419961894575,-6.87379800782164
1621786948795.09,0.012,0.042,-0.009,0.22996423438178962,-6.417964234381789,-6.88586288732159
1621786948798.138,0.010649867517439031,0.04335013248256097,-0.009,0.226,-6.414,-6.894
1621786948799.605,0.01,0.044,-0.009,0.22006185515208362,-6.414,-6.894
1621786948804.118,0.009,0.044,-0.007,0.20179482111751307,-6.414,-6.894
1621786948808.628,0.009,0.045,-0.003,0.18353964558488545,-6.414,-6.894
1621786948812.714,0.011719841828720004,0.050439683657440004,-0.003,0.167,-6.414,-6.894
1621786948813.135,0.012,0.051,-0.003,0.16416390250453233,-6.414549855636876,-6.891742697911771
1621786948817.638,0.012,0.044,-0.003,0.13382226549385617,-6.420432417914456,-6.8675932317196
1621786948822.139,0.009,0.042,-0.003,0.10349378902840262,-6.426312428657758,-6.8434542402470955
1621786948826.636,0.009,0.045,-0.003,0.07319163365339422,-6.432187336332505,-6.819336198213926
1621786948827.258,0.009138388007820986,0.043892895937432105,-0.002584835976537041,0.069,-6.433,-6.816
1621786948831.131,0.01,0.037,0.0,0.06366191093090164,-6.433,-6.810661910930902
1621786948835.623,0.012,0.038,-0.002,0.05747081784073894,-6.433,-6.804470817840739
1621786948840.111,0.01,0.044,-0.003,0.05128510860238572,-6.433,-6.798285108602386
1621786948841.769,0.00815160587915079,0.041412248230811105,-0.003,0.049,-6.433,-6.796
1621786948844.596,0.005,0.037,-0.003,0.04509516743668432,-6.436904832563315,-6.796
1621786948849.078,0.007,0.044,0.0,0.03890422554210367,-6.4430957744578965,-6.796
1621786948853.559,0.007,0.037,-0.007,0.03271429534954305,-6.449285704650457,-6.796
1621786948856.248,0.007,0.034596901761850214,-0.005798450880925107,0.029,-6.453,-6.796
1621786948858.035,0.007,0.033,-0.005,0.029,-6.460297848608271,-6.798473846985854
1621786948862.508,0.0,0.028,-0.009,0.029,-6.478566899325683,-6.80466674553413
1621786948866.978,0.002,0.03,-0.005,0.029,-6.496822987612175,-6.810855250038025
1621786948870.694,0.002831885008471334,0.030831885008471335,-0.00915942504235667,0.029,-6.512,-6.816
1621786948871.445,0.003,0.031,-0.01,0.026968055014481955,-6.510957976930503,-6.816989921916021
1621786948875.908,0.002,0.03,-0.003,0.014892647233184847,-6.5047654601195815,-6.822872812886397
1621786948880.369,0.005,0.024,-0.012,0.0028225240942427905,-6.498575653381663,-6.82875312928742
1621786948884.828,0.012,0.026,-0.014,-0.009242314402344212,-6.4923885567167465,-6.83463087111909
1621786948885.108,0.011874287593160894,0.026125712406839103,-0.014125712406839106,-0.01,-6.492,-6.835
1621786948889.283,0.01,0.028,-0.016,-0.027125091230035474,-6.4861948843288015,-6.846319975558837
1621786948893.735,0.012,0.023,-0.023,-0.0453867814043485,-6.480004480879882,-6.85839126228423
1621786948898.183,0.019,0.016,-0.028,-0.06363144762971638,-6.473819848261114,-6.870451295890829
1621786948899.492,0.020177336115076314,0.015411331942461843,-0.03064900625892171,-0.069,-6.472,-6.874
1621786948902.63,0.023,0.014,-0.037,-0.07315445204314246,-6.463472440543024,-6.852571773672213
1621786948907.073,0.023,0.017,-0.037,-0.07903688203871934,-6.451397978973155,-6.822230818958184
1621786948911.512,0.021,0.01,-0.044,-0.08491381715491136,-6.439334796366235,-6.791918206253615
1621786948913.843,0.01837317046329922,0.0063224386486189065,-0.044,-0.088,-6.433,-6.776
1621786948915.949,0.016,0.003,-0.044,-0.07932267139520212,-6.430205606042523,-6.767469744761385
1621786948920.382,0.016,-0.002,-0.047,-0.061056623075480376,-6.424323319295493,-6.749513290480981
1621786948924.814,0.01,-0.005,-0.052,-0.04279560450802202,-6.418442652299193,-6.731561780702801
1621786948928.162,0.006218496663541609,-0.011806706005625105,-0.051243699332708316,-0.029,-6.414,-6.718
1621786948929.241,0.005,-0.014,-0.051,-0.030510072274334922,-6.414,-6.720944640934953
1621786948933.666,0.003,-0.019,-0.056,-0.03670379482973671,-6.414,-6.733022399917987
1621786948938.087,-0.007,-0.012,-0.061,-0.042891708100534796,-6.414,-6.745088830796043
1621786948942.451,-0.009963362068965517,-0.01595114942528736,-0.06297557471264367,-0.049,-6.414,-6.757
1621786948942.505,-0.01,-0.016,-0.063,-0.04892430599558167,-6.414071909304197,-6.7572232973130335
1621786948946.92,-0.017,-0.03,-0.066,-0.042730412891956226,-6.4199561077526415,-6.775495281968729
1621786948951.333,-0.017,-0.03,-0.068,-0.03653925984278938,-6.42583770314935,-6.793759183463771
1621786948955.743,-0.024,-0.026,-0.072,-0.03035255938211772,-6.431715068586988,-6.812009949822753
1621786948956.707,-0.024,-0.028406992851997562,-0.07265645259599933,-0.029,-6.433,-6.816
1621786948960.149,-0.024,-0.037,-0.075,-0.024402694585085385,-6.437839268857805,-6.82543657427272
1621786948964.552,-0.024,-0.051,-0.075,-0.018521548099201923,-6.444029949369261,-6.8375084012700595
1621786948968.953,-0.021,-0.056,-0.086,-0.012643336479876425,-6.450217540547499,-6.849574204067623
1621786948970.932,-0.021,-0.056,-0.086,-0.01,-6.453,-6.855
1621786948973.35,-0.021,-0.056,-0.086,-0.01,-6.456236761089039,-6.86828775604974
1621786948977.744,-0.012,-0.056,-0.089,-0.01,-6.462117830177322,-6.892431092306898
1621786948982.135,-0.01,-0.059,-0.096,-0.01,-6.4679953046798415,-6.916559671843558
1621786948985.127,-0.005227007177432816,-0.06377299282256718,-0.0939544316474712,-0.01,-6.472,-6.933
1621786948986.523,-0.003,-0.066,-0.093,-0.009014341860304765,-6.470127249534579,-6.929155933255188
1621786948990.907,0.002,-0.072,-0.105,-0.005918947803902641,-6.464246000827416,-6.91708389643522
1621786948995.29,0.002,-0.077,-0.106,-0.0028242432600151697,-6.458366062194029,-6.9050145487140595
1621786948999.29,0.002913470115967886,-0.07882694023193577,-0.11239429081177521,0.0,-6.453,-6.894
1621786948999.669,0.003,-0.079,-0.113,0.0007775416774639372,-6.453,-6.891908681005442
1621786949004.045,0.007,-0.082,-0.113,0.009757346462814202,-6.453,-6.867756102617259
1621786949008.417,0.009,-0.084,-0.119,0.018729135354582364,-6.453,-6.84362508421871
1621786949012.787,0.01,-0.093,-0.115,0.027696916299559476,-6.453,-6.819504845814977
1621786949013.422,0.00898233748812252,-0.09343614107651892,-0.11659918394723605,0.029,-6.453,-6.816
1621786949017.155,0.003,-0.096,-0.126,0.0499180015585765,-6.44267339163564,-6.810704303402892
1621786949021.518,0.005,-0.096,-0.126,0.07436702744826391,-6.4306036193609835,-6.804514676595376
1621786949025.878,0.0,-0.098,-0.124,0.09879826824833318,-6.4185426270672785,-6.798329552342194
1621786949027.52,-0.0007535712285026049,-0.0972464287714974,-0.1247535712285026,0.108,-6.414,-6.796
1621786949030.236,-0.002,-0.096,-0.126,0.1269246658566221,-6.425200312445756,-6.784606578718972
1621786949034.59,0.0,-0.103,-0.126,0.15726196840826245,-6.443155042527339,-6.7663422843256384
1621786949038.943,-0.007,-0.106,-0.12,0.1875924665856622,-6.46110574553029,-6.7480820864433255
1621786949041.585,-0.010038070638441237,-0.10417715761693526,-0.12,0.206,-6.472,-6.737
1621786949043.291,-0.012,-0.103,-0.12,0.21074108866969363,-6.47443132752292,-6.732258911330306
1621786949047.636,-0.016,-0.11,-0.119,0.22281566724074942,-6.48062341909782,-6.720184332759251
1621786949051.979,-0.017,-0.105,-0.119,0.23488481812013987,-6.486812727241097,-6.708115181879861
1621786949055.619,-0.012805716536319137,-0.10583885669273617,-0.11732228661452766,0.245,-6.492,-6.698
1621786949056.318,-0.012,-0.106,-0.117,0.2489458667596791,-6.492998953610045,-6.701895919079178
1621786949060.654,-0.014,-0.108,-0.115,0.27341464945936517,-6.499193582141611,-6.726054970352285
1621786949064.988,-0.017,-0.11,-0.113,0.2978724101848622,-6.505385420299965,-6.750203139169864
1621786949069.318,-0.012,-0.101,-0.113,0.3223081269619812,-6.511571677711894,-6.774329543076386
1621786949069.618,-0.012137529398588868,-0.1007937059021167,-0.11293123530070556,0.324,-6.512,-6.776
1621786949073.678,-0.014,-0.098,-0.112,0.3391231596607034,-6.506785117358378,-6.765830978848837
1621786949078.682,-0.005,-0.098,-0.108,0.3577620219821571,-6.500357923454429,-6.753297950736136
1621786949083.686,-0.002,-0.101,-0.106,0.3764017936938491,-6.493930415967638,-6.7407643111368944
1621786949085.189,-0.002300351288056206,-0.10039929742388759,-0.106,0.382,-6.492,-6.737
1621786949088.69,-0.003,-0.099,-0.106,0.38849652672908486,-6.49633101781939,-6.7242234974328
1621786949093.693,-0.007,-0.096,-0.099,0.397780579885231,-6.502520386590154,-6.705964859559046
1621786949098.697,-0.009,-0.091,-0.101,0.4070659921473875,-6.508710661431591,-6.687703548776804
1621786949101.356,-0.00953157946114799,-0.08834210269426004,-0.0967473643108161,0.412,-6.512,-6.678
1621786949103.699,-0.01,-0.086,-0.093,0.414753926780644,-6.506202259409171,-6.678
1621786949108.702,-0.014,-0.08,-0.089,0.4206342505890171,-6.4938226303389115,-6.678
1621786949113.706,-0.017,-0.082,-0.086,0.4265160091826255,-6.481439980668157,-6.678
1621786949117.521,-0.021576142131979698,-0.07818654822335025,-0.08066116751269035,0.431,-6.472,-6.678
1621786949118.708,-0.023,-0.077,-0.079,0.431,-6.472,-6.680937409376511
1621786949123.711,-0.017,-0.059,-0.077,0.431,-6.472,-6.693317786370227
1621786949128.713,-0.023,-0.068,-0.072,0.431,-6.472,-6.705695746737554
1621786949133.685,-0.030950422095349633,-0.06104338066656907,-0.0680247889523252,0.431,-6.472,-6.718
1621786949133.716,-0.031,-0.061,-0.068,0.431,-6.4721131958607145,-6.718036452904298
1621786949138.719,-0.03,-0.059,-0.061,0.431,-6.490377838205303,-6.723918286879674
1621786949143.72,-0.03,-0.052,-0.059,0.431,-6.508635350101971,-6.7297978246091095
1621786949148.722,-0.024,-0.049,-0.052,0.431,-6.526896427222599,-6.735678510461515
1621786949149.846,-0.024898823759090243,-0.04810117624090976,-0.05132588218068231,0.431,-6.531,-6.737
1621786949153.724,-0.028,-0.045,-0.049,0.431,-6.52644086102719,-6.760515558912386
1621786949158.725,-0.021,-0.042,-0.044,0.431,-6.520561767371601,-6.790839305135952
1621786949163.728,-0.017,-0.033,-0.042,0.431,-6.514680377643504,-6.821174894259819
1621786949166.008,-0.013352665495020503,-0.030720415934387815,-0.0369849150556532,0.431,-6.512,-6.835
1621786949168.729,-0.009,-0.028,-0.031,0.427800462354381,-6.4986966592629525,-6.835
1621786949173.73,-0.007,-0.028,-0.033,0.42191985857395403,-6.4742457277548615,-6.835
1621786949178.731,-0.009,-0.031,-0.028,0.416039254793527,-6.44979479624677,-6.835
1621786949182.166,-0.009,-0.027565612185120093,-0.03143438781487991,0.412,-6.433,-6.835
1621786949183.732,-0.009,-0.026,-0.033,0.4138411264371289,-6.438717182094242,-6.821724509374386
1621786949188.733,-0.01,-0.016,-0.024,0.4197210194739466,-6.456975797313834,-6.779327385898385
1621786949193.734,-0.017,-0.019,-0.019,0.4256009125107643,-6.475234412533426,-6.736930262422384
1621786949198.326,-0.018836816406249998,-0.02083681640625,-0.017163183593750003,0.431,-6.492,-6.698
1621786949198.734,-0.019,-0.021,-0.017,0.43026780291011285,-6.492984678845021,-6.698504963510268
1621786949203.734,-0.026,-0.012,-0.005,0.4212938972243628,-6.505053034767236,-6.7046938639831986
1621786949208.735,-0.023,-0.007,-0.002,0.41231780064366985,-6.517124337065409,-6.710884275418159
1621786949213.736,-0.026,-0.003,-0.003,0.40334214224196546,-6.529195050088391,-6.717074384660713
1621786949214.484,-0.026,-0.002850410236374292,-0.0025512307091228757,0.402,-6.531,-6.718
1621786949218.735,-0.026,-0.002,0.0,0.3967376851012391,-6.53363115744938,-6.733260713206406
1621786949223.735,-0.023,0.0,0.002,0.3905485040797824,-6.536725747960109,-6.751209338168631
1621786949228.735,-0.016,0.003,0.002,0.38435932305832576,-6.539820338470838,-6.769157963130855
1621786949230.641,-0.011043174603174603,0.005669059829059829,0.003143882783882784,0.382,-6.541,-6.776
1621786949233.734,-0.003,0.01,0.005,0.382,-6.539085681904043,-6.783657272383831
1621786949238.733,-0.007,0.003,0.005,0.382,-6.53599146203249,-6.796034151870042
1621786949243.733,-0.002,0.0,0.01,0.382,-6.53289663770306,-6.80841344918776
1621786949246.797,-0.002,0.0018388845477632352,0.008161115452236765,0.382,-6.531,-6.816
1621786949248.732,-0.002,0.003,0.007,0.3843954901308829,-6.528724284375661,-6.8089333041138955
1621786949253.731,0.0,0.01,0.012,0.3905847716349787,-6.52284446694677,-6.7906749236768125
1621786949258.731,0.003,0.01,0.017,0.39677526221926673,-6.516963500891697,-6.772412976453163
1621786949262.951,0.002155676045330207,0.005778380226651036,0.017,0.402,-6.512,-6.757
1621786949263.729,0.002,0.005,0.017,0.402,-6.512,-6.755121412269697
1621786949268.728,0.003,0.01,0.019,0.402,-6.512,-6.743051766092831
1621786949273.727,0.0,0.019,0.021,0.402,-6.512,-6.730982119915965
1621786949278.725,0.002,0.016,0.026,0.402,-6.512,-6.718914831552378
1621786949279.104,0.002,0.0162274437008451,0.026303258267793464,0.402,-6.512,-6.718
1621786949283.723,0.002,0.019,0.03,0.402,-6.5174340287226,-6.7234340287226
1621786949288.722,0.002,0.03,0.026,0.402,-6.523315268329553,-6.729315268329554
1621786949293.719,0.0,0.021,0.026,0.402,-6.529194210128495,-6.735194210128496
1621786949295.254,0.0015355119187182493,0.02314971668620555,0.02814971668620555,0.402,-6.531,-6.737
1621786949298.717,0.005,0.028,0.033,0.3936370878747109,-6.533144336442382,-6.732925760759475
1621786949303.715,0.003,0.024,0.031,0.38156761046696197,-6.536239074239241,-6.727045758945443
1621786949308.712,0.005,0.024,0.033,0.36950108086045563,-6.539333056189627,-6.721167193239709
1621786949311.404,0.0060772762797967955,0.027231828839390387,0.0313840855803048,0.363,-6.541,-6.718
1621786949313.71,0.007,0.03,0.03,0.36014419617210414,-6.541,-6.718
1621786949318.707,0.007,0.024,0.03,0.35395546215946544,-6.541,-6.718
1621786949323.704,0.007,0.031,0.033,0.34776672814682674,-6.541,-6.718
1621786949327.553,0.009310792983827625,0.025608149704402207,0.03145947134411492,0.343,-6.541,-6.718
1621786949328.701,0.01,0.024,0.031,0.34022767816648025,-6.5424217035043695,-6.713805974662111
1621786949333.699,0.01,0.024,0.033,0.32815728842258035,-6.5486116469627795,-6.695545641459801
1621786949338.695,0.01,0.024,0.033,0.31609161551718923,-6.5547991715296465,-6.677292443987542
1621786949343.692,0.007,0.03,0.031,0.30402417379735736,-6.560987603180842,-6.659036570616514
1621786949343.702,0.007004007036747459,0.029981968334636434,0.031,0.304,-6.561,-6.659
1621786949348.688,0.009,0.021,0.031,0.29195722644733063,-6.566866992243608,-6.659
1621786949353.684,0.007,0.019,0.03,0.27989027653880466,-6.572745762711865,-6.659
1621786949358.681,0.007,0.023,0.026,0.26782155762863064,-6.578625395001437,-6.659
1621786949359.849,0.007701475762314308,0.020427922204847536,0.026,0.265,-6.58,-6.659
1621786949363.677,0.01,0.012,0.026,0.265,-6.57549515341227,-6.659
1621786949368.673,0.014,0.014,0.026,0.265,-6.569615493958778,-6.659
1621786949373.668,0.01,0.009,0.017,0.265,-6.563737271091352,-6.659
1621786949375.994,0.01325884480062549,0.005741155199374511,0.017,0.265,-6.561,-6.659
1621786949378.664,0.017,0.002,0.017,0.2585495417838672,-6.556038109064513,-6.655692072709676
1621786949383.66,0.017,0.002,0.017,0.24648080936394157,-6.546754468741494,-6.649502979160996
1621786949388.655,0.016,-0.005,0.014,0.2344138462934398,-6.5374721894564916,-6.643314792970995
1621786949392.138,0.014605405933818857,-0.007789188132362285,0.016091891099271716,0.226,-6.531,-6.639
1621786949393.65,0.014,-0.009,0.017,0.22965296893432954,-6.52734703106567,-6.63534703106567
1621786949398.645,0.01,-0.005,0.014,0.24172139205662604,-6.515278607943374,-6.623278607943374
1621786949403.64,0.005,-0.005,0.012,0.25378922532442,-6.50321077467558,-6.6112107746755795
1621786949408.28,0.0022131964809384164,-0.005,0.015715738025415444,0.265,-6.492,-6.6
1621786949408.635,0.002,-0.005,0.016,0.2654179108993268,-6.4915600937901825,-6.601297723318962
1621786949413.63,-0.005,-0.007,0.009,0.2712982679071175,-6.485370244308298,-6.619557779290522
1621786949418.624,-0.012,-0.002,0.009,0.277177762650329,-6.4791813024733385,-6.637815157703653
1621786949423.618,-0.021,-0.002,0.009,0.2830569699720142,-6.472992663187354,-6.656071643597307
1621786949424.419,-0.021801808406647118,-0.0024810850439882697,0.008358553274682306,0.284,-6.472,-6.659
1621786949428.613,-0.026,-0.005,0.005,0.2891978033615225,-6.4771978033615225,-6.674333519916491
1621786949433.607,-0.028,-0.005,0.009,0.29538681714346227,-6.4833868171434625,-6.692591110573214
1621786949438.601,-0.031,0.0,0.009,0.3015761334926854,-6.489576133492686,-6.710849593803422
1621786949440.557,-0.031,-0.0011749205573209484,0.009,0.304,-6.492,-6.718
1621786949443.595,-0.031,-0.003,0.009,0.3002341690750352,-6.495765830924965,-6.740030110911044
1621786949448.589,-0.031,-0.007,0.01,0.29404372891101394,-6.501956271088986,-6.776244185870569
1621786949453.582,-0.031,-0.007,0.012,0.2878548018581004,-6.508145198141899,-6.812449409130112
1621786949456.692,-0.026640017603051194,-0.004508581487457826,0.010131436115593369,0.284,-6.512,-6.835
1621786949458.575,-0.024,-0.003,0.009,0.2817825810649276,-6.515384481532479,-6.837334125194813
1621786949463.569,-0.024,-0.005,0.014,0.2759016629091074,-6.5243606197703095,-6.843524565358835
1621786949468.562,-0.014,-0.003,0.009,0.2700221822088396,-6.533334563997035,-6.849713492411748
1621786949472.827,-0.006312307466627548,-0.0021458119407363942,0.009,0.265,-6.541,-6.855
1621786949473.555,-0.005,-0.002,0.009,0.26409752591359614,-6.541,-6.8540975259135966
1621786949478.549,-0.005,-0.009,0.009,0.2579067110539457,-6.541,-6.8479067110539455
1621786949483.541,0.0,-0.007,0.009,0.2517186199591435,-6.541,-6.841718619959144
1621786949488.534,0.003,0.0,0.007,0.24552931830218658,-6.541,-6.835529318302187
1621786949488.961,0.0035987675453611778,-0.0008553822076588253,0.006828923558468235,0.245,-6.541,-6.835
1621786949493.526,0.01,-0.01,0.005,0.23396272079189936,-6.53816992840818,-6.812925441583799
1621786949498.518,0.01,-0.014,0.005,0.2218924306406938,-6.535074982215562,-6.788784861281387
1621786949503.511,0.016,-0.014,0.003,0.2098203696135858,-6.531979581952201,-6.764640739227171
1621786949505.091,0.016316525651684843,-0.014,0.003,0.206,-6.531,-6.757
1621786949508.503,0.017,-0.014,0.003,0.1977505448931404,-6.52698103469153,-6.7402895652963615
1621786949513.495,0.017,-0.005,0.002,0.1856800720469819,-6.521100547920324,-6.715839120300297
1621786949518.487,0.012,-0.017,0.0,0.1736101895017255,-6.515220348731609,-6.691389871041957
1621786949521.221,0.012,-0.016452233038203787,0.0,0.167,-6.512,-6.678
1621786949523.478,0.012,-0.016,0.0,0.167,-6.514658981850108,-6.67254208988662
1621786949528.47,0.009,-0.019,-0.003,0.167,-6.520539804120434,-6.660470928384372
1621786949533.461,0.007,-0.021,-0.002,0.167,-6.526419475938905,-6.648402128335932
1621786949537.349,0.005442216462072676,-0.023336675306890986,-0.00044221646207267553,0.167,-6.531,-6.639
1621786949538.453,0.005,-0.024,0.0,0.16563107854417733,-6.531,-6.639
1621786949543.444,0.003,-0.028,0.0,0.159440804214861,-6.531,-6.639
1621786949548.434,0.003,-0.023,-0.003,0.15325204384424393,-6.531,-6.639
1621786949553.425,0.002,-0.024,-0.007,0.14706207230666746,-6.531,-6.639
1621786949553.475,0.0019799481586540812,-0.023929818555289285,-0.006979948158654082,0.147,-6.531,-6.639
1621786949558.417,0.0,-0.017,-0.005,0.14087126074845585,-6.534064369625772,-6.6509510415405115
1621786949563.407,0.0,-0.031,-0.005,0.13468287513624802,-6.537158562431876,-6.663018393484316
1621786949568.397,0.002,-0.033,-0.007,0.12849448952404022,-6.54025275523798,-6.675085745428121
1621786949569.602,0.002,-0.033,-0.007,0.127,-6.541,-6.678
1621786949573.387,0.002,-0.033,-0.007,0.13169474895524197,-6.534192614014899,-6.678
1621786949578.378,0.0,-0.035,-0.009,0.13788547029253226,-6.525216068075828,-6.678
1621786949583.368,-0.003,-0.03,-0.012,0.14407498031615287,-6.516241278541578,-6.678
1621786949585.726,-0.0025274230637506727,-0.03,-0.011054846127501346,0.147,-6.512,-6.678
1621786949588.358,-0.002,-0.03,-0.01,0.147,-6.512,-6.681264935261604
1621786949593.347,-0.009,-0.033,-0.012,0.147,-6.512,-6.687454077383206
1621786949598.337,-0.01,-0.035,-0.012,0.147,-6.512,-6.69364443098357
1621786949601.848,-0.01,-0.03218557659376682,-0.010592788296883409,0.147,-6.512,-6.698
1621786949603.327,-0.01,-0.031,-0.01,0.1505779924884904,-6.512,-6.699834867942816
1621786949608.316,-0.01,-0.035,-0.012,0.1626473679428156,-6.512,-6.706024291252726
1621786949613.305,-0.01,-0.04,-0.014,0.17471674339714077,-6.512,-6.712213714562637
1621786949617.969,-0.011869733300709567,-0.038130266699290434,-0.010260533398580867,0.186,-6.512,-6.718
1621786949618.294,-0.012,-0.038,-0.01,0.186,-6.511596862127453,-6.719572237702932
1621786949623.284,-0.007,-0.035,-0.016,0.186,-6.505406227283741,-6.743715713593409
1621786949628.272,-0.007,-0.033,-0.012,0.186,-6.4992180155076325,-6.767849739520233
1621786949633.261,-0.003,-0.037,-0.017,0.186,-6.493028592197723,-6.791988490428883
1621786949634.09,-0.0033324360041113994,-0.0363351279917772,-0.0161689099897215,0.186,-6.492,-6.796
1621786949638.249,-0.005,-0.033,-0.012,0.18109739620412305,-6.492,-6.785936760629516
1621786949643.237,0.0,-0.037,-0.016,0.17521743740438359,-6.492,-6.773867371514261
1621786949648.226,0.0,-0.044,-0.017,0.169336327420894,-6.492,-6.761795619442887
1621786949650.208,-0.002781361656306593,-0.040423963584748666,-0.01580798786158289,0.167,-6.492,-6.757
1621786949653.214,-0.007,-0.035,-0.014,0.167,-6.488269635688859,-6.745995425282133
1621786949658.202,-0.005,-0.042,-0.016,0.167,-6.482080133303038,-6.727736393243959
1621786949663.189,-0.003,-0.038,-0.016,0.167,-6.475891539801561,-6.709480042414603
1621786949666.325,-0.0074009103812833444,-0.04051480593216191,-0.014742597033919044,0.167,-6.472,-6.698
1621786949668.177,-0.01,-0.042,-0.014,0.16918292239655905,-6.47429781304901,-6.702480735445569
1621786949673.165,-0.012,-0.038,-0.016,0.17506207972375357,-6.480486399709214,-6.714548479432968
1621786949678.153,-0.009,-0.04,-0.009,0.18094123705094808,-6.486674986369419,-6.7266162234203675
1621786949682.445,-0.015024674434544208,-0.03741799667090962,-0.011582003329090375,0.186,-6.492,-6.737
1621786949683.14,-0.016,-0.037,-0.012,0.18518088313262138,-6.492,-6.737
1621786949688.127,-0.014,-0.037,-0.014,0.1793017193062183,-6.492,-6.737
1621786949693.115,-0.012,-0.04,-0.017,0.17342140422631222,-6.492,-6.737
1621786949698.101,-0.016,-0.038,-0.016,0.16754339165341212,-6.492,-6.737
1621786949698.562,-0.015445412709292079,-0.03735298149417409,-0.01563027513952805,0.167,-6.492,-6.737
1621786949703.088,-0.01,-0.031,-0.012,0.167,-6.497616639650967,-6.726047552680614
1621786949708.074,-0.014,-0.038,-0.014,0.167,-6.5038043962369905,-6.713981427337869
1621786949713.06,-0.017,-0.044,-0.014,0.167,-6.509992152823014,-6.701915301995123
1621786949714.678,-0.018298011947899324,-0.041728479091176184,-0.013350994026050339,0.167,-6.512,-6.698
1621786949718.046,-0.021,-0.037,-0.012,0.15864028057630253,-6.5036402805763025,-6.698
1621786949723.033,-0.021,-0.037,-0.012,0.14626159346735954,-6.491261593467359,-6.698
1621786949728.019,-0.023,-0.038,-0.014,0.13388533034375144,-6.4788853303437515,-6.698
1621786949730.793,-0.02578180393693076,-0.038,-0.012887278425227695,0.127,-6.472,-6.698
1621786949733.005,-0.028,-0.038,-0.012,0.12974549614388098,-6.477490992287763,-6.700745496143881
1621786949737.991,-0.023,-0.042,-0.016,0.13593437779360293,-6.489868755587206,-6.706934377793603
1621786949742.977,-0.021,-0.045,-0.014,0.14212325944332488,-6.50224651888665,-6.713123259443325
1621786949746.906,-0.028093593887746106,-0.0394827603095308,-0.01636453129591537,0.147,-6.512,-6.718
1621786949747.962,-0.03,-0.038,-0.017,0.14831096359613227,-6.512,-6.716689036403868
1621786949752.948,-0.03,-0.051,-0.01,0.15450143978660846,-6.512,-6.7104985602133915
1621786949757.933,-0.026,-0.045,-0.017,0.16069070352520384,-6.512,-6.704309296474796
1621786949762.918,-0.028,-0.047,-0.012,0.16687966415082903,-6.512,-6.698120335849171
1621786949763.015,-0.028,-0.04707777070375631,-0.012077770703756305,0.167,-6.512,-6.698
1621786949767.903,-0.028,-0.051,-0.016,0.17883566502463055,-6.517766093217127,-6.709835665024631
1621786949772.888,-0.03,-0.04,-0.016,0.19090541871921182,-6.523646229632436,-6.721905418719212
1621786949777.872,-0.033,-0.037,-0.012,0.20297339901477832,-6.529525502084122,-6.733973399014778
1621786949779.122,-0.033,-0.037752277402292096,-0.013253795670486826,0.206,-6.531,-6.737
1621786949782.857,-0.033,-0.04,-0.017,0.20136241549701397,-6.526594294722163,-6.741637584502986
1621786949787.842,-0.026,-0.038,-0.016,0.19517240124897686,-6.520713781186528,-6.747827598751023
1621786949792.826,-0.028,-0.044,-0.012,0.188983902749568,-6.514834707612089,-6.754016097250432
1621786949795.229,-0.027035709037472447,-0.040624981631153564,-0.012964290962527554,0.186,-6.512,-6.757
1621786949797.81,-0.026,-0.037,-0.014,0.186,-6.515045023193766,-6.753794712427614
1621786949802.793,-0.024,-0.042,-0.014,0.186,-6.5209236576418155,-6.74760667616651
1621786949807.778,-0.019,-0.033,-0.014,0.186,-6.526804884334354,-6.741415911226996
1621786949811.334,-0.021853923777799548,-0.03656740472224944,-0.015426961888899774,0.186,-6.531,-6.737
1621786949812.762,-0.023,-0.038,-0.016,0.18431502259150317,-6.527541362161506,-6.733541362161507
1621786949817.745,-0.021,-0.033,-0.017,0.17843503047578615,-6.515471904660824,-6.721471904660825
1621786949822.728,-0.028,-0.031,-0.016,0.17255532643963975,-6.503403038481366,-6.7094030384813665
1621786949827.436,-0.028,-0.0432828025477707,-0.016,0.167,-6.492,-6.698
1621786949827.711,-0.028,-0.044,-0.016,0.16631705837755878,-6.491658529188779,-6.698
1621786949832.695,-0.035,-0.04,-0.017,0.1539349507202426,-6.485467475360122,-6.698
1621786949837.677,-0.038,-0.038,-0.017,0.14155830174374526,-6.479279150871873,-6.698
1621786949842.661,-0.038,-0.044,-0.016,0.1291768006065201,-6.4730884003032605,-6.698
1621786949843.537,-0.03782416344128166,-0.04417583655871834,-0.016175836558718338,0.127,-6.472,-6.698
1621786949847.644,-0.037,-0.045,-0.017,0.12215355805243445,-6.477101517839543,-6.703101517839543
1621786949852.626,-0.038,-0.04,-0.021,0.11627456064534716,-6.483289936162793,-6.709289936162793
1621786949857.608,-0.038,-0.04,-0.017,0.11039556323825987,-6.489478354486042,-6.715478354486042
1621786949859.638,-0.040444270246435744,-0.04203689187202979,-0.01862951349762383,0.108,-6.492,-6.718
1621786949862.591,-0.044,-0.045,-0.021,0.1151539231445816,-6.499153923144582,-6.728639167753481
1621786949867.573,-0.04,-0.044,-0.019,0.12722261987807468,-6.511222619878074,-6.746587485972521
1621786949872.555,-0.042,-0.047,-0.019,0.13929131661156774,-6.523291316611568,-6.764535804191562
1621786949875.737,-0.03752908315773999,-0.047,-0.021554809624148574,0.147,-6.531,-6.776
1621786949877.537,-0.035,-0.047,-0.023,0.14476348717637602,-6.524402287170309,-6.776
1621786949882.52,-0.037,-0.045,-0.021,0.13857235375305232,-6.506138443571505,-6.776
1621786949887.501,-0.035,-0.044,-0.03,0.13238364703562708,-6.4878817587551,-6.776
1621786949891.834,-0.037609744142731105,-0.050089402999705906,-0.026520341143025192,0.127,-6.472,-6.776
1621786949892.482,-0.038,-0.051,-0.026,0.1286103147516117,-6.472805157375806,-6.772859886234357
1621786949897.464,-0.038,-0.051,-0.026,0.14099226393629125,-6.478996131968146,-6.748715085324232
1621786949902.446,-0.04,-0.052,-0.031,0.153373606370876,-6.485186803185438,-6.724571467576792
1621786949907.427,-0.044,-0.054,-0.024,0.16575252180508154,-6.491376260902541,-6.700432582480091
1621786949907.929,-0.04450397097754682,-0.053697617413471906,-0.024,0.167,-6.492,-6.698
1621786949912.407,-0.049,-0.051,-0.024,0.1614358324864627,-6.502850126651397,-6.698
1621786949917.388,-0.047,-0.049,-0.024,0.15524675029198076,-6.5149188369306374,-6.698
1621786949922.368,-0.049,-0.051,-0.03,0.14905888152406377,-6.526985181028075,-6.698
1621786949924.025,-0.049997745871514676,-0.05199774587151467,-0.028669672171313762,0.147,-6.531,-6.698
1621786949927.35,-0.052,-0.054,-0.026,0.14286753037911312,-6.531,-6.7101907853816165
1621786949932.33,-0.051,-0.049,-0.023,0.13667853512750883,-6.531,-6.728448321373849
1621786949937.31,-0.049,-0.049,-0.03,0.13048953987590456,-6.531,-6.746705857366082
1621786949940.118,-0.04674468085106383,-0.047872340425531915,-0.026617021276595744,0.127,-6.531,-6.757
1621786949942.29,-0.045,-0.047,-0.024,0.1296992915762807,-6.531,-6.764962910150028
1621786949947.27,-0.037,-0.054,-0.03,0.13588791128775352,-6.531,-6.783219338298872
1621786949952.251,-0.038,-0.049,-0.03,0.14207774457304956,-6.531,-6.801479346490496
1621786949956.212,-0.03243130332450721,-0.049,-0.02840894380700206,0.147,-6.531,-6.816
1621786949957.23,-0.031,-0.049,-0.028,0.14826545785600484,-6.52853235718079,-6.816
1621786949962.209,-0.026,-0.045,-0.028,0.15445436613307031,-6.516463986040512,-6.816
1621786949967.189,-0.024,-0.047,-0.035,0.16064448827858283,-6.504393247856763,-6.816
1621786949972.169,-0.019,-0.051,-0.026,0.1668346104240953,-6.492322509673015,-6.816
1621786949972.302,-0.01913361773070511,-0.051080170638423066,-0.026106894184564085,0.167,-6.492,-6.816
1621786949977.148,-0.024,-0.054,-0.03,0.1727226900957497,-6.485976115688684,-6.792205656970304
1621786949982.127,-0.024,-0.049,-0.026,0.1786025098253441,-6.479786831762796,-6.767757985463043
1621786949987.105,-0.028,-0.047,-0.026,0.18448117630991942,-6.473598761779033,-6.7433151090271775
1621786949988.391,-0.028516622536040013,-0.04751662253604001,-0.025483377463959987,0.186,-6.472,-6.737
1621786949992.084,-0.03,-0.049,-0.024,0.186,-6.472,-6.7326381435162705
1621786949997.063,-0.033,-0.052,-0.024,0.186,-6.472,-6.726757163671685
1621786950002.042,-0.037,-0.045,-0.019,0.186,-6.472,-6.720876183827101
1621786950004.477,-0.037,-0.043532515939185876,-0.019978322707209416,0.186,-6.472,-6.718
1621786950007.02,-0.037,-0.042,-0.021,0.1766723331916702,-6.472,-6.7303314917127075
1621786950011.998,-0.037,-0.047,-0.021,0.15841281646530264,-6.472,-6.754471191791634
1621786950016.976,-0.038,-0.047,-0.021,0.1401532997389351,-6.472,-6.778610891870561
1621786950020.562,-0.03727978817299205,-0.04988084730803177,-0.01955957634598411,0.127,-6.472,-6.796
1621786950021.955,-0.037,-0.051,-0.019,0.1236223362273086,-6.470354471495356,-6.797732135268047
1621786950026.932,-0.037,-0.051,-0.019,0.11155544593528019,-6.464475730071034,-6.803920284135754
1621786950031.91,-0.03,-0.042,-0.017,0.09948559589581689,-6.458595546718475,-6.810109950822658
1621786950036.647,-0.03,-0.05056434526728788,-0.025564345267287885,0.088,-6.453,-6.816
1621786950036.888,-0.03,-0.051,-0.026,0.088,-6.453,-6.815700364298725
1621786950041.865,-0.023,-0.047,-0.024,0.088,-6.453,-6.809511536126291
1621786950046.843,-0.023,-0.038,-0.024,0.088,-6.453,-6.803321493624773
1621786950051.819,-0.019,-0.047,-0.026,0.088,-6.453,-6.797133879781421
1621786950052.731,-0.01973289183222958,-0.04736644591611479,-0.025633554083885207,0.088,-6.453,-6.796
1621786950056.796,-0.023,-0.049,-0.024,0.09305556567680816,-6.457802787392968,-6.781086081253416
1621786950061.773,-0.023,-0.047,-0.026,0.09924552134572175,-6.463683245278436,-6.762825712030121
1621786950066.75,-0.024,-0.047,-0.024,0.10543547701463533,-6.469563703163904,-6.744565342806826
1621786950068.812,-0.02192929292929293,-0.045757575757575754,-0.024,0.108,-6.472,-6.737
1621786950071.729,-0.019,-0.044,-0.024,0.10435147721200091,-6.4685339033514015,-6.740648522787999
1621786950076.67,-0.023,-0.045,-0.026,0.09817146347049392,-6.462662890296969,-6.746828536529506
1621786950081.612,-0.024,-0.044,-0.024,0.09198992289487747,-6.456790426750134,-6.753010077105122
1621786950084.802,-0.023354255213996245,-0.04270851042799249,-0.027874468716022536,0.088,-6.453,-6.757
1621786950086.552,-0.023,-0.042,-0.03,0.088,-6.453,-6.757
1621786950091.492,-0.021,-0.049,-0.026,0.088,-6.453,-6.757
1621786950096.432,-0.021,-0.056,-0.03,0.088,-6.453,-6.757
1621786950100.764,-0.025384482332592044,-0.048107931801334325,-0.03,0.088,-6.453,-6.757
1621786950101.372,-0.026,-0.047,-0.03,0.088,-6.452237911676074,-6.757
1621786950106.311,-0.026,-0.049,-0.03,0.088,-6.446048812200756,-6.757
1621786950111.25,-0.026,-0.051,-0.03,0.088,-6.439859712725437,-6.757
1621786950116.188,-0.026,-0.054,-0.03,0.088,-6.4336718369969255,-6.757
1621786950116.724,-0.02676001186591516,-0.05454286561851083,-0.030108573123702166,0.088,-6.433,-6.757
1621786950121.126,-0.033,-0.059,-0.031,0.088,-6.416723204039476,-6.746240761992196
1621786950126.064,-0.04,-0.052,-0.03,0.088,-6.398463943080101,-6.73417108101905
1621786950131.002,-0.047,-0.051,-0.031,0.088,-6.380204682120725,-6.722101400045903
1621786950132.68,-0.04869938680644842,-0.051,-0.03167975472257937,0.088,-6.374,-6.718
1621786950135.939,-0.052,-0.051,-0.033,0.11211078967105967,-6.378086574520518,-6.7098268509589625
1621786950140.875,-0.063,-0.052,-0.03,0.1486282775405244,-6.384275979244157,-6.697448041511686
1621786950145.811,-0.066,-0.044,-0.024,0.18514576540998912,-6.390465383967795,-6.685069232064411
1621786950148.63,-0.07627732172881022,-0.04457096231826723,-0.024,0.206,-6.394,-6.678
1621786950150.748,-0.084,-0.045,-0.024,0.21383619858242886,-6.399179860079911,-6.678
1621786950155.683,-0.086,-0.045,-0.024,0.23209356581908364,-6.411248289270242,-6.678
1621786950160.618,-0.094,-0.042,-0.021,0.2503500298516602,-6.423316121427368,-6.678
1621786950164.578,-0.10122172751558325,-0.03477827248441674,-0.01939517166320372,0.265,-6.433,-6.678
1621786950165.553,-0.103,-0.033,-0.019,0.2661619175942797,-6.43183808240572,-6.683993048644179
1621786950170.487,-0.106,-0.038,-0.014,0.27204132535101283,-6.425958674648987,-6.714318414968382
1621786950175.422,-0.108,-0.03,-0.01,0.2779218967708349,-6.420078103229165,-6.744649783344307
1621786950180.355,-0.108,-0.03,-0.017,0.28379984994870694,-6.414200150051292,-6.774967647103857
1621786950180.523,-0.10806809858457883,-0.03003404929228942,-0.017,0.284,-6.414,-6.776
1621786950185.288,-0.11,-0.031,-0.017,0.2899788635319344,-6.43133870424261,-6.793637647419207
1621786950190.221,-0.108,-0.028,-0.016,0.296168172767652,-6.449287701026191,-6.811896109664573
1621786950195.154,-0.106,-0.028,-0.019,0.30235778832899374,-6.4672375861540825,-6.830155475570532
1621786950196.463,-0.1041423196871442,-0.028796148705509627,-0.018469234196326914,0.304,-6.472,-6.835
1621786950200.086,-0.099,-0.031,-0.017,0.3085469865490088,-6.472,-6.848413610319576
1621786950205.018,-0.099,-0.03,-0.019,0.3147368937095934,-6.472,-6.866673836443301
1621786950209.949,-0.089,-0.024,-0.023,0.32092526886662376,-6.472,-6.88492954315654
1621786950212.399,-0.08800628806258355,-0.02151572015645888,-0.023,0.324,-6.472,-6.894
1621786950214.88,-0.087,-0.019,-0.023,0.33007346676065835,-6.475114598338799,-6.897114598338799
1621786950219.811,-0.079,-0.023,-0.026,0.3421450945535906,-6.481305176694149,-6.903305176694149
1621786950224.741,-0.073,-0.024,-0.023,0.3542137340239679,-6.487494222576394,-6.909494222576393
1621786950228.33,-0.07227197543703263,-0.024,-0.023728024562967364,0.363,-6.492,-6.914
1621786950229.671,-0.072,-0.024,-0.024,0.3662834301657137,-6.493683810341391,-6.910632379317216
1621786950234.6,-0.073,-0.019,-0.023,0.3783541612374105,-6.499873928839698,-6.8982521423206045
1621786950239.531,-0.063,-0.017,-0.023,0.39042907730749776,-6.506066193491024,-6.88586761301795
1621786950244.256,-0.06491766162992321,-0.023711815704731236,-0.02108233837007679,0.402,-6.512,-6.874
1621786950244.459,-0.065,-0.024,-0.021,0.4021273992763844,-6.51224205862513,-6.873261084196971
1621786950249.387,-0.056,-0.017,-0.019,0.4052219292328448,-6.518121665542405,-6.8553128104495
1621786950254.315,-0.051,-0.021,-0.019,0.4083164591893052,-6.52400127245968,-6.8373645367020295
1621786950259.243,-0.052,-0.023,-0.014,0.4114109891457656,-6.529880879376955,-6.819416262954559
1621786950260.181,-0.05047728511270745,-0.02395169680455784,-0.014380678721823137,0.412,-6.531,-6.816
1621786950264.171,-0.044,-0.028,-0.016,0.412,-6.531,-6.8305371367226435
1621786950269.097,-0.042,-0.037,-0.014,0.412,-6.531,-6.848484625412161
1621786950274.024,-0.04,-0.035,-0.009,0.412,-6.531,-6.8664356721110344
1621786950276.1,-0.04084277290520787,-0.03584277290520787,-0.009,0.412,-6.531,-6.874
1621786950278.951,-0.042,-0.037,-0.009,0.4102090490797546,-6.531,-6.8775819018404905
1621786950283.876,-0.033,-0.04,-0.005,0.4071150306748466,-6.531,-6.883769938650307
1621786950288.802,-0.026,-0.052,-0.005,0.40402039877300616,-6.531,-6.889959202453988
1621786950292.018,-0.02469399692658504,-0.05918301690378228,-0.0017349923164625986,0.402,-6.531,-6.894
1621786950293.727,-0.024,-0.063,0.0,0.39781179141800777,-6.532073899636408,-6.907745915346026
1621786950298.651,-0.024,-0.068,-0.003,0.38574496417777643,-6.535167957903134,-6.947349861160118
1621786950303.576,-0.014,-0.08,0.0,0.37367514535998647,-6.538262783241029,-6.986963625485172
1621786950307.932,-0.006038375725122712,-0.08796162427487728,-0.002653874758292429,0.363,-6.541,-7.022
1621786950308.5,-0.005,-0.089,-0.003,0.36089311583082684,-6.538536016819103,-7.026178058437174
1621786950313.424,0.005,-0.106,0.0,0.34263194401816954,-6.517179731139894,-7.062390890675833
1621786950318.347,0.012,-0.124,-0.007,0.3243752992449819,-6.495828739794979,-7.098594745565036
1621786950323.27,0.028,-0.134,-0.003,0.3061177490639003,-6.474476689583206,-7.13480039592413
1621786950323.841,0.029043937515497147,-0.13631986114554923,-0.0036959583436647655,0.304,-6.472,-7.139
1621786950328.193,0.037,-0.154,-0.009,0.27171395680803057,-6.450658378229037,-7.139
1621786950333.115,0.049,-0.169,-0.007,0.23520062623750979,-6.426522447851913,-7.139
1621786950338.036,0.056,-0.182,-0.005,0.19869454037543552,-6.402391306349864,-7.139
1621786950339.747,0.056,-0.1872158059235005,-0.0056954407898000695,0.186,-6.394,-7.139
1621786950342.957,0.056,-0.197,-0.007,0.1464328573621987,-6.366343374788884,-7.119216428681099
1621786950347.879,0.066,-0.216,-0.007,0.08576404114847229,-6.323937110394596,-7.088882020574236
1621786950352.8,0.058,-0.222,-0.016,0.025104253032396745,-6.281537156456318,-7.058552126516199
1621786950355.648,0.058,-0.22778965654159222,-0.013684137383363113,-0.01,-6.257,-7.041
1621786950357.719,0.058,-0.232,-0.012,-0.04061749347258486,-6.237847780678851,-7.041
1621786950362.64,0.052,-0.241,-0.016,-0.11336607279987712,-6.19234122254646,-7.041
1621786950367.56,0.051,-0.253,-0.019,-0.18610382429734296,-6.146841437567194,-7.041
1621786950371.544,0.04938018661901926,-0.2675783204288267,-0.0303386936668652,-0.245,-6.11,-7.041
1621786950372.479,0.049,-0.271,-0.033,-0.2530598138306043,-6.105352370126878,-7.046765414272987
1621786950377.397,0.052,-0.276,-0.044,-0.2954506466775214,-6.0809080212589475,-7.077088783754724
1621786950382.315,0.056,-0.286,-0.058,-0.33784147952443855,-6.0564636723910175,-7.10741215323646
1621786950387.234,0.058,-0.291,-0.072,-0.38024072993149216,-6.032014469601548,-7.137741544038586
1621786950387.438,0.058290493919086625,-0.2915394887068751,-0.0727054852320675,-0.382,-6.031,-7.139
1621786950392.152,0.065,-0.304,-0.089,-0.4840557117615426,-5.990355719443804,-7.156503741261428
1621786950397.069,0.077,-0.321,-0.099,-0.5905035876161941,-5.94796223400169,-7.1747607897364984
1621786950401.985,0.087,-0.344,-0.127,-0.6969303218867635,-5.905577168318353,-7.1930142121840674
1621786950403.328,0.08809235352532274,-0.34973485600794435,-0.13328103277060577,-0.726,-5.894,-7.198
1621786950406.902,0.091,-0.365,-0.15,-0.7590712727049205,-5.885225988874205,-7.184726495989182
1621786950411.819,0.103,-0.382,-0.168,-0.8045668623413345,-5.873155730399238,-7.166466361373206
1621786950416.734,0.113,-0.4,-0.19,-0.850042121277315,-5.86109086578357,-7.14821438669822
1621786950419.215,0.10946697457290425,-0.40504717918156535,-0.1925235895907827,-0.873,-5.855,-7.139
1621786950421.65,0.106,-0.41,-0.195,-0.878978189698898,-5.870022117704924,-7.1120215028972815
1621786950426.564,0.096,-0.429,-0.204,-0.8910436667127772,-5.9003404958423635,-7.057572170732082
1621786950431.479,0.087,-0.449,-0.208,-0.9031115414764606,-5.930664899094696,-7.003112017952383
1621786950435.099,0.06784999006556726,-0.4615211603417445,-0.21020961653089607,-0.912,-5.953,-6.963
1621786950436.394,0.061,-0.466,-0.211,-0.9103690036900369,-5.9841520295202955,-6.960553505535056
1621786950441.308,0.035,-0.478,-0.216,-0.904179581795818,-6.102369987699877,-6.951269372693727
1621786950446.221,0.019,-0.492,-0.215,-0.8979916974169742,-6.220558579335793,-6.941987546125461
1621786950450.978,0.0025430743243243237,-0.4987763811605723,-0.215,-0.892,-6.335,-6.933
1621786950451.135,0.002,-0.499,-0.215,-0.8891919670316152,-6.339755858654201,-6.934651202484931
1621786950456.048,-0.002,-0.524,-0.213,-0.8013088325747324,-6.488600181449133,-6.98632896112683
1621786950460.96,0.0,-0.534,-0.213,-0.7134475335219584,-6.637407522450486,-7.037993879936031
1621786950465.872,0.012,-0.541,-0.208,-0.6255818673883626,-6.786222259810555,-7.0896613667117725
1621786950466.855,0.014401312192454893,-0.541,-0.2075997813012575,-0.608,-6.816,-7.1
1621786950470.784,0.024,-0.541,-0.206,-0.4646749676982711,-6.905609087553067,-7.049006983326155
1621786950475.696,0.045,-0.524,-0.194,-0.2854852796406817,-7.017641327754876,-6.985253830062142
1621786950480.606,0.066,-0.504,-0.182,-0.1063757460161201,-7.129623454131545,-6.921529194610226
1621786950482.727,0.08111632531318354,-0.4957939948299861,-0.1772491549015709,-0.029,-7.178,-6.894
1621786950485.517,0.101,-0.485,-0.171,0.10023424878836834,-7.214220755442726,-6.768106500500038
1621786950490.427,0.131,-0.454,-0.161,0.32766074313408716,-7.277962058619894,-6.546559058389107
1621786950495.338,0.133,-0.429,-0.15,0.5551324717285945,-7.341716039695362,-6.324967551350104
1621786950498.595,0.12371145812611896,-0.4104229162522379,-0.12810557986870896,0.706,-7.384,-6.178
1621786950500.247,0.119,-0.401,-0.117,0.7580770805436271,-7.390145095504148,-6.102384079050653
1621786950505.156,0.105,-0.375,-0.079,0.912815348386203,-7.408404211109572,-5.877704114143233
1621786950510.064,0.082,-0.342,-0.037,1.0675228332640716,-7.42665969432516,-5.653068846100568
1621786950514.457,0.06500089498806683,-0.3088964797136038,-0.0012124105011933131,1.206,-7.443,-5.452
1621786950514.974,0.063,-0.305,0.003,1.1964127482678983,-7.438206374133949,-5.440814872979215
1621786950519.881,0.03,-0.265,0.044,1.105433441108545,-7.392716720554272,-5.33467234795997
1621786950524.789,0.003,-0.225,0.08,1.014436027713626,-7.347218013856813,-5.22850869899923
1621786950529.696,-0.023,-0.178,0.11,0.9234567205542725,-7.301728360277137,-5.122366173979985
1621786950530.314,-0.026903726553559878,-0.17208144683815113,0.11554077317279467,0.912,-7.296,-5.109
1621786950534.603,-0.054,-0.131,0.154,0.8776420585789523,-7.253526009424374,-5.175281068095722
1621786950539.51,-0.099,-0.087,0.187,0.8383342110936586,-7.204932843635468,-5.251111167575226
1621786950544.416,-0.141,-0.045,0.237,0.7990341864547723,-7.156349348609443,-5.3269261757368565
1621786950546.168,-0.15742677282906195,-0.0364295098283155,0.2519983578004479,0.785,-7.139,-5.354
1621786950549.322,-0.187,-0.021,0.279,0.6287715284838402,-7.103972979634594,-5.488734618110115
1621786950554.227,-0.225,-0.003,0.314,0.38581261361185565,-7.0495006624148875,-5.698267338324553
1621786950559.132,-0.264,0.007,0.347,0.1428536987398712,-6.995028345195181,-5.90780005853899
1621786950562.016,-0.2810512667363496,0.005824050569906924,0.36346329202130306,0.0,-6.963,-6.031
1621786950564.037,-0.293,0.005,0.375,-0.1137729156715613,-6.956750142524768,-6.1285743054806545
1621786950568.941,-0.311,0.009,0.4,-0.3898351026948737,-6.941585291443891,-6.365331674396388
1621786950573.845,-0.309,0.009,0.414,-0.6659110337282939,-6.926419685366943,-6.6021008304956785
1621786950577.861,-0.29753487330114003,-0.004103001941554241,0.4238272514561657,-0.892,-6.914,-6.796
1621786950578.749,-0.295,-0.007,0.426,-0.9266364939207619,-6.906265637279829,-6.809731296133636
1621786950583.652,-0.264,-0.002,0.426,-1.1178943183394203,-6.863557579399935,-6.885553572804463
1621786950588.555,-0.227,-0.007,0.422,-1.30914261938884,-6.820851648097637,-6.961372074029557
1621786950593.457,-0.188,-0.016,0.415,-1.500362350330544,-6.778152096528131,-7.037179248917449
1621786950593.704,-0.18608466978782748,-0.016,0.41464717601354717,-1.51,-6.776,-7.041
1621786950598.359,-0.15,-0.016,0.408,-1.5590816068565791,-6.681069706498952,-6.946069706498952
1621786950603.261,-0.12,-0.026,0.4,-1.610770979775558,-6.581095649895178,-6.846095649895179
1621786950608.163,-0.103,-0.024,0.386,-1.662460352694537,-6.481121593291405,-6.746121593291405
1621786950609.542,-0.103,-0.02906547085201794,0.3848743398106627,-1.677,-6.453,-6.718
1621786950613.063,-0.103,-0.042,0.382,-1.6683281221091582,-6.4005240209682395,-6.5979278445883445
1621786950617.964,-0.099,-0.044,0.372,-1.6562571230342276,-6.327479000925069,-6.430790934320074
1621786950622.865,-0.11,-0.044,0.361,-1.644186725254394,-6.254437619488128,-6.263662349676226
1621786950625.377,-0.11820412638293631,-0.047589305292534634,0.35484690521279777,-1.638,-6.217,-6.178
1621786950627.764,-0.126,-0.051,0.349,-1.6187028927403935,-6.217,-6.138048957626596
1621786950632.664,-0.141,-0.056,0.337,-1.5790882625053968,-6.217,-6.056034293468205
1621786950637.562,-0.164,-0.056,0.326,-1.539491395793499,-6.217,-5.974056405353728
1621786950641.21,-0.17814539113104136,-0.04781056302939711,0.31334359740906825,-1.51,-6.217,-5.913
1621786950642.462,-0.183,-0.045,0.309,-1.4975825775803566,-6.221666419890184,-5.9145818372509105
1621786950647.36,-0.206,-0.04,0.298,-1.4490001388117713,-6.2399235147140475,-5.920770682953915
1621786950652.258,-0.225,-0.037,0.286,-1.4004201215374175,-6.258179699549633,-5.926959220186316
1621786950657.039,-0.24061798424882863,-0.024310387797826738,0.2713581397667232,-1.353,-6.276,-5.933
1621786950657.156,-0.241,-0.024,0.271,-1.3521353924003765,-6.277019793579043,-5.9335764050664155
1621786950662.052,-0.251,-0.024,0.255,-1.3159373948996436,-6.319714867554266,-5.957708403400238
1621786950666.95,-0.258,-0.007,0.236,-1.2797249571884786,-6.362426973572563,-5.9818500285410146
1621786950671.846,-0.265,0.002,0.222,-1.2435269596877458,-6.405122047547787,-6.005982026874836
1621786950672.864,-0.26645556996110503,0.005534955619826469,0.21908886007778997,-1.236,-6.414,-6.011
1621786950676.742,-0.272,0.019,0.208,-1.1999662957761694,-6.450033704223831,-5.996782620102162
1621786950681.638,-0.281,0.033,0.197,-1.154472723344496,-6.495527276655504,-5.978832775197148
1621786950686.534,-0.281,0.044,0.194,-1.1089791509128226,-6.541020849087177,-5.960882930292135
1621786950688.684,-0.281,0.045317755610972565,0.19092523690773067,-1.089,-6.561,-5.953
1621786950691.429,-0.281,0.047,0.187,-1.061750764148322,-6.581306755379913,-5.96306659668406
1621786950696.323,-0.283,0.068,0.178,-1.0131660285899533,-6.6175132143629005,-5.981015097718362
1621786950701.218,-0.283,0.087,0.178,-0.9645715983821668,-6.653726898020933,-5.998967180215505
1621786950704.499,-0.28367054186208956,0.09772866979343378,0.17665891627582075,-0.932,-6.678,-6.011
1621786950706.111,-0.284,0.103,0.176,-0.9129315100225469,-6.6940093739382895,-6.023032523087377
1621786950711.006,-0.288,0.122,0.176,-0.8550300676406091,-6.7426218148685795,-6.059569262130525
1621786950715.898,-0.291,0.129,0.182,-0.7971661673410138,-6.791202736510486,-6.096082311517435
1621786950720.308,-0.291,0.13981568705717992,0.19371699431194492,-0.745,-6.835,-6.129
1621786950720.791,-0.291,0.141,0.195,-0.7438085993606078,-6.840101638635345,-6.135904013961605
1621786950725.684,-0.29,0.155,0.197,-0.7317367835796692,-6.8917937728768015,-6.205858638743456
1621786950730.576,-0.29,0.168,0.208,-0.7196679794282537,-6.943473011166195,-6.275795811518325
1621786950735.468,-0.286,0.19,0.215,-0.7075985729509335,-6.995154828646002,-6.34573647469459
1621786950736.116,-0.28321789048070684,0.19119233265112565,0.21605985124544502,-0.706,-7.002,-6.355
1621786950740.359,-0.265,0.199,0.223,-0.7403686674391656,-7.044155318655852,-6.404941969872538
1621786950745.25,-0.244,0.208,0.234,-0.7799878563151795,-7.092750730011588,-6.462513603707996
1621786950750.141,-0.222,0.211,0.232,-0.8196070451911934,-7.141346141367323,-6.520085237543453
1621786950751.918,-0.21218892605721704,0.21354361176294373,0.23527035798092766,-0.834,-7.159,-6.541
1621786950755.031,-0.195,0.218,0.241,-0.8686767619018186,-7.178308651513513,-6.55262459631936
1621786950759.92,-0.171,0.227,0.246,-0.9231354049167916,-7.208632214101395,-6.570880618693697
1621786950764.81,-0.147,0.225,0.248,-0.9776076455954386,-7.238963348115641,-6.589141199375743
1621786950767.718,-0.1321298377028714,0.2220259675405743,0.248,-1.01,-7.257,-6.6
1621786950769.699,-0.122,0.22,0.248,-1.0148912761221713,-7.261891276122171,-6.5951087238778285
1621786950774.588,-0.106,0.234,0.248,-1.0269627333992828,-7.273962733399283,-6.583037266600717
1621786950779.476,-0.094,0.234,0.257,-1.0390323822183751,-7.286032382218376,-6.5709676177816245
1621786950783.513,-0.0873929374157135,0.23565176564607163,0.2578258828230358,-1.049,-7.296,-6.561
1621786950784.364,-0.086,0.236,0.258,-1.0564381223328592,-7.300743150473128,-6.556202950089678
1621786950789.252,-0.07,0.229,0.26,-1.0991571834992888,-7.327984290927083,-6.528652251221473
1621786950794.139,-0.052,0.222,0.264,-1.1418677098150782,-7.355219988867587,-6.501107056713464
1621786950799.026,-0.033,0.227,0.257,-1.1845782361308679,-7.38245568680809,-6.473561862205456
1621786950799.303,-0.032035924852603176,0.227,0.25705671030278804,-1.187,-7.384,-6.472
1621786950803.912,-0.016,0.227,0.258,-1.2299121258040575,-7.389838384463137,-6.443391916130628
1621786950808.799,-0.005,0.218,0.258,-1.2754109351806038,-7.396028698664028,-6.413059376546264
1621786950813.685,0.009,0.229,0.257,-1.3209006525235032,-7.402217775853538,-6.3827328983176645
1621786950815.092,0.010440101954120646,0.22928802039082413,0.2552718776550552,-1.334,-7.404,-6.374
1621786950818.57,0.014,0.23,0.251,-1.3641864047637462,-7.388796628257675,-6.356813579769546
1621786950823.455,0.017,0.23,0.248,-1.4065842548913465,-7.367442966514577,-6.332674657799087
1621786950828.339,0.021,0.243,0.246,-1.4489736292630115,-7.346093573582863,-6.3085405614414976
1621786950830.877,0.019960967564595932,0.24559758108851015,0.24807806487080813,-1.471,-7.335,-6.296
1621786950833.224,0.019,0.248,0.25,-1.4855759061866676,-7.329199384272653,-6.304775290459321
1621786950838.108,0.014,0.26,0.246,-1.5159042219093737,-7.317129952505454,-6.323034174414827
1621786950842.991,0.009,0.272,0.246,-1.5462279892943889,-7.305062330791008,-6.341290320085398
1621786950846.658,0.012754061484628843,0.27875731067233195,0.23849187703074232,-1.569,-7.296,-6.355
1621786950847.875,0.014,0.281,0.236,-1.5584325127268788,-7.292991737199623,-6.358008262800378
1621786950852.758,0.017,0.305,0.236,-1.5160332523558264,-7.280921874758228,-6.370078125241772
1621786950857.64,0.024,0.321,0.237,-1.4736445912699025,-7.268855029631578,-6.382144970368422
1621786950862.436,0.029894384157623643,0.3435951392708906,0.237,-1.432,-7.257,-6.394
1621786950862.522,0.03,0.344,0.237,-1.4305561712534438,-7.256144599572795,-6.393569575581216
1621786950867.403,0.035,0.358,0.239,-1.3485491595207875,-7.207559313376466,-6.369122202272235
1621786950872.285,0.045,0.382,0.236,-1.2665298424294957,-7.158966736835588,-6.344671160573322
1621786950877.166,0.051,0.412,0.246,-1.1845228306968394,-7.1103814506392595,-6.320223787264341
1621786950878.209,0.05313728236942165,0.4169157494496698,0.248564738843306,-1.167,-7.1,-6.315
1621786950882.046,0.061,0.435,0.258,-1.0859796575533331,-7.071290088862742,-6.281667306560982
1621786950886.927,0.066,0.469,0.267,-0.9829101928971731,-7.03476697526086,-6.239263352633372
1621786950891.807,0.063,0.494,0.286,-0.8798665046289129,-6.998252995634269,-6.1968700034058894
1621786950893.979,0.062109632224168126,0.501122942206655,0.29534886164623464,-0.834,-6.982,-6.178
1621786950896.686,0.061,0.51,0.307,-0.8053239899029005,-6.998827838260573,-6.20152463103774
1621786950901.565,0.049,0.545,0.339,-0.7536409644898022,-7.029156799281433,-6.243923280628127
1621786950906.443,0.019,0.567,0.372,-0.7019656977374444,-7.059481207315751,-6.286315565329162
1621786950909.744,5.6845476381104515e-05,0.5703827061649319,0.3929727782225781,-0.667,-7.08,-6.315
1621786950911.322,-0.009,0.572,0.403,-0.6807165515318608,-7.091814256063938,-6.433843406338094
1621786950916.2,-0.033,0.572,0.435,-0.7231139369907996,-7.12833171215266,-6.801184256993278
1621786950921.077,-0.054,0.578,0.449,-0.7655028344846815,-7.164841857439361,-7.1684515659366195
1621786950925.506,-0.058540721830104614,0.578,0.4562651549281674,-0.804,-7.198,-7.502
1621786950925.954,-0.059,0.578,0.457,-0.8277108019335647,-7.200786161378285,-7.542427770203272
1621786950930.832,-0.049,0.565,0.457,-1.0858807325235498,-7.231122676003967,-7.982616788547348
1621786950935.708,-0.021,0.545,0.438,-1.3439472917699553,-7.2614470438770455,-8.422629555032225
1621786950940.584,0.026,0.517,0.407,-1.6020138510163608,-7.291771411750124,-8.862642321517104
1621786950941.264,0.036040056078509915,0.5111433006208692,0.40184052673743237,-1.638,-7.296,-8.924
1621786950945.46,0.098,0.475,0.37,-1.8729166111360782,-7.3013269072819975,-9.133081110818392
1621786950950.336,0.192,0.44,0.33,-2.145899363077066,-7.307516992360024,-9.376041950130949
1621786950955.211,0.283,0.394,0.288,-2.4188274419253357,-7.313705837685382,-9.618954129151234
1621786950957.018,0.3145152274093368,0.3791693047485474,0.2713154678421158,-2.52,-7.316,-9.709
1621786950960.085,0.368,0.354,0.243,-2.4952701202876986,-7.15165339781746,-9.659345517113096
1621786950964.96,0.447,0.323,0.199,-2.4559605964781746,-6.890415302579365,-9.580416945684524
1621786950969.834,0.499,0.293,0.155,-2.416658947172619,-6.629229538690477,-9.501504185267857
1621786950972.768,0.524288376753507,0.2719263527054108,0.13332424849699398,-2.393,-6.472,-9.454
1621786950974.707,0.541,0.258,0.119,-2.2058251802465305,-6.358586836188852,-9.298226219086752
1621786950979.58,0.548,0.232,0.091,-1.7354135204279402,-6.073554508101403,-8.906732304829832
1621786950984.452,0.559,0.22,0.084,-1.2651196992014884,-5.788593580897745,-8.515336460190714
1621786950988.514,0.5514963920625376,0.22250120264582082,0.09150360793746241,-0.873,-5.551,-8.189
1621786950989.324,0.55,0.223,0.093,-0.769034250081437,-5.511626832332822,-8.113290288054353
1621786950994.197,0.524,0.241,0.098,-0.1436103898118417,-5.274770766438643,-7.6578454868382275
1621786950999.069,0.492,0.264,0.131,0.48168813501481367,-5.037962166689934,-7.202491957125351
1621786951003.94,0.456,0.295,0.173,1.1068299905377945,-4.801212899623063,-6.747252516791537
1621786951004.253,0.45336610543195033,0.29647755061134495,0.17556965323712165,1.147,-4.786,-6.718
1621786951008.812,0.415,0.318,0.213,1.4112588173227614,-4.635326112930004,-6.467939298958835
1621786951013.682,0.363,0.36,0.251,1.693532065107763,-4.474380840070135,-6.200832048039475
1621786951018.552,0.304,0.398,0.293,1.9758194640557358,-4.313427498564712,-5.93371140627182
1621786951019.987,0.2839576793862508,0.41096856039713187,0.30331590031590033,2.059,-4.266,-5.855
1621786951023.421,0.236,0.442,0.328,2.1447861532731167,-4.332358754694726,-5.827059471707484
1621786951028.292,0.155,0.49,0.372,2.2664786758543625,-4.426492410838998,-5.787424248067791
1621786951033.16,0.084,0.546,0.408,2.3880919079988825,-4.5205647329049885,-5.747814849303163
1621786951035.718,0.050901624548736465,0.5754207781789009,0.42743872843963093,2.452,-4.57,-5.727
1621786951038.029,0.021,0.602,0.445,2.3870496445092986,-4.649204166537303,-5.8726239870843555
1621786951042.897,-0.017,0.642,0.466,2.2502394672296564,-4.816038296749356,-6.17936354745568
1621786951047.765,-0.052,0.672,0.471,2.113429289950014,-4.982872426961408,-6.486103107827005
1621786951051.445,-0.06936983967935872,0.6840833667334669,0.46495831663326653,2.01,-5.109,-6.718
1621786951052.638,-0.075,0.688,0.463,1.9386341307718027,-5.18185111104356,-6.779117700702192
1621786951057.617,-0.096,0.7,0.436,1.6407553880293033,-5.485929203270815,-7.0342209319998785
1621786951062.596,-0.101,0.693,0.41,1.3428766452868042,-5.79000729549807,-7.289324163297565
1621786951067.508,-0.10494703285924473,0.693,0.37250318783717506,1.049,-6.09,-7.541
1621786951067.574,-0.105,0.693,0.372,1.0444177545691906,-6.094221567794037,-7.5420861315198255
1621786951072.554,-0.087,0.691,0.326,0.6982375979112271,-6.413153196915417,-7.624141356487947
1621786951077.533,-0.061,0.684,0.272,0.3521253263707571,-6.732022284291699,-7.706180490618738
1621786951082.511,-0.03,0.668,0.213,0.006080939947780584,-7.050828829922885,-7.788203533912199
1621786951083.591,-0.023492203589290966,0.6643122487005982,0.1986828478964401,-0.069,-7.12,-7.806
1621786951087.49,0.0,0.651,0.147,-0.25443273025317226,-7.207747252747253,-7.760914394997268
1621786951092.47,0.04,0.623,0.082,-0.4912803715621395,-7.319824175824176,-7.703327909659402
1621786951097.448,0.082,0.592,0.016,-0.7280351223362271,-7.431857142857143,-7.645764009471192
1621786951099.676,0.09229214474845543,0.5826028243601059,-0.009954104148278908,-0.834,-7.482,-7.62
1621786951102.427,0.105,0.571,-0.042,-0.880858790675085,-7.450190747935891,-7.568010684798446
1621786951107.406,0.099,0.543,-0.098,-0.9656687105390966,-7.392619050509957,-7.47391500728509
1621786951112.385,0.105,0.522,-0.148,-1.0504786304031084,-7.335047353084022,-7.379819329771734
1621786951115.762,0.11042590958124938,0.5111481808375012,-0.17987721878984014,-1.108,-7.296,-7.316
1621786951117.364,0.113,0.506,-0.195,-1.1382781859024953,-7.220802531722422,-7.330641096472588
1621786951122.343,0.113,0.482,-0.251,-1.2323795762248801,-6.9870967761520255,-7.376144071398215
1621786951127.321,0.131,0.459,-0.312,-1.3264625098658247,-6.75343685872139,-7.421638121546962
1621786951131.847,0.131,0.4308267477203647,-0.36834650455927054,-1.412,-6.541,-7.463
1621786951132.301,0.131,0.428,-0.374,-1.4050842426357883,-6.526039382028441,-7.452188836446967
1621786951137.28,0.113,0.398,-0.421,-1.3292563094714158,-6.362003444978981,-7.333649659296132
1621786951142.258,0.099,0.367,-0.461,-1.2534432489035254,-6.197999681301504,-7.215133731959389
1621786951147.237,0.091,0.34,-0.492,-1.177615315739153,-6.033963744252045,-7.096594554808553
1621786951147.934,0.09002024708304736,0.33790052946367294,-0.4964788704774978,-1.167,-6.011,-7.08
1621786951152.217,0.084,0.325,-0.524,-1.0495887361136405,-5.83608117829175,-7.0147715200631335
1621786951157.195,0.08,0.302,-0.553,-0.9131231560735749,-5.632775314150428,-6.938957308929764
1621786951162.174,0.087,0.276,-0.593,-0.7766308049535604,-5.429429566563468,-6.8631282249742
1621786951164.021,0.08662898479646886,0.273402893575282,-0.603388425698872,-0.726,-5.354,-6.835
1621786951167.152,0.086,0.269,-0.621,-0.5811486977725253,-5.284548117342588,-6.688230137478122
1621786951172.131,0.065,0.25,-0.642,-0.3508097147216779,-5.1741074393764865,-6.454840306969647
1621786951177.256,0.031,0.236,-0.649,-0.11371665145780663,-5.0604283812287765,-6.214606938232082
1621786951180.341,0.0009028201219512186,0.22937862042682927,-0.6483980564024391,0.029,-4.992,-6.07
1621786951182.381,-0.019,0.225,-0.648,0.13050284518088276,-4.971428428221835,-6.0132126072471035
1621786951187.506,-0.061,0.218,-0.644,0.3854989828109798,-4.91974838576525,-5.870550933160362
1621786951192.631,-0.094,0.209,-0.635,0.6404951204410768,-4.868068343308665,-5.727889259073621
1621786951196.902,-0.12315666666666666,0.20816695238095237,-0.6233373333333333,0.853,-4.825,-5.609
1621786951197.758,-0.129,0.208,-0.621,0.8935655455001031,-4.8270153583114705,-5.598871532588509
1621786951202.884,-0.169,0.202,-0.606,1.1364960056598767,-4.839084514930873,-5.538216283937152
1621786951208.011,-0.211,0.213,-0.578,1.379472747103735,-4.851155970875217,-5.477549479704035
1621786951213.138,-0.265,0.239,-0.555,1.622449488547593,-4.863227426819562,-5.416882675470919
1621786951213.466,-0.26845517733872887,0.23976781718638418,-0.5534643656272317,1.638,-4.864,-5.413
1621786951218.266,-0.319,0.251,-0.531,1.8054484719889192,-4.8952879497833965,-5.492668390652168
1621786951223.394,-0.377,0.272,-0.503,1.9843349836442403,-4.928713111130758,-5.577778755194059
1621786951228.522,-0.435,0.284,-0.475,2.163221495299561,-4.962138272478119,-5.66288911973595
1621786951230.035,-0.448276756808227,0.2866553513616454,-0.46555875071414965,2.216,-4.972,-5.688
1621786951233.65,-0.48,0.293,-0.443,2.2674806051945375,-5.089576466948541,-5.833498151121849
1621786951238.78,-0.52,0.304,-0.41,2.3405380751042295,-5.256432298649067,-6.039978373281869
1621786951243.909,-0.546,0.309,-0.379,2.413578161139675,-5.423248427348665,-6.246409463898997
1621786951246.607,-0.5544146004854138,0.3116295626516918,-0.3632226240898491,2.452,-5.511,-6.355
1621786951249.039,-0.562,0.314,-0.349,2.443343770250368,-5.590226509572902,-6.464303240058911
1621786951254.169,-0.559,0.314,-0.321,2.425085920471281,-5.757332253313697,-6.6948472754050075
1621786951259.301,-0.552,0.309,-0.298,2.406820250368188,-5.924509572901326,-6.925490058910162
1621786951263.184,-0.529291547687036,0.30067356748524654,-0.28286103179135735,2.393,-6.051,-7.1
1621786951264.431,-0.522,0.298,-0.278,2.382696198989735,-6.084167709821363,-7.140538312003888
1621786951269.562,-0.494,0.293,-0.258,2.340292638027775,-6.220663844012783,-7.307366920460068
1621786951274.694,-0.454,0.272,-0.239,2.2978810067301882,-6.35718595643786,-7.474227280090718
1621786951279.762,-0.40858200152206997,0.2670632610350076,-0.22912652207001524,2.256,-6.492,-7.639
1621786951279.827,-0.408,0.267,-0.229,2.2548840310899134,-6.4928066301595715,-7.6399632573750225
1621786951284.959,-0.356,0.246,-0.218,2.166693119590178,-6.5565516398751695,-7.716085938880057
1621786951290.092,-0.295,0.229,-0.213,2.0784854266030734,-6.620308779367603,-7.792223105458399
1621786951295.225,-0.239,0.213,-0.204,1.990277733615969,-6.684065918860037,-7.8683602720367425
1621786951296.347,-0.22523662815575524,0.210378405363001,-0.20334460134075025,1.971,-6.698,-7.885
1621786951300.36,-0.176,0.201,-0.201,1.923587111680132,-6.707434197165688,-7.8254919871087365
1621786951305.494,-0.119,0.188,-0.197,1.8629350727708858,-6.719502715111916,-7.749367489294071
1621786951310.628,-0.068,0.171,-0.188,1.802280149515106,-6.731571806984239,-7.673239371330184
1621786951312.937,-0.045965958256073795,0.16695293110825846,-0.18350325678695384,1.775,-6.737,-7.639
1621786951315.763,-0.019,0.162,-0.178,1.7365126013329606,-6.733764333740382,-7.543803292677544
1621786951320.898,0.024,0.133,-0.169,1.6665769247745295,-6.727884785711133,-7.370820800659124
1621786951326.034,0.051,0.119,-0.154,1.5966279480351335,-6.722004119525078,-7.1978054112904415
1621786951329.531,0.06529880686409659,0.10333940200598944,-0.14787193991538716,1.549,-6.718,-7.08
1621786951331.17,0.072,0.096,-0.145,1.5199663268458448,-6.718,-7.040300895891257
1621786951336.307,0.089,0.072,-0.131,1.4289641643497064,-6.718,-6.9158693675802105
1621786951341.444,0.098,0.056,-0.113,1.3379576768612913,-6.718,-6.791431925504215
1621786951346.127,0.10711601159640702,0.025917161731856854,-0.09750278028610808,1.255,-6.718,-6.678
1621786951346.581,0.108,0.023,-0.096,1.2429362884960438,-6.720133717680972,-6.675319175221343
1621786951351.719,0.117,-0.005,-0.084,1.106441230108539,-6.744275700797129,-6.64498694002412
1621786951356.857,0.133,-0.033,-0.08,0.9699461717210341,-6.768417683913286,-6.614654704826896
1621786951361.995,0.154,-0.049,-0.077,0.8334446274671294,-6.792560814189487,-6.584321028326029
1621786951362.727,0.158416155856498,-0.05241895937277263,-0.07799719648372536,0.814,-6.796,-6.58
1621786951367.133,0.185,-0.073,-0.084,0.7800341714453757,-6.811656124099398,-6.58530716071166
1621786951372.272,0.22,-0.077,-0.089,0.7404183502426114,-6.829916541685047,-6.591497132774592
1621786951377.412,0.251,-0.089,-0.094,0.7007931186590208,-6.848181296868108,-6.597688575209528
1621786951379.331,0.2622003039946801,-0.08974668693297867,-0.094,0.686,-6.855,-6.6
1621786951382.552,0.281,-0.091,-0.094,0.7373912244597972,-6.858684653829194,-6.556172012347494
1621786951387.692,0.305,-0.093,-0.096,0.8193998236072321,-6.864564515654858,-6.486232603263266
1621786951392.834,0.335,-0.087,-0.094,0.9014434808172864,-6.870446891077465,-6.41626329560488
1621786951395.94,0.3519191602545835,-0.08397872138311009,-0.09339574427662202,0.951,-6.874,-6.374
1621786951397.974,0.363,-0.082,-0.093,0.9846723147236468,-6.840450130057166,-6.336776786632768
1621786951403.116,0.387,-0.082,-0.08,1.0697866474642526,-6.755645303981072,-6.242686760621335
1621786951408.257,0.403,-0.084,-0.068,1.154888856231722,-6.670852557790938,-6.148610137111114
1621786951412.553,0.4071773894876786,-0.08650643369260719,-0.0537968757418926,1.226,-6.6,-6.07
1621786951413.399,0.408,-0.087,-0.051,1.2274763527907968,-6.570014765731748,-6.055032837224337
1621786951418.543,0.41,-0.093,-0.038,1.2364537707711971,-6.387680310888442,-5.96402039287131
1621786951423.685,0.403,-0.103,-0.023,1.2454277801448657,-6.205415086023243,-5.873042504738257
1621786951428.829,0.374,-0.113,-0.01,1.2544051981252662,-6.023080631179936,-5.782030060385231
1621786951429.17,0.37121714367079595,-0.11346380938820068,-0.009337415159713322,1.255,-6.011,-5.776
1621786951433.973,0.332,-0.12,0.0,1.1784187525706562,-5.937597596803572,-5.705198469357776
1621786951439.117,0.276,-0.131,0.007,1.0963993918561608,-5.858982813326282,-5.629369249074563
1621786951444.261,0.22,-0.143,0.021,1.0143800311416653,-5.780368029848992,-5.553540028791351
1621786951445.79,0.2027629306254152,-0.14775505362057512,0.021891572553857836,0.99,-5.757,-5.531
1621786951449.406,0.162,-0.159,0.024,0.8940760882335663,-5.790932268107854,-5.6099577777125065
1621786951454.552,0.101,-0.187,0.033,0.7575637519826117,-5.8392223462374435,-5.7223250748986665
1621786951459.698,0.044,-0.213,0.024,0.6210514157316571,-5.887512424367033,-5.8346923720848265
1621786951462.414,0.019721131037100294,-0.23305645696935193,0.0203053895056457,0.549,-5.913,-5.894
1621786951464.844,-0.002,-0.251,0.017,0.5317570178529482,-6.024787130021142,-6.043049506694856
1621786951469.99,-0.028,-0.29,-0.003,0.49524063307493543,-6.261524709302326,-6.3586996124031
1621786951475.137,-0.042,-0.335,-0.019,0.458717318534179,-6.498307214587738,-6.674409619450317
1621786951479.043,-0.04048221231382222,-0.36687354140973344,-0.04176681529266673,0.431,-6.678,-6.914
1621786951480.284,-0.04,-0.377,-0.049,0.3966760763934763,-6.7292620337340905,-7.04495323028141
1621786951485.432,-0.024,-0.433,-0.08,0.25428885365746245,-6.94191425551592,-7.588191438763377
1621786951490.579,-0.005,-0.478,-0.117,0.11192188899164723,-7.154536222310301,-8.131352358303607
1621786951495.674,0.027648004171802406,-0.5244986726083247,-0.16547733952782784,-0.029,-7.365,-8.669
1621786951495.729,0.028,-0.525,-0.166,-0.030231565045124368,-7.365,-8.675151221659696
1621786951500.877,0.073,-0.557,-0.204,-0.1456483674517573,-7.365,-9.251616376843495
1621786951506.026,0.119,-0.585,-0.241,-0.2610870643480813,-7.365,-9.828190887079023
1621786951511.176,0.18,-0.602,-0.281,-0.37655312935651924,-7.365,-10.404902091129209
1621786951512.311,0.19344405992225278,-0.608171043898739,-0.2924605100976581,-0.402,-7.365,-10.532
1621786951516.326,0.241,-0.63,-0.333,-0.567750429131028,-7.208900250876601,-10.652633500095362
1621786951521.476,0.309,-0.653,-0.386,-0.7803685685362597,-7.008661624682737,-10.807377415237452
1621786951526.627,0.387,-0.696,-0.436,-0.9930169451739264,-6.808394521793987,-10.962143337098928
1621786951528.952,0.42265652400587705,-0.7181160718517465,-0.4675943883596379,-1.089,-6.718,-11.032
1621786951531.778,0.466,-0.745,-0.506,-1.0689646806887851,-6.5746965296723285,-10.825534336589516
1621786951536.93,0.559,-0.801,-0.569,-1.0324421074246823,-6.313467276834169,-10.44916612396961
1621786951542.082,0.644,-0.853,-0.618,-0.9959178033969902,-6.052225644636099,-10.07278007568424
1621786951545.597,0.6883467443844186,-0.8714209553596816,-0.6473370770543077,-0.971,-5.874,-9.816
1621786951547.234,0.709,-0.88,-0.661,-0.9092544174792874,-5.770861280152504,-9.600087103160057
1621786951552.386,0.754,-0.892,-0.686,-0.7149192902705477,-5.4462473495124275,-8.920533059608477
1621786951557.54,0.771,-0.89,-0.7,-0.5205104919715522,-5.1215103599970675,-8.240721401862308
1621786951562.246,0.7463422087459137,-0.8945662576396456,-0.7127855213910077,-0.343,-4.825,-7.62
1621786951562.693,0.744,-0.895,-0.714,-0.3356452927551529,-4.806827967865834,-7.571040197027004
1621786951567.846,0.677,-0.899,-0.716,-0.2508673292872431,-4.5973583282024215,-7.006678863576392
1621786951573.0,0.595,-0.89,-0.71,-0.16606928196557894,-4.387839065294514,-6.4421838332307155
1621786951578.156,0.497,-0.876,-0.702,-0.08123910047790778,-4.178240405195414,-5.877474887852934
1621786951578.9,0.4821365853658537,-0.8715265451101113,-0.6991139000710395,-0.069,-4.148,-5.796
1621786951583.311,0.394,-0.845,-0.682,0.1751657408357395,-4.35588514810852,-5.593411288785965
1621786951588.466,0.29,-0.813,-0.648,0.4605077608571387,-4.598828191185308,-5.356657877379923
1621786951593.621,0.188,-0.764,-0.604,0.7458497808785378,-4.8417712342620955,-5.119904465973881
1621786951595.557,0.1515888368129527,-0.7444806135492118,-0.5803515125692373,0.853,-4.933,-5.031
1621786951598.778,0.091,-0.712,-0.541,1.0861628275013189,-5.156689379286091,-5.142748021804114
1621786951603.934,0.002,-0.66,-0.476,1.4593753296993142,-5.5147381894378995,-5.321617695328527
1621786951609.091,-0.077,-0.609,-0.41,1.8326585194302798,-5.872854815075318,-5.5005212472891385
1621786951612.218,-0.11580660890971925,-0.5750442172039957,-0.36998068456185196,2.059,-6.09,-5.609
1621786951614.248,-0.141,-0.553,-0.344,2.115156094345151,-6.180751171989452,-5.722530325227073
1621786951619.406,-0.185,-0.506,-0.281,2.2578391737474366,-6.411334456489891,-6.0109915616759455
1621786951624.564,-0.209,-0.463,-0.218,2.4005222531497217,-6.641917740990331,-6.299452798124817
1621786951628.883,-0.21067472901973777,-0.43201751313485115,-0.15687239077957116,2.52,-6.835,-6.541
1621786951629.722,-0.211,-0.426,-0.145,2.5269440571729835,-6.880387967898776,-6.558762696971472
