time,gyro_x,gyro_y,gyro_z,acc_x,acc_y,acc_z
1621786099733.928,,,,0.804,-4.001,-7.943
1621786099751.288,,,,1.187,-3.923,-7.924
1621786099767.128,0.422,0.829,1.527,1.3182474713418746,-3.9399639588809228,-8.230244099797707
1621786099769.029,0.4178610975771803,0.8338287194932896,1.5335532621694645,1.334,-3.942,-8.267
1621786099772.64,0.41,0.843,1.546,1.3220756774484483,-3.9618065018652895,-8.336322756528512
1621786099778.164,0.403,0.859,1.564,1.303832834556362,-3.992108173109772,-8.442378605884201
1621786099783.698,0.403,0.869,1.58,1.2855577419751567,-4.022463411634486,-8.548621940720698
1621786099786.895,0.40933972976541527,0.871881695347916,1.593832137669997,1.275,-4.04,-8.61
1621786099789.245,0.414,0.874,1.604,1.2352787528335436,-4.051628917755969,-8.630513933569517
1621786099794.803,0.424,0.887,1.618,1.1413400252473835,-4.079130716292706,-8.679028342224212
1621786099800.373,0.438,0.89,1.63,1.0471949749562244,-4.106692918516105,-8.72764930569695
1621786099804.881,0.44688206227042154,0.89,1.6396895224768233,0.971,-4.129,-8.767
1621786099805.956,0.449,0.89,1.642,0.9389471002183936,-4.1278128555636435,-8.777506228261748
1621786099811.549,0.452,0.89,1.653,0.7721744722154816,-4.121636091563536,-8.832170589662702
1621786099817.154,0.463,0.899,1.653,0.6050451346760495,-4.115446116099113,-8.88695187252285
1621786099822.771,0.466,0.895,1.655,0.437559087600097,-4.109242929170374,-8.941850076842192
1621786099822.991,0.466,0.8953517699115044,1.6550390855457227,0.431,-4.109,-8.944
1621786099828.399,0.466,0.904,1.656,0.1809358143396631,-4.088532112917481,-9.016675830945175
1621786099834.04,0.475,0.913,1.662,-0.07990943300211589,-4.067181790181322,-9.092484947906902
1621786099839.692,0.478,0.902,1.635,-0.34125139941612875,-4.045790810723947,-9.168438425690335
1621786099841.222,0.4817818103448276,0.8949766379310345,1.6274363793103448,-0.412,-4.04,-9.189
1621786099845.356,0.492,0.876,1.607,-0.6372267830065707,-4.049009071320262,-9.142603282700646
1621786099851.031,0.51,0.857,1.571,-0.946409832140672,-4.061376393285627,-9.078911574579022
1621786099856.718,0.522,0.824,1.522,-1.2562446330238621,-4.0737697853209545,-9.015085605597084
1621786099859.577,0.5245457628592548,0.8158535588503848,1.4970515239793034,-1.412,-4.08,-8.983
1621786099862.333,0.527,0.808,1.473,-1.5690868461979208,-4.055820946222477,-8.949734550216911
1621786099867.869,0.531,0.789,1.421,-1.884610297126954,-4.007255081716734,-8.882917819431938
1621786099873.409,0.539,0.757,1.365,-2.2003703036752067,-3.9586528061990123,-8.816050994515837
1621786099877.473,0.5492603795183375,0.7276846299476071,1.3166296394135517,-2.432,-3.923,-8.767
1621786099878.954,0.553,0.717,1.299,-2.487063735695527,-3.943225809963125,-8.695755616333972
1621786099884.503,0.569,0.672,1.241,-2.6933417289191874,-4.0189950878338845,-8.428862200813704
1621786099890.057,0.567,0.616,1.178,-2.8998103169095537,-4.094834374277123,-8.161722183668749
1621786099895.415,0.5592877975929017,0.5774389879645084,1.1124462795396646,-3.099,-4.168,-7.904
1621786099895.615,0.559,0.576,1.11,-3.0996558313766474,-4.165710148074757,-7.900187285386609
1621786099901.177,0.539,0.557,1.054,-3.1178989942860245,-4.10201368096744,-7.794129575591417
1621786099906.744,0.515,0.536,1.004,-3.136158172613635,-4.038261295620191,-7.687978759212259
1621786099912.316,0.48,0.496,0.951,-3.1544341671303897,-3.9744501961210115,-7.581730180919936
1621786099913.403,0.4684990807214148,0.4856686657327964,0.940473734897566,-3.158,-3.962,-7.561
1621786099917.893,0.421,0.443,0.897,-3.2239782446830114,-4.091466744283645,-7.394934003005401
1621786099923.473,0.358,0.403,0.841,-3.3059712185414325,-4.252358617515264,-7.188559234840998
1621786099929.058,0.302,0.368,0.794,-3.388043118036471,-4.413405363694207,-6.981985812338392
1621786099931.437,0.2798661541149747,0.3479944085269963,0.7799535208806571,-3.423,-4.482,-6.894
1621786099934.647,0.25,0.321,0.761,-3.4680979311834927,-4.7257773996651,-6.972299951385513
1621786099940.241,0.202,0.293,0.724,-3.5466900286285314,-5.150607910657376,-7.108753159941663
1621786099945.84,0.155,0.269,0.688,-3.6253541565386485,-5.575827783179387,-7.245331429265921
1621786099949.516,0.11301098039215686,0.27490470588235294,0.6604447058823529,-3.677,-5.855,-7.335
1621786099951.443,0.091,0.278,0.646,-3.68433510666954,-6.017541711561255,-7.467457143626764
1621786099957.05,0.028,0.295,0.597,-3.7056778229716625,-6.490483932227131,-7.852863295981036
1621786099962.661,-0.033,0.332,0.559,-3.727035408361168,-6.96375564324965,-8.23853795388428
1621786099967.643,-0.06138741088506347,0.3781295426882281,0.5306125891149366,-3.746,-7.384,-8.581
1621786099968.277,-0.065,0.384,0.527,-3.7148827456511517,-7.421640714621533,-8.644281053126468
1621786099973.899,-0.049,0.419,0.51,-3.438973228557996,-7.755392249311572,-9.205379555376451
1621786099979.524,0.005,0.44,0.503,-3.1629079454630937,-8.089332204983544,-9.766794828396803
1621786099985.154,0.099,0.436,0.489,-2.8865910403653707,-8.423576533010946,-10.328721808046208
1621786099985.818,0.11055289732587874,0.43210973865557145,0.4871138126814892,-2.854,-8.463,-10.395
1621786099990.787,0.197,0.403,0.473,-2.7443714710650786,-8.43627463722482,-10.050024653973443
1621786099996.427,0.3,0.346,0.461,-2.619941232430694,-8.405940897458228,-9.658471788618975
1621786100002.07,0.384,0.283,0.445,-2.4954409711521714,-8.375590087494809,-9.266698578376857
1621786100004.039,0.4021314310419369,0.2652172503242542,0.44255923043666234,-2.452,-8.365,-9.13
1621786100007.717,0.436,0.232,0.438,-2.489452584305706,-8.187200903537967,-8.602844807998183
1621786100013.369,0.459,0.157,0.424,-2.5470050122298407,-7.913981581726079,-7.792778913883208
1621786100019.026,0.459,0.086,0.415,-2.6046096475399976,-7.640514415173023,-6.9819781867757325
1621786100022.305,0.44973244781783683,0.05240512333965844,0.412103889943074,-2.638,-7.482,-6.512
1621786100024.687,0.443,0.028,0.41,-2.6640246859817918,-7.34271481839337,-6.344034552209354
1621786100030.352,0.431,-0.019,0.415,-2.7259163343902673,-7.011468189921478,-5.944580801001592
1621786100036.022,0.405,-0.049,0.417,-2.7878613284705307,-6.679936053236803,-5.5447827524733615
1621786100040.245,0.3729637003426243,-0.06742087230299101,0.4242081674229095,-2.834,-6.433,-5.247
1621786100041.295,0.365,-0.072,0.426,-2.8178898460360435,-6.393253780731261,-5.221012087401209
1621786100046.821,0.319,-0.082,0.44,-2.733086744879263,-6.184031531161977,-5.084212924221292
1621786100052.347,0.264,-0.08,0.457,-2.6482873902699158,-5.974818524899499,-4.947419804741981
1621786100057.873,0.199,-0.068,0.478,-2.563484289113135,-5.765596275330215,-4.810620641562064
1621786100058.1,0.1959188974291015,-0.06750702358865625,0.47886270871985154,-2.56,-5.757,-4.805
1621786100063.4,0.124,-0.056,0.499,-2.577213026002789,-5.660844475432696,-4.837051841522435
1621786100068.927,0.047,-0.054,0.522,-2.5951642741913434,-5.5605650890000815,-4.87047830366664
1621786100074.455,-0.037,-0.052,0.541,-2.613118694118612,-5.460267984578787,-4.903910671807071
1621786100075.958,-0.058750728734210764,-0.052,0.5453501457468422,-2.618,-5.433,-4.913
1621786100079.983,-0.117,-0.052,0.557,-2.604931430836306,-5.446293889321689,-5.074329233124223
1621786100085.511,-0.187,-0.052,0.567,-2.5869821640903687,-5.464552626183935,-5.295909836401656
1621786100091.04,-0.244,-0.038,0.583,-2.569029726516052,-5.482814588544016,-5.517529583008733
1621786100093.821,-0.25757807602313365,-0.03095951613615293,0.591046267272968,-2.56,-5.492,-5.629
1621786100096.57,-0.271,-0.024,0.599,-2.482907277075504,-5.584018858899897,-5.7376376494704475
1621786100102.1,-0.29,-0.016,0.616,-2.3278249265459516,-5.769127133583874,-5.956176850017082
1621786100107.63,-0.298,0.003,0.63,-2.1727494226170143,-5.954227236077895,-6.174706402459856
1621786100111.686,-0.298,0.019869983665180346,0.6388017306079202,-2.059,-6.09,-6.335
1621786100113.16,-0.298,0.026,0.642,-2.054958562743357,-6.123156281166747,-6.368156281166747
1621786100118.691,-0.29,0.04,0.658,-2.0397922945556393,-6.247581583441492,-6.492581583441492
1621786100124.222,-0.269,0.073,0.668,-2.024626026367921,-6.372006885716237,-6.617006885716237
1621786100129.556,-0.25068003883666534,0.08649891875193079,0.6747494593759654,-2.01,-6.492,-6.737
1621786100129.754,-0.25,0.087,0.675,-2.0109858364291955,-6.492431995738636,-6.73896059604458
1621786100135.286,-0.22,0.115,0.682,-2.038529692963287,-6.5045017755681815,-6.793738827578672
1621786100140.818,-0.182,0.14,0.693,-2.0660747650786715,-6.516572088068181,-6.848519476617133
1621786100146.351,-0.148,0.166,0.703,-2.0936234839379373,-6.528643998579545,-6.903307378168706
1621786100147.431,-0.14089826501940145,0.17112903081932118,0.7041836224967664,-2.099,-6.531,-6.914
1621786100151.825,-0.112,0.192,0.709,-2.1575669579184957,-6.526264799147015,-6.899295955245995
1621786100157.282,-0.07,0.213,0.71,-2.230302186465791,-6.520384078541063,-6.881034770206461
1621786100162.738,-0.03,0.229,0.709,-2.3030243986872896,-6.514504410318899,-6.862776853095532
1621786100165.062,-0.013388177913012347,0.23837077143368535,0.7064443350635403,-2.334,-6.512,-6.855
1621786100168.194,0.009,0.251,0.703,-2.377555631002037,-6.494577747599185,-6.844511092942367
1621786100173.647,0.051,0.269,0.705,-2.4533850033950917,-6.464245998641963,-6.82625014203955
1621786100179.098,0.08,0.272,0.696,-2.5291872150548067,-6.433925113978077,-6.807995731884761
1621786100182.68,0.09642780365460409,0.28119957004657825,0.6907431028305266,-2.579,-6.414,-6.796
1621786100184.549,0.105,0.286,0.688,-2.611279603894483,-6.384799700424399,-6.793876341849048
1621786100189.998,0.122,0.288,0.674,-2.7053820698454967,-6.299674114448975,-6.7876853901417435
1621786100195.447,0.148,0.302,0.648,-2.7994845357965104,-6.214548528473552,-6.78149443843444
1621786100200.283,0.1666474200923477,0.29223230376115117,0.6302405522930022,-2.883,-6.139,-6.776
1621786100200.893,0.169,0.291,0.628,-2.883,-6.139,-6.769201038297636
1621786100206.338,0.185,0.3,0.607,-2.883,-6.139,-6.708524590163934
1621786100211.782,0.201,0.302,0.595,-2.883,-6.139,-6.647856304049083
1621786100217.226,0.202,0.3,0.585,-2.883,-6.139,-6.587188017934232
1621786100217.871,0.20271129857309522,0.29893305214035715,0.5833403033294444,-2.883,-6.139,-6.58
1621786100222.667,0.208,0.291,0.571,-2.83742607282275,-6.139,-6.566628009391106
1621786100228.106,0.216,0.288,0.546,-2.7857412861370046,-6.139,-6.551463012100079
1621786100233.545,0.23,0.279,0.534,-2.7340564994512597,-6.139,-6.536298014809052
1621786100235.445,0.23314478764478766,0.2803976833976834,0.5259633204633205,-2.716,-6.139,-6.531
1621786100238.983,0.239,0.283,0.511,-2.6628109280500523,-6.182518331595412,-6.4874816684045875
1621786100244.419,0.255,0.278,0.492,-2.581083795620438,-6.24938598540146,-6.42061401459854
1621786100249.853,0.257,0.279,0.473,-2.4993860271115746,-6.31622961418144,-6.353770385818561
1621786100253.005,0.2651220509594212,0.2784198535028985,0.46197721655507124,-2.452,-6.355,-6.315
1621786100255.286,0.271,0.278,0.454,-2.4003652458831968,-6.382065545414915,-6.294503761724628
1621786100260.608,0.291,0.283,0.442,-2.279891521705503,-6.445214622210347,-6.24668213075333
1621786100265.998,0.309,0.283,0.438,-2.157875884181069,-6.509171928393638,-6.198248442575691
1621786100270.366,0.3227841377747564,0.28867582143666437,0.4250266938590528,-2.059,-6.561,-6.159
1621786100271.385,0.326,0.29,0.422,-2.0515591926111005,-6.559828219308835,-6.151500603576542
1621786100276.77,0.344,0.298,0.414,-2.0122391426405772,-6.553636085455209,-6.111870946913338
1621786100282.152,0.365,0.307,0.401,-1.9729404845456333,-6.547447320400887,-6.072262850565678
1621786100287.534,0.375,0.314,0.391,-1.9336436091069873,-6.541258836079841,-6.032656550910979
1621786100287.759,0.3754603931181624,0.3148789323164919,0.3905396068818376,-1.932,-6.541,-6.031
1621786100292.912,0.386,0.335,0.38,-1.9379325987970093,-6.508963966496149,-6.013498833548822
1621786100298.289,0.387,0.339,0.372,-1.9441229411434031,-6.475536117825623,-5.99523732362696
1621786100303.663,0.38,0.347,0.365,-1.9503099106189217,-6.442126482657822,-5.976985763674181
1621786100305.131,0.3778141500431681,0.3505520061798518,0.36308738128777207,-1.952,-6.433,-5.972
1621786100309.036,0.372,0.36,0.358,-1.971810993032585,-6.450784868745162,-5.989784868745162
1621786100314.405,0.368,0.384,0.347,-1.999051418115279,-6.47523934126258,-6.014239341262581
1621786100319.773,0.358,0.4,0.342,-2.0262856499401787,-6.499688253923569,-6.03868825392357
1621786100322.476,0.3559846188850967,0.40755767918088737,0.3409923094425484,-2.04,-6.512,-6.051
1621786100325.138,0.354,0.415,0.34,-2.029399199627996,-6.534584313836008,-6.100624036524018
1621786100330.502,0.353,0.443,0.347,-2.0080371722068002,-6.580094720081164,-6.200623092423239
1621786100335.864,0.356,0.475,0.349,-1.986682923048741,-6.625588555243986,-6.300585737032705
1621786100339.802,0.36408337129840546,0.4852879271070615,0.34753029612756264,-1.971,-6.659,-6.374
1621786100341.223,0.367,0.489,0.347,-1.9944038350288544,-6.635596164971146,-6.410296473974574
1621786100346.58,0.386,0.503,0.333,-2.08264272713163,-6.5473572728683695,-6.547144159270808
1621786100351.935,0.407,0.513,0.307,-2.170845427736938,-6.459154572263062,-6.6839357159990405
1621786100357.105,0.438865389876881,0.517828089375285,0.278997081623347,-2.256,-6.374,-6.816
1621786100357.289,0.44,0.518,0.278,-2.257045429464778,-6.369711605664889,-6.819242964870333
1621786100362.639,0.468,0.527,0.258,-2.2874280499709965,-6.245080856241422,-6.913491093787581
1621786100367.988,0.49,0.529,0.237,-2.317806510943535,-6.120467169394887,-7.007726319661578
1621786100373.315,0.504,0.525,0.225,-2.3480587993944626,-5.996371047381899,-7.101570153223639
1621786100374.361,0.5053752235110724,0.5230353949841823,0.2230353949841823,-2.354,-5.972,-7.12
1621786100378.64,0.511,0.515,0.215,-2.4197094327832533,-5.85725739199591,-7.190687420115318
1621786100383.963,0.506,0.49,0.201,-2.501454426676513,-5.714513292811089,-7.278625216576249
1621786100389.282,0.483,0.463,0.188,-2.5831394324992187,-5.5718739455221975,-7.366498480415826
1621786100391.552,0.467633521553505,0.44336505531836756,0.19184161961162374,-2.618,-5.511,-7.404
1621786100394.6,0.447,0.417,0.197,-2.5570984271005175,-5.500524219238865,-7.621683173104272
1621786100399.916,0.379,0.396,0.229,-2.4508853034871154,-5.482254323340349,-8.001325416690369
1621786100405.228,0.319,0.372,0.278,-2.3447502275442287,-5.46399785255134,-8.380688691051823
1621786100408.719,0.28283495815322357,0.3364925043686195,0.3062744872620252,-2.275,-5.452,-8.63
1621786100410.537,0.264,0.318,0.321,-2.3602734212550205,-5.454121229384453,-8.652909277352096
1621786100415.845,0.208,0.218,0.328,-2.609223260318455,-5.460314011450708,-8.719791323667645
1621786100421.151,0.138,0.087,0.3,-2.8580814937192014,-5.4665045147691345,-8.786648759506651
1621786100425.861,0.0962460284569692,-0.040038679375604375,0.25558088133720125,-3.079,-5.472,-8.846
1621786100426.453,0.091,-0.056,0.25,-3.0837717216096316,-5.464220019114731,-8.825287961998773
1621786100431.753,0.089,-0.202,0.182,-3.1265065831704777,-5.39454361439596,-8.639793888991912
1621786100437.05,0.138,-0.304,0.112,-3.169217822347118,-5.324905724434047,-8.45440235082664
1621786100442.346,0.211,-0.368,0.056,-3.211919218863672,-5.255283882287491,-8.269053535512032
1621786100442.976,0.2189778095589592,-0.37276287137848313,0.05135620040597896,-3.217,-5.247,-8.247
1621786100447.638,0.278,-0.408,0.017,-2.9010960912052117,-5.171979641693811,-7.7870570032573285
1621786100452.928,0.314,-0.415,-0.01,-2.5426249785702044,-5.086850491456655,-7.265137922166981
1621786100458.216,0.316,-0.396,-0.031,-2.1842862163552206,-5.001752771586948,-6.74341153780216
1621786100460.065,0.3062062722276107,-0.3862062722276107,-0.037295967853678814,-2.059,-4.972,-6.561
1621786100463.502,0.288,-0.368,-0.049,-1.8555082863439907,-4.875089589833128,-6.309959727509517
1621786100468.784,0.232,-0.325,-0.058,-1.5427832384005495,-4.726158156109569,-5.924162292125827
1621786100474.064,0.162,-0.258,-0.051,-1.2301738271746285,-4.57728179294158,-5.538507513524344
1621786100477.124,0.12075827231439429,-0.21036870887014553,-0.039382611919547686,-1.049,-4.491,-5.315
1621786100479.332,0.091,-0.176,-0.031,-0.9548619996554298,-4.544496353299259,-5.27046298742319
1621786100484.599,0.017,-0.091,-0.012,-0.7303006087405961,-4.672109171308792,-5.164222219031759
1621786100489.862,-0.059,0.003,0.016,-0.5059161689542296,-4.799621432263251,-5.058065166829381
1621786100494.129,-0.12146131352982131,0.07681791598978881,0.0395243908099327,-0.324,-4.903,-4.972
1621786100495.122,-0.136,0.094,0.045,-0.324,-4.938566190215984,-5.010432544361681
1621786100500.379,-0.197,0.178,0.07,-0.324,-5.126818699490955,-5.2138567196801935
1621786100505.634,-0.257,0.248,0.099,-0.324,-5.315010008340283,-5.417214762301918
1621786100510.888,-0.318,0.293,0.126,-0.324,-5.503157602599868,-5.62052556728308
1621786100511.107,-0.31966883720930234,0.2949191627906977,0.1270847441860465,-0.324,-5.511,-5.629
1621786100516.137,-0.358,0.339,0.152,-0.4664088474166235,-5.7323270836933355,-6.024777921778699
1621786100521.384,-0.384,0.365,0.176,-0.6149625021600138,-5.963204222107021,-6.437633287253038
1621786100526.628,-0.386,0.375,0.201,-0.7634263003283221,-6.193941708426934,-6.850238926329128
1621786100528.061,-0.37834680573663626,0.37609331346619485,0.205646582231328,-0.804,-6.257,-6.963
1621786100531.871,-0.358,0.379,0.218,-0.9762342604881991,-6.387132552368861,-7.210206820936003
1621786100537.11,-0.314,0.375,0.222,-1.2130646459691845,-6.566071065843384,-7.550128080096948
1621786100542.347,-0.251,0.361,0.22,-1.4497957037336258,-6.74493453170985,-7.8899067747706155
1621786100544.984,-0.21320783764870538,0.3584805225099137,0.2119376720317238,-1.569,-6.835,-8.061
1621786100547.58,-0.176,0.356,0.204,-1.6066432936960888,-6.857585976217654,-8.113700611174524
1621786100552.812,-0.096,0.344,0.202,-1.6825033448440276,-6.903102006906416,-8.219904682781639
1621786100558.041,-0.012,0.326,0.195,-1.7583209171952436,-6.948592550317146,-8.32604928407334
1621786100561.881,0.03796599084368869,0.31718247220405493,0.1876520601700458,-1.814,-6.982,-8.404
1621786100563.267,0.056,0.314,0.185,-1.7987160536714577,-6.974768885608002,-8.377458523311187
1621786100568.491,0.126,0.307,0.18,-1.7411098180554951,-6.947514322520879,-8.277421888343682
1621786100573.711,0.187,0.309,0.18,-1.6835466585609449,-6.920280139534211,-8.177460057608522
1621786100578.748,0.23912782482571468,0.31382665044682545,0.17131202919571423,-1.628,-6.894,-8.081
1621786100578.929,0.241,0.314,0.171,-1.6222085870889158,-6.892947015834348,-8.073940708195579
1621786100584.143,0.295,0.309,0.166,-1.45528928136419,-6.862598051157126,-7.870478771532974
1621786100589.356,0.33,0.321,0.168,-1.288409053999188,-6.832256191636216,-7.667064468418305
1621786100594.565,0.365,0.325,0.169,-1.1216538773853024,-6.801937068615509,-7.463802592657038
1621786100595.585,0.3700941661977115,0.32637150628399925,0.16880407053085725,-1.089,-6.796,-7.424
1621786100599.771,0.391,0.332,0.168,-1.0033372353094954,-6.7153176286054554,-7.282307810729951
1621786100604.974,0.408,0.346,0.171,-0.8968608069247974,-6.615031690243123,-7.106188369593633
1621786100610.176,0.419,0.351,0.175,-0.7904093589333953,-6.51476927992564,-6.930110247770646
1621786100612.395,0.42028068197830065,0.3539882579493683,0.17713446996383447,-0.745,-6.472,-6.855
1621786100615.374,0.422,0.358,0.18,-0.755473210259096,-6.400640160607516,-6.77316695034842
1621786100620.57,0.422,0.358,0.19,-0.7737408167124922,-6.276172740365731,-6.630431923653239
1621786100625.762,0.407,0.363,0.192,-0.7919938317403512,-6.151804739667438,-6.487810907927087
1621786100629.177,0.3964738030288778,0.35707901420374377,0.192,-0.804,-6.07,-6.394
1621786100630.953,0.391,0.354,0.192,-0.8091948055733691,-6.053355418877165,-6.357636360986416
1621786100636.141,0.358,0.36,0.195,-0.824371436483414,-6.004728254532735,-6.251399944616102
1621786100641.325,0.323,0.36,0.199,-0.8395352124992712,-5.956142278318662,-6.145253512505101
1621786100645.928,0.29191124093093374,0.3582234994817676,0.20521775181381324,-0.853,-5.913,-6.051
1621786100646.507,0.288,0.358,0.206,-0.8584360785916562,-5.913692494088109,-6.049615011823782
1621786100651.688,0.246,0.356,0.211,-0.9070697311184421,-5.9198878638367445,-6.037224272326512
1621786100656.864,0.201,0.353,0.218,-0.9556575482439494,-5.926077394680758,-6.024845210638484
1621786100662.038,0.147,0.358,0.22,-1.0042270312089452,-5.932264589962923,-6.012470820074154
1621786100662.653,0.14152908404154863,0.3588325306893295,0.22107039660056657,-1.01,-5.933,-6.011
1621786100667.209,0.101,0.365,0.229,-1.068944985522506,-5.970386402854552,-6.131618905559943
1621786100672.379,0.059,0.361,0.23,-1.1358341668860226,-6.012811485478635,-6.268493989646398
1621786100677.544,0.028,0.365,0.227,-1.202660173729929,-6.055196499078705,-6.4052397999473545
1621786100679.348,0.019965440620272314,0.3709385873676248,0.227,-1.226,-6.07,-6.453
1621786100682.708,0.005,0.382,0.227,-1.243723885620628,-6.143111028185091,-6.5595447215149125
1621786100687.874,-0.005,0.37,0.222,-1.2709735709895513,-6.255515980331899,-6.723352489244007
1621786100693.038,-0.017,0.372,0.211,-1.2982129540199607,-6.367878435332338,-6.887098325869991
1621786100696.031,-0.01641996687958363,0.38302062928791103,0.20925990063875088,-1.314,-6.433,-6.982
1621786100698.198,-0.016,0.391,0.208,-1.306324387705747,-6.504422222873642,-7.0369001421724535
1621786100703.356,-0.014,0.415,0.194,-1.2880545971536195,-6.674424172248523,-7.167575593240213
1621786100708.511,0.003,0.438,0.176,-1.2697951837249182,-6.844329561610507,-7.298176821492957
1621786100712.688,0.02569205627398039,0.45826076453033965,0.16384354128179623,-1.255,-6.982,-7.404
1621786100713.665,0.031,0.463,0.161,-1.265399841437632,-7.012553206483439,-7.401708509513742
1621786100718.815,0.056,0.487,0.152,-1.3202159971811134,-7.173595019967113,-7.389630373502467
1621786100723.962,0.105,0.496,0.157,-1.375000968992248,-7.334545219638243,-7.377559108527132
1621786100729.107,0.157,0.485,0.157,-1.4297651515151515,-7.495434343434344,-7.365492424242424
1621786100729.317,0.15969438906294503,0.4843059906959081,0.15708164815342257,-1.432,-7.502,-7.365
1621786100734.25,0.223,0.468,0.159,-1.4988600547074913,-7.513589076149298,-7.303785905467808
1621786100739.389,0.302,0.44,0.152,-1.5685095296920497,-7.525661651813289,-7.240017941704168
1621786100744.526,0.394,0.403,0.147,-1.6381325333098031,-7.537729639107033,-7.176274213947469
1621786100745.918,0.4154207998478292,0.38835793428123067,0.1413058633315897,-1.657,-7.541,-7.159
1621786100749.66,0.473,0.349,0.126,-1.5508932995536964,-7.419315932892431,-7.012933967683493
1621786100754.792,0.541,0.312,0.112,-1.4053678248957888,-7.252426080040064,-6.812604218526756
1621786100759.921,0.592,0.283,0.106,-1.2599323474392778,-7.085639436744192,-6.612398359134494
1621786100762.493,0.6075538886507597,0.26895132637995905,0.1054982616564271,-1.187,-7.002,-6.512
1621786100765.047,0.623,0.255,0.105,-1.1385340877236985,-6.86123276434399,-6.39546572048214
1621786100770.171,0.642,0.222,0.103,-1.0413104114722416,-6.578850621855682,-6.161695416119561
1621786100775.293,0.641,0.176,0.106,-0.9441191631873239,-6.296562665053629,-5.928003083459966
1621786100779.041,0.6212268759242475,0.14963583456566332,0.10233831035634212,-0.873,-6.09,-5.757
1621786100780.411,0.614,0.14,0.101,-0.8657108355476824,-6.038810186005314,-5.700094818423383
1621786100785.526,0.579,0.101,0.098,-0.8384937112488928,-5.8476717449069975,-5.487615677590788
1621786100790.65,0.515,0.068,0.099,-0.8112285208148804,-5.656195748449956,-5.274761293179806
1621786100795.579,0.44762299771167047,0.03142391304347826,0.10573770022883294,-0.785,-5.472,-5.07
1621786100795.771,0.445,0.03,0.106,-0.7860219556159689,-5.471314825212021,-5.067154782660087
1621786100800.889,0.353,0.002,0.12,-0.8132780059690907,-5.453040882361632,-4.991271460654236
1621786100806.004,0.244,-0.019,0.134,-0.8405184539463963,-5.43477740019503,-4.915431577081056
1621786100811.118,0.106,-0.024,0.147,-0.8677537011317632,-5.416517404923023,-4.839606172985432
1621786100812.103,0.07920921901122521,-0.024,0.15066204919990447,-0.873,-5.413,-4.825
1621786100816.229,-0.033,-0.024,0.166,-0.94653045640206,-5.494033564198189,-5.050593441070266
1621786100821.336,-0.175,-0.024,0.187,-1.0375428875865744,-5.594332978156633,-5.329822056473096
1621786100826.441,-0.305,-0.024,0.206,-1.1285205114544485,-5.694594033031433,-5.608943882081336
1621786100828.6,-0.3532261551707644,-0.024,0.21403769252846072,-1.167,-5.737,-5.727
1621786100831.545,-0.419,-0.024,0.225,-1.2213486341875528,-5.905230476218708,-6.061851946820021
1621786100836.645,-0.485,-0.035,0.232,-1.3154742326105322,-6.196586358179312,-6.6417770976300226
1621786100841.742,-0.515,-0.045,0.236,-1.40954125598423,-6.487760927240658,-7.221341356771258
1621786100845.072,-0.5012743782644113,-0.04892160621016819,0.2255423834395515,-1.471,-6.678,-7.6
1621786100846.837,-0.494,-0.051,0.22,-1.4520042755979157,-6.746470464228982,-7.7558293323832
1621786100851.931,-0.442,-0.058,0.201,-1.397177081013673,-6.9440961712614495,-8.205598182870885
1621786100857.021,-0.356,-0.063,0.182,-1.3423919298089342,-7.1415703321011295,-8.655022135126709
1621786100861.517,-0.2631952390094068,-0.0753739681320791,0.15990362833557303,-1.294,-7.316,-9.052
1621786100862.108,-0.251,-0.077,0.157,-1.2781291416334544,-7.313876687882933,-9.044586401760752
1621786100867.193,-0.126,-0.08,0.127,-1.1415282701802392,-7.2956012878472425,-8.980777377907323
1621786100872.275,0.002,-0.089,0.113,-1.0050192136101361,-7.277338171435369,-8.917011242638749
1621786100877.355,0.106,-0.093,0.091,-0.8685560644815894,-7.259081196835405,-8.853266551662601
1621786100877.934,0.11501120461649435,-0.09311406588122145,0.08837648473190671,-0.853,-7.257,-8.846
1621786100882.432,0.185,-0.094,0.068,-0.7644581963188358,-7.031122457482107,-8.404935720981445
1621786100887.507,0.244,-0.094,0.052,-0.664550091508325,-6.776248530659008,-7.907251075036827
1621786100892.593,0.262,-0.089,0.047,-0.5644305206302915,-6.52083513622093,-7.4085130269168396
1621786100894.342,0.2564945244956772,-0.08727953890489913,0.04596772334293948,-0.53,-6.433,-7.237
1621786100897.676,0.246,-0.084,0.044,-0.537923116975855,-6.2956659724185124,-6.976146610333388
1621786100902.756,0.204,-0.07,0.044,-0.5499957750040911,-6.086406566595754,-6.5786775614037705
1621786100907.836,0.148,-0.049,0.047,-0.562067852839227,-5.877157217453398,-6.181227614216219
1621786100910.753,0.10719045557319479,-0.03865391831433107,0.05332260547457546,-0.569,-5.757,-5.953
1621786100912.911,0.077,-0.031,0.058,-0.6219447051986947,-5.757,-5.92323506623158
1621786100917.985,0.0,-0.005,0.066,-0.7464387376514237,-5.757,-5.853245883807906
1621786100923.055,-0.066,0.01,0.072,-0.8708249519467166,-5.757,-5.783317315572244
1621786100927.138,-0.1167349159724563,0.021274425771656957,0.07602658063273462,-0.971,-5.757,-5.727
1621786100928.125,-0.129,0.024,0.077,-0.9863840931134821,-5.784751697381183,-5.756561590688652
1621786100933.191,-0.169,0.031,0.079,-1.0653402969484445,-5.927182496456017,-5.908281354920541
1621786100938.254,-0.195,0.049,0.072,-1.1442508393643214,-6.069530925912109,-6.0599133776020295
1621786100943.315,-0.199,0.056,0.073,-1.2231309408341415,-6.211824442289039,-6.211486905916585
1621786100943.499,-0.19859982630512402,0.055927241146386183,0.0726362057319309,-1.226,-6.217,-6.217
1621786100948.375,-0.188,0.054,0.063,-1.2143578261389454,-6.269837558292479,-6.389841504244888
1621786100953.431,-0.169,0.051,0.059,-1.2022860367093149,-6.3246249103192635,-6.569061147315557
1621786100958.485,-0.147,0.042,0.045,-1.1902183277531986,-6.379393743273945,-6.748220211048667
1621786100959.833,-0.13979451856148492,0.042533739365815934,0.04179756380510441,-1.187,-6.394,-6.796
1621786100963.536,-0.12,0.044,0.033,-1.115703883349801,-6.376062441989282,-6.778289499685619
1621786100968.586,-0.101,0.035,0.021,-1.0184690859007755,-6.35159891014701,-6.7541356328033775
1621786100973.632,-0.084,0.033,0.012,-0.9213095002844396,-6.327154301026977,-6.730000449115243
1621786100976.141,-0.08051795740561471,0.03498973862536302,0.008517957405614715,-0.873,-6.315,-6.718
1621786100978.676,-0.077,0.037,0.005,-0.8196349646367778,-6.287617357947735,-6.682838198273795
1621786100983.717,-0.08,0.051,0.009,-0.7135113731719012,-6.233163270198993,-6.612914199232798
1621786100988.757,-0.094,0.065,0.007,-0.6074083403260608,-6.178719731479262,-6.543003746104052
1621786100992.434,-0.10928149007102479,0.07518766004734986,0.013549210030439195,-0.53,-6.139,-6.492
1621786100993.81,-0.115,0.079,0.016,-0.531602717993235,-6.136553746220852,-6.501110186487862
1621786100998.861,-0.138,0.093,0.024,-0.537486080761517,-6.127573876732422,-6.534552459065465
1621786101003.909,-0.159,0.117,0.031,-0.5433657466997935,-6.118599649774,-6.567973718083036
1621786101008.746,-0.1772095970589658,0.13329279736854835,0.03770879891646108,-0.549,-6.11,-6.6
1621786101008.956,-0.178,0.134,0.038,-0.5534220246750716,-6.111134513619261,-6.608212331539418
1621786101014.0,-0.19,0.141,0.052,-0.6596534546599307,-6.138389224519166,-6.805499272939871
1621786101019.042,-0.199,0.162,0.059,-0.7658437495315334,-6.1656333818040086,-7.002709820558562
1621786101024.082,-0.188,0.168,0.066,-0.8719929092898797,-6.192866985473788,-7.199843974395491
1621786101025.032,-0.18479318369127842,0.16630227371891212,0.06675454501381685,-0.892,-6.198,-7.237
1621786101029.118,-0.171,0.159,0.07,-1.0030490745049765,-6.237445033251768,-7.357847522255415
1621786101034.153,-0.145,0.157,0.072,-1.1398963565670366,-6.2860536832149885,-7.506769564499422
1621786101039.185,-0.115,0.152,0.066,-1.2766573791902482,-6.334631693513279,-7.655597736177623
1621786101041.295,-0.10283821031688262,0.14403193089726793,0.06306439559373028,-1.334,-6.355,-7.718
1621786101044.216,-0.086,0.133,0.059,-1.37987048034278,-6.347804630534466,-7.710984514771105
1621786101049.243,-0.045,0.12,0.056,-1.4588068104938736,-6.335422461099,-7.6989118995715256
1621786101054.268,-0.017,0.101,0.047,-1.537716304592949,-6.3230445012403225,-7.686843388709314
1621786101057.534,-0.004646398366870806,0.08994677748614757,0.04374905220180811,-1.589,-6.315,-7.679
1621786101059.291,0.002,0.084,0.042,-1.576212654149037,-6.295927348561276,-7.63543633023655
1621786101064.312,0.024,0.065,0.035,-1.539671796184482,-6.241425729902279,-7.510949678526795
1621786101069.331,0.033,0.047,0.026,-1.5031451523045187,-6.186945311911825,-7.386511451071327
1621786101073.748,0.037403875176476316,0.03907302468234263,0.024238449929409475,-1.471,-6.139,-7.277
1621786101074.346,0.038,0.038,0.024,-1.4612140444524866,-6.130654241684008,-7.26067776470943
1621786101079.361,0.035,0.03,0.023,-1.3791302964504357,-6.060650743387919,-7.123768268041859
1621786101084.372,0.019,0.023,0.017,-1.2971144787237252,-5.990705178081366,-6.986972073946742
1621786101089.381,-0.003,0.017,0.024,-1.2151306281854097,-5.920786875358123,-6.85022919870925
1621786101089.939,-0.005221250121512588,0.01722212501215126,0.02422212501215126,-1.206,-5.913,-6.835
1621786101094.404,-0.023,0.019,0.026,-1.200772213028434,-5.886035625094028,-6.786574183842335
1621786101099.427,-0.044,0.021,0.03,-1.1948912742590643,-5.855702361967805,-6.732098119452385
1621786101104.449,-0.075,0.026,0.035,-1.189011478862645,-5.825374996238905,-6.677632646306605
1621786101106.167,-0.08321519603074229,0.02908069851152836,0.035684599669228524,-1.187,-5.815,-6.659
1621786101109.468,-0.099,0.035,0.037,-1.1969802512653651,-5.8349605025307305,-6.67896050253073
1621786101114.484,-0.124,0.037,0.038,-1.2121451253314053,-5.86529025066281,-6.70929025066281
1621786101119.499,-0.133,0.028,0.04,-1.2273077850084357,-5.895615570016872,-6.739615570016872
1621786101122.374,-0.13988353061522724,0.029147255102537874,0.041147255102537875,-1.236,-5.913,-6.757
1621786101124.511,-0.145,0.03,0.042,-1.2463005989650127,-5.928582957408609,-6.799655044432039
1621786101129.521,-0.152,0.031,0.04,-1.2704498725124846,-5.965116473800938,-6.899657805404264
1621786101134.529,-0.154,0.031,0.044,-1.2945897315972903,-6.0016357478010285,-6.999621580845189
1621786101138.556,-0.14917437097717964,0.02858718548858982,0.04239145699239322,-1.314,-6.031,-7.08
1621786101139.536,-0.148,0.028,0.042,-1.3211552963925313,-6.0399138014381535,-7.089520182488368
1621786101144.539,-0.143,0.024,0.042,-1.3576858118315307,-6.085422155417246,-7.138124342860596
1621786101149.54,-0.133,0.026,0.042,-1.3942002840050758,-6.1309105232944585,-7.186707157532178
1621786101154.54,-0.117,0.019,0.037,-1.4307076258384193,-6.176390008459726,-7.235280485225694
1621786101154.717,-0.11643326167676374,0.019,0.03685831541919093,-1.432,-6.178,-7.237
1621786101159.537,-0.101,0.019,0.033,-1.4203508026082878,-6.213246289544155,-7.202052407824864
1621786101164.531,-0.089,0.016,0.028,-1.408281495378005,-6.2497636806511645,-7.165844486134016
1621786101169.524,-0.075,0.023,0.026,-1.3962145483153547,-6.286273930738158,-7.129643644946064
1621786101170.854,-0.0726015261947855,0.02193401164212689,0.02706598835787311,-1.393,-6.296,-7.12
1621786101174.515,-0.066,0.019,0.03,-1.3661919761222974,-6.269191976122298,-7.08864824326167
1621786101179.503,-0.056,0.023,0.031,-1.3296654849022014,-6.232665484902202,-7.045930821326303
1621786101184.489,-0.054,0.021,0.023,-1.2931532960623002,-6.1961532960623,-7.003230125903368
1621786101186.968,-0.054,0.027961947206033597,0.024491845829864342,-1.275,-6.178,-6.982
1621786101189.474,-0.054,0.035,0.026,-1.2810740566538712,-6.164294436268188,-6.97436849292206
1621786101194.455,-0.054,0.033,0.03,-1.2931464291674886,-6.137054211109256,-6.9592006402767455
1621786101199.434,-0.056,0.031,0.035,-1.305214067881473,-6.109824667344369,-6.944038735225842
1621786101203.059,-0.06474054451802796,0.030271621290164336,0.032086485160657346,-1.314,-6.09,-6.933
1621786101204.411,-0.068,0.03,0.031,-1.318963731121038,-6.088317379281004,-6.929718889597957
1621786101209.387,-0.075,0.031,0.033,-1.337235497006716,-6.082123560336706,-6.917640942656577
1621786101214.36,-0.086,0.038,0.033,-1.3554965053028232,-6.075933388032942,-6.905570106664236
1621786101219.127,-0.08887682333873581,0.03704105888708806,0.033,-1.373,-6.07,-6.894
1621786101219.331,-0.089,0.037,0.033,-1.373750608716825,-6.070750608716825,-6.894496165084003
1621786101224.299,-0.093,0.04,0.033,-1.3920211072559046,-6.089021107255904,-6.906573274287801
1621786101229.266,-0.096,0.04,0.03,-1.410288014365717,-6.107288014365717,-6.918648009495983
1621786101234.23,-0.096,0.04,0.028,-1.4285432493304113,-6.125543249330411,-6.930715029218407
1621786101235.17,-0.09656829364298367,0.03905284392836056,0.027621137571344222,-1.432,-6.129,-6.933
1621786101239.192,-0.099,0.035,0.026,-1.441790710432477,-6.1315104385724295,-6.960112736582244
1621786101244.152,-0.098,0.031,0.021,-1.4538653652738411,-6.13460650391637,-6.993550242296791
1621786101249.11,-0.099,0.03,0.017,-1.4659346712992594,-6.137701197769041,-7.026972935905642
1621786101251.191,-0.09774013303769402,0.03,0.016580044345898007,-1.471,-6.139,-7.041
1621786101254.065,-0.096,0.03,0.016,-1.474592748580846,-6.130197765976927,-7.044592748580846
1621786101259.018,-0.087,0.012,0.01,-1.48078453274736,-6.115027894768968,-7.05078453274736
1621786101263.97,-0.084,0.014,0.003,-1.48697479094183,-6.099861762192517,-7.05697479094183
1621786101267.19,-0.084,0.004891125252824232,0.0010480982684623352,-1.491,-6.09,-7.061
1621786101268.919,-0.084,0.0,0.0,-1.491,-6.092164491579816,-7.047147253889177
1621786101273.865,-0.082,-0.003,-0.003,-1.491,-6.098356306733091,-7.007519636908218
1621786101278.81,-0.08,-0.009,-0.005,-1.491,-6.104546899355115,-6.967899844127265
1621786101283.166,-0.08352504198360171,-0.009,-0.009406302479502124,-1.491,-6.11,-6.933
1621786101283.753,-0.084,-0.009,-0.01,-1.487394312738181,-6.11180284363091,-6.931565083640704
1621786101288.693,-0.086,-0.012,-0.012,-1.4570444451246576,-6.126977777437672,-6.919487075100629
1621786101293.63,-0.087,-0.007,-0.012,-1.4267155756898637,-6.142142212155068,-6.907417422978619
1621786101298.566,-0.087,-0.007,-0.016,-1.3963912058647974,-6.157304397067601,-6.895349561517624
1621786101299.118,-0.08688812469074715,-0.007559376546264226,-0.01555249876298862,-1.393,-6.159,-6.894
1621786101303.5,-0.086,-0.012,-0.012,-1.3874990652487051,-6.159,-6.9182041129056975
1621786101308.432,-0.084,-0.009,-0.016,-1.3813079469183855,-6.159,-6.945445033559104
1621786101313.361,-0.084,-0.005,-0.016,-1.375120199822244,-6.159,-6.972671120782127
1621786101315.05,-0.08331440463802588,-0.006713988404935336,-0.016,-1.373,-6.159,-6.982
1621786101318.288,-0.082,-0.01,-0.016,-1.3689290351294525,-6.154929035129452,-7.013957074233797
1621786101323.213,-0.079,-0.01,-0.016,-1.3627374115624855,-6.148737411562486,-7.062561319234488
1621786101328.135,-0.075,-0.009,-0.016,-1.3565491643518164,-6.142549164351816,-7.1111390598382425
1621786101330.958,-0.075,-0.013015727326850565,-0.016,-1.353,-6.139,-7.139
1621786101333.056,-0.075,-0.016,-0.016,-1.3478490339834923,-6.1441509660165075,-7.1467924870506145
1621786101337.975,-0.068,-0.012,-0.017,-1.335770968783142,-6.156229031216858,-7.1650644318408885
1621786101342.891,-0.066,-0.014,-0.016,-1.3237006962696547,-6.168299303730345,-7.183324587694625
1621786101346.842,-0.06358738756646623,-0.01962942901157879,-0.016,-1.314,-6.178,-7.198
1621786101347.804,-0.063,-0.021,-0.016,-1.3116346171608018,-6.179213016840614,-7.198
1621786101352.716,-0.049,-0.024,-0.014,-1.2995555555555556,-6.185407407407408,-7.198
1621786101357.626,-0.042,-0.037,-0.016,-1.2874818971090791,-6.19159902712355,-7.198
1621786101362.533,-0.042,-0.031,-0.014,-1.2754154428742956,-6.197786952372156,-7.198
1621786101362.702,-0.04158668060325519,-0.031137773132248272,-0.01386222686775173,-1.275,-6.198,-7.198
1621786101367.438,-0.03,-0.035,-0.01,-1.2543669014844387,-6.180357205617129,-7.174675627765018
1621786101372.342,-0.028,-0.035,-0.009,-1.233002034744809,-6.162088696375997,-7.150524039276741
1621786101377.243,-0.024,-0.037,-0.005,-1.211650995021041,-6.143832010235383,-7.126388081328134
1621786101378.54,-0.024,-0.03541110501918955,-0.0036759208493246276,-1.206,-6.139,-7.12
1621786101382.141,-0.024,-0.031,0.0,-1.1836867030965392,-6.12784335154827,-7.106566484517304
1621786101387.037,-0.023,-0.031,0.0,-1.153349695903183,-6.112674847951592,-7.088302367941712
1621786101391.932,-0.024,-0.037,0.005,-1.1230202525392856,-6.0975101262696425,-7.070042805100182
1621786101394.356,-0.024,-0.03154940612835612,0.007477542668929035,-1.108,-6.09,-7.061
1621786101396.824,-0.024,-0.026,0.01,-1.101906570223026,-6.080781734439962,-7.057875164216936
1621786101401.714,-0.024,-0.024,0.017,-1.089833031946956,-6.0625166380736,-7.051683606126645
1621786101406.603,-0.028,-0.017,0.012,-1.0777625075346595,-6.044256101142177,-7.045493593607518
1621786101410.152,-0.02945304612924184,-0.017,0.018538707581588286,-1.069,-6.031,-7.041
1621786101411.488,-0.03,-0.017,0.021,-1.069,-6.034303836269622,-7.042694275010064
1621786101416.371,-0.033,-0.012,0.024,-1.069,-6.046379865002941,-7.048887110257919
1621786101421.252,-0.026,-0.009,0.03,-1.069,-6.0584504597950275,-7.055077158869245
1621786101425.922,-0.023129070989043973,-0.0003872129671319228,0.03669883435889739,-1.069,-6.07,-7.061
1621786101426.132,-0.023,0.0,0.037,-1.0692666542641427,-6.070533308528286,-7.061519975815078
1621786101431.008,-0.026,0.005,0.037,-1.0754592344542113,-6.0829184689084235,-7.073595507185712
1621786101435.882,-0.017,0.01,0.038,-1.0816493341394973,-6.095298668278995,-7.085666201572019
1621786101440.755,-0.017,0.014,0.044,-1.0878378835092941,-6.107675767018589,-7.097733872843123
1621786101441.67,-0.016060557449368358,0.014939442550631642,0.044,-1.089,-6.11,-7.1
1621786101445.625,-0.012,0.019,0.044,-1.1035868910485298,-6.114778464309001,-7.114838389170056
1621786101450.493,-0.003,0.026,0.047,-1.1215404725680753,-6.120659809979197,-7.133101515198559
1621786101455.359,0.002,0.026,0.047,-1.1394868506846338,-6.126538795913931,-7.151357313627472
1621786101457.396,0.004931686994930483,0.025162375144305575,0.04783762485569443,-1.147,-6.129,-7.159
1621786101460.223,0.009,0.024,0.049,-1.1576206237174305,-6.11837937628257,-7.162420200858155
1621786101465.085,0.01,0.026,0.052,-1.1758872893476773,-6.100112710652323,-7.168302686400099
1621786101469.944,0.01,0.03,0.052,-1.1941429481997388,-6.081857051800261,-7.174181627386356
1621786101473.1,0.017147732984819544,0.03454855735397607,0.05329958781542173,-1.206,-6.07,-7.178
1621786101474.801,0.021,0.037,0.054,-1.206,-6.063600196173068,-7.180169425026079
1621786101479.656,0.024,0.035,0.051,-1.206,-6.045333151691604,-7.186361643494372
1621786101484.509,0.03,0.045,0.056,-1.206,-6.027073455915552,-7.192551370876084
1621786101488.781,0.03616591995972816,0.042357462874402216,0.05776169141706519,-1.206,-6.011,-7.198
1621786101489.359,0.037,0.042,0.058,-1.2071072648173269,-6.00812111147495,-7.197261823455116
1621786101494.207,0.031,0.042,0.058,-1.2163966880291903,-5.983968611124105,-7.191068874647207
1621786101499.054,0.037,0.037,0.063,-1.2256837722786171,-5.959822192075595,-7.184877485147589
1621786101503.898,0.035,0.035,0.061,-1.2349652430181972,-5.935690368152687,-7.178689837987869
1621786101504.438,0.035,0.034553874855039586,0.06021928099631926,-1.236,-5.933,-7.178
1621786101508.74,0.035,0.031,0.054,-1.2412278852610046,-5.911538155244297,-7.167269077622148
1621786101513.58,0.035,0.031,0.054,-1.247109664121422,-5.887391905185741,-7.15519595259287
1621786101518.417,0.033,0.028,0.056,-1.252987586077669,-5.86326148873378,-7.14313074436689
1621786101520.073,0.030602454049686933,0.028685013128660876,0.053602454049686936,-1.255,-5.855,-7.139
1621786101523.252,0.026,0.03,0.049,-1.255,-5.85092705547475,-7.126984813650511
1621786101528.086,0.028,0.024,0.045,-1.255,-5.844733652387432,-7.1087142745429235
1621786101532.917,0.023,0.024,0.044,-1.255,-5.838544002877743,-7.0904548084893415
1621786101535.683,0.016697916666666666,0.024,0.044,-1.255,-5.835,-7.08
1621786101537.745,0.012,0.024,0.044,-1.257645658438792,-5.842804692394437,-7.072327590527503
1621786101542.572,0.009,0.024,0.044,-1.26383880466107,-5.861074473750157,-7.054367466482897
1621786101547.396,0.005,0.026,0.044,-1.2700281919558951,-5.879333166269891,-7.036418243327904
1621786101551.271,0.0009827891672994178,0.03001721083270058,0.04239311566691977,-1.275,-5.894,-7.022
1621786101552.219,0.0,0.031,0.042,-1.2761571410646506,-5.892781956774052,-7.029125552871797
1621786101557.038,-0.005,0.023,0.038,-1.2820393989773833,-5.886590106339597,-7.06534787791336
1621786101561.856,-0.01,0.031,0.037,-1.287920166881019,-5.880399824335769,-7.101561027635748
1621786101566.672,-0.009,0.03,0.035,-1.2937988487719188,-5.874211738134822,-7.13776133191129
1621786101566.837,-0.009102718879983767,0.029931520746677487,0.03486304149335498,-1.294,-5.874,-7.139
1621786101571.485,-0.012,0.028,0.031,-1.3059621764262377,-5.856355789771299,-7.156644210228701
1621786101576.296,-0.012,0.03,0.028,-1.3183427996984167,-5.838094370444836,-7.174905629555165
1621786101581.106,-0.019,0.024,0.026,-1.3307215380748934,-5.819835731339533,-7.1931642686604675
1621786101582.38,-0.021385068562722195,0.025590045708481463,0.023614931437277806,-1.334,-5.815,-7.198
1621786101585.913,-0.028,0.03,0.017,-1.334,-5.8418632373761215,-7.18456838131194
1621786101590.717,-0.03,0.019,0.023,-1.334,-5.878388107597924,-7.166305946201039
1621786101595.52,-0.03,0.017,0.01,-1.334,-5.9149055529337735,-7.148047223533113
1621786101597.9,-0.03,0.015512588372921013,0.010991607751385992,-1.334,-5.933,-7.139
1621786101600.32,-0.03,0.014,0.012,-1.3400898336588747,-5.939089833658874,-7.148212825278811
1621786101605.118,-0.031,0.01,0.01,-1.3521626079012035,-5.951162607901203,-7.166476765799257
1621786101609.914,-0.03,0.012,0.01,-1.3642310818473946,-5.963231081847395,-7.1847342007434944
1621786101613.399,-0.02709168704156479,0.0069104523227383865,0.00636460880195599,-1.373,-5.972,-7.198
1621786101614.707,-0.026,0.005,0.005,-1.3795924850932264,-5.972,-7.202986623339749
1621786101619.5,-0.017,0.005,0.002,-1.4037477048301101,-5.972,-7.221257879294571
1621786101624.289,-0.012,0.0,-0.005,-1.4278832381613402,-5.972,-7.239514244250245
1621786101628.876,-0.00337417742182319,-0.004792123654542672,-0.006916849461817069,-1.451,-5.972,-7.257
1621786101629.075,-0.003,-0.005,-0.007,-1.451,-5.970738310375332,-7.256742512321496
1621786101633.861,0.002,-0.019,-0.017,-1.451,-5.940389643624416,-7.250548906862125
1621786101638.644,0.007,-0.024,-0.019,-1.451,-5.910061101984077,-7.244359408568179
1621786101643.424,0.002,-0.037,-0.021,-1.451,-5.879751137368887,-7.238173701503855
1621786101644.331,0.002,-0.037949156872764435,-0.02289831374552887,-1.451,-5.874,-7.237
1621786101648.202,0.002,-0.042,-0.031,-1.426418215760414,-5.8642174532107765,-7.217434906421554
1621786101652.979,-0.002,-0.047,-0.028,-1.3960813017133635,-5.8521445996614405,-7.193289199322881
1621786101657.753,-0.009,-0.042,-0.037,-1.3657645430239365,-5.840079767121771,-7.1691595342435415
1621786101659.763,-0.011106057505371943,-0.045790903509669495,-0.03615757699785122,-1.353,-5.835,-7.159
1621786101662.525,-0.014,-0.051,-0.035,-1.3424247575892008,-5.845575242410799,-7.155415172064136
1621786101667.295,-0.023,-0.054,-0.031,-1.3241608942265035,-5.863839105773496,-7.149224031941188
1621786101672.062,-0.035,-0.058,-0.031,-1.3059082483047089,-5.882091751695292,-7.143036694340579
1621786101675.172,-0.035,-0.058,-0.03230515854720557,-1.294,-5.894,-7.139
1621786101676.828,-0.035,-0.058,-0.033,-1.289802418586936,-5.904547768678982,-7.1326498127340825
1621786101681.591,-0.042,-0.061,-0.033,-1.2777270996000762,-5.934890877928014,-7.1143820224719105
1621786101686.352,-0.049,-0.068,-0.037,-1.2656573509807656,-5.965219989843204,-7.0961226591760305
1621786101690.556,-0.049,-0.06623331452316217,-0.033466629046324324,-1.255,-5.992,-7.08
1621786101691.111,-0.049,-0.066,-0.033,-1.255,-5.992,-7.080722788169668
1621786101695.867,-0.054,-0.068,-0.04,-1.255,-5.992,-7.086914482780541
1621786101700.622,-0.049,-0.068,-0.037,-1.255,-5.992,-7.093105223845017
1621786101705.374,-0.042,-0.066,-0.04,-1.255,-5.992,-7.099291832875101
1621786101705.918,-0.04222902960526316,-0.06703063322368422,-0.03977097039473684,-1.255,-5.992,-7.1
1621786101710.124,-0.044,-0.075,-0.038,-1.260483742619324,-5.970339216653669,-7.0945162573806755
1621786101714.872,-0.042,-0.077,-0.045,-1.2666741202871101,-5.945887224865914,-7.088325879712889
1621786101719.618,-0.047,-0.077,-0.049,-1.2728616332182132,-5.921446548788057,-7.082138366781787
1621786101721.258,-0.04769157916409306,-0.07527105208976734,-0.04969157916409306,-1.275,-5.913,-7.08
1621786101724.361,-0.049,-0.072,-0.051,-1.275,-5.9050990468296725,-7.091952724026906
1621786101729.102,-0.047,-0.072,-0.054,-1.275,-5.893027559055118,-7.1102147183525135
1621786101733.842,-0.054,-0.077,-0.058,-1.275,-5.880958557811852,-7.128472951002582
1621786101736.575,-0.054,-0.0741153945266196,-0.058576921094676083,-1.275,-5.874,-7.139
1621786101738.579,-0.054,-0.072,-0.059,-1.269889358917055,-5.879110641082945,-7.144110641082945
1621786101743.313,-0.054,-0.08,-0.061,-1.257817811761701,-5.891182188238299,-7.156182188238299
1621786101748.045,-0.051,-0.075,-0.059,-1.2457512451312176,-5.903248754868782,-7.168248754868783
1621786101751.869,-0.05342486324698111,-0.07095856125503149,-0.06223315099597482,-1.236,-5.913,-7.178
1621786101752.776,-0.054,-0.07,-0.063,-1.2342181114699582,-5.9141879256866945,-7.17687147059764
1621786101757.504,-0.051,-0.07,-0.066,-1.2249292680587087,-5.920380487960861,-7.170988536437182
1621786101762.23,-0.052,-0.063,-0.065,-1.215644261823298,-5.9265704921178015,-7.165108032488089
1621786101766.954,-0.056,-0.061,-0.066,-1.2063630927637259,-5.932757938157516,-7.15922995875036
1621786101767.139,-0.05580430174241249,-0.061078279303035,-0.066078279303035,-1.206,-5.933,-7.159
1621786101771.676,-0.051,-0.063,-0.068,-1.188443220393262,-5.950556779606738,-7.17060532889259
1621786101776.395,-0.044,-0.061,-0.066,-1.1701826202523538,-5.968817379747646,-7.182675895087427
1621786101781.112,-0.044,-0.058,-0.068,-1.1519295779158394,-5.987070422084161,-7.194741465445462
1621786101782.386,-0.042919445019672806,-0.058,-0.068,-1.147,-5.992,-7.198
1621786101785.828,-0.04,-0.058,-0.068,-1.1338889459000097,-6.0008160536189585,-7.189183946381041
1621786101790.541,-0.035,-0.047,-0.066,-1.115935413526601,-6.0128882564217685,-7.177111743578232
1621786101795.251,-0.031,-0.045,-0.066,-1.0979939710739826,-6.02495232979508,-7.1650476702049195
1621786101797.612,-0.02949580049771879,-0.0409888013272501,-0.06349300082953131,-1.089,-6.031,-7.159
1621786101799.96,-0.028,-0.037,-0.061,-1.0828232791149504,-6.027911639557475,-7.152977697137077
1621786101804.666,-0.017,-0.042,-0.059,-1.07044286195989,-6.021721430979945,-7.1409067904108925
1621786101809.37,-0.017,-0.038,-0.056,-1.0580675829733939,-6.015533791486697,-7.128840893399059
1621786101812.817,-0.018466119736227218,-0.030669401318863906,-0.05453388026377278,-1.049,-6.011,-7.12
1621786101814.072,-0.019,-0.028,-0.054,-1.047428941358124,-6.009428941358124,-7.123224804580693
1621786101818.772,-0.016,-0.024,-0.049,-1.0415459516839836,-6.003545951683984,-7.135300414964455
1621786101823.469,-0.019,-0.021,-0.042,-1.0356666291375816,-5.997666629137582,-7.147368498086016
1621786101827.996,-0.017071952170522486,-0.019071952170522485,-0.03814390434104497,-1.03,-5.992,-7.159
1621786101828.165,-0.017,-0.019,-0.038,-1.0304347363842845,-5.992211794648754,-7.159434736384284
1621786101832.858,-0.017,-0.016,-0.037,-1.0425106074517954,-5.99809491132267,-7.171510607451795
1621786101837.549,-0.014,-0.003,-0.03,-1.0545820808969217,-6.0039758855651675,-7.1835820808969215
1621786101842.238,-0.012,-0.005,-0.024,-1.0666479002561253,-6.009854105252984,-7.195647900256126
1621786101843.152,-0.011609878086902158,-0.004609878086902157,-0.024,-1.069,-6.011,-7.198
1621786101846.924,-0.01,-0.003,-0.024,-1.0787210570469798,-6.020970314919979,-7.20298515745999
1621786101851.609,-0.005,0.002,-0.016,-1.090794672818792,-6.033353510583376,-7.209176755291688
1621786101856.292,0.0,0.01,-0.01,-1.102863884228188,-6.0457321889519875,-7.215366094475994
1621786101858.285,0.001277798069397339,0.009574067310200886,-0.008722201930602662,-1.108,-6.051,-7.218
1621786101860.971,0.003,0.009,-0.007,-1.1149328012150395,-6.033579114895542,-7.210889434651242
1621786101865.65,0.003,0.003,-0.005,-1.1270094359438367,-6.0032326994231795,-7.198503142621706
1621786101870.325,0.014,0.01,0.0,-1.1390759884312744,-5.972911618813721,-7.186127191352539
1621786101873.395,0.012686341081222251,0.013940976756333247,0.0,-1.147,-5.953,-7.178
1621786101874.999,0.012,0.016,0.0,-1.1428541518348327,-5.944601999870558,-7.171834379651802
1621786101879.67,0.016,0.019,0.003,-1.1307813410135268,-5.920146818976118,-7.153879943045758
1621786101884.34,0.009,0.026,0.007,-1.1187104232735745,-5.895695472784933,-7.13592832179147
1621786101888.484,0.00544767685223943,0.03665696944328171,0.007,-1.108,-5.874,-7.12
1621786101889.006,0.005,0.038,0.007,-1.1100450324901558,-5.874,-7.119306768647405
1621786101893.671,0.002,0.045,0.012,-1.1283126509050252,-5.874,-7.113114355625415
1621786101898.333,-0.002,0.042,0.017,-1.1465697525562704,-5.874,-7.106925507608044
1621786101902.994,-0.005,0.038,0.019,-1.1648220738604138,-5.874,-7.100738280047317
1621786101903.55,-0.004761215932914046,0.03907452830188679,0.019477568134171907,-1.167,-5.874,-7.1
1621786101907.652,-0.003,0.047,0.023,-1.1858179781846514,-5.879454486430333,-7.1
1621786101912.308,-0.009,0.047,0.024,-1.2071772010128554,-5.8856455655109725,-7.1
1621786101916.963,-0.012,0.052,0.024,-1.2285308239189716,-5.891835021425789,-7.1
1621786101918.591,-0.012,0.05164993963571466,0.02364993963571466,-1.236,-5.894,-7.1
1621786101921.614,-0.012,0.051,0.023,-1.2476748654755905,-5.889974184318762,-7.107850340578414
1621786101926.263,-0.012,0.058,0.024,-1.2656293791556257,-5.883782972704957,-7.119923203225334
1621786101930.911,-0.016,0.059,0.021,-1.2835801212751776,-5.877593061629248,-7.131993529822965
1621786101933.609,-0.012514979501734469,0.05435330600231262,0.022161673499421844,-1.294,-5.874,-7.139
1621786101935.556,-0.01,0.051,0.023,-1.299192733428832,-5.871533451621304,-7.141596366714416
1621786101940.199,-0.012,0.052,0.019,-1.3115758562312803,-5.865651468290142,-7.1477879281156405
1621786101944.839,-0.012,0.056,0.019,-1.3239511655163434,-5.859773196379737,-7.1539755827581715
1621786101948.607,-0.015248197842672982,0.05762409892133649,0.016563851617995264,-1.334,-5.855,-7.159
1621786101949.479,-0.016,0.058,0.016,-1.3362713013988978,-5.858377832849643,-7.159
1621786101954.115,-0.019,0.059,0.012,-1.3483456973293768,-5.876334626797536,-7.159
1621786101958.749,-0.024,0.065,0.012,-1.3604150063586267,-5.894283855610265,-7.159
1621786101963.381,-0.028,0.065,0.014,-1.372479228486647,-5.912225519287834,-7.159
1621786101963.581,-0.028,0.06491362581733812,0.013827251634676229,-1.373,-5.913,-7.159
1621786101968.011,-0.028,0.063,0.01,-1.378925188172482,-5.918925188172482,-7.153074811827518
1621786101972.638,-0.024,0.065,0.01,-1.3851138994563,-5.9251138994563,-7.1468861005437
1621786101977.263,-0.024,0.065,0.009,-1.391299998367267,-5.931299998367267,-7.140700001632733
1621786101978.534,-0.02564920802534319,0.065,0.00845026399155227,-1.393,-5.933,-7.139
1621786101981.887,-0.03,0.065,0.007,-1.393,-5.95051871657754,-7.1257486631016045
1621786101986.508,-0.023,0.065,0.01,-1.393,-5.974662758180837,-7.107485862401675
1621786101991.127,-0.024,0.068,0.002,-1.393,-5.998795319629103,-7.089231745408756
1621786101993.463,-0.029566615539218282,0.06648183212566774,0.000987888083778495,-1.393,-6.011,-7.08
1621786101995.743,-0.035,0.065,0.0,-1.3868811813074315,-6.017118818692569,-7.092084666917823
1621786102000.358,-0.03,0.068,0.002,-1.3744961261895792,-6.0295038738104205,-7.116545150775581
1621786102004.97,-0.03,0.068,0.0,-1.362118933350805,-6.041881066649195,-7.1409901066321595
1621786102008.368,-0.027051739660011648,0.06284054440502039,0.0,-1.353,-6.051,-7.159
1621786102009.58,-0.026,0.061,0.0,-1.3594341956332736,-6.054176375059464,-7.155823624940536
1621786102014.189,-0.019,0.056,0.005,-1.3838983940552156,-6.066253637571562,-7.143746362428438
1621786102018.794,-0.017,0.054,0.002,-1.408341857909155,-6.078320664031102,-7.131679335968898
1621786102023.251,-0.012159613956941352,0.04528730512249443,6.384558277654044e-05,-1.432,-6.09,-7.12
1621786102023.398,-0.012,0.045,0.0,-1.4321879457096849,-6.090197837589142,-7.119802162410858
1621786102028.0,-0.016,0.045,-0.002,-1.4380729567189194,-6.096392586019915,-7.113607413980085
1621786102032.599,-0.01,0.04,-0.003,-1.4439542213020473,-6.10258339084426,-7.10741660915574
1621786102037.196,-0.003,0.042,-0.005,-1.4498326760655953,-6.108771237963785,-7.101228762036215
1621786102038.109,-0.0028012966997927407,0.04021167029813467,-0.004602593399585481,-1.451,-6.11,-7.1
1621786102041.79,-0.002,0.033,-0.003,-1.4463419075802413,-6.1050967448213065,-7.085535397222855
1621786102046.384,-0.002,0.03,-0.009,-1.4405287145133492,-6.0989775942245785,-7.067483902962505
1621786102050.974,0.0,0.033,-0.005,-1.4347204643751423,-6.092863646710676,-7.049447757796495
1621786102053.124,0.0,0.03214192448233861,-0.005,-1.432,-6.09,-7.041
1621786102055.985,0.0,0.031,-0.005,-1.4284715092209257,-6.093528490779074,-7.030590952201732
1621786102061.005,-0.003,0.021,-0.005,-1.422280767783214,-6.099719232216786,-7.012328264960482
1621786102066.023,-0.002,0.021,-0.007,-1.416092133985698,-6.105907866014302,-6.99407179525781
1621786102069.341,-0.006627736161105165,0.019677789668255667,-0.005677789668255667,-1.412,-6.11,-6.982
1621786102071.042,-0.009,0.019,-0.005,-1.4140983675682186,-6.107901632431782,-6.984098367568219
1621786102076.061,-0.005,0.014,-0.005,-1.4202901632431781,-6.101709836756822,-6.990290163243178
1621786102081.078,-0.012,0.016,-0.002,-1.426479248238058,-6.095520751761942,-6.996479248238058
1621786102085.553,-0.010216058394160584,0.009756204379562042,-0.002,-1.432,-6.09,-7.002
1621786102086.095,-0.01,0.009,-0.002,-1.4326352792336887,-6.088696005783481,-7.001331285017169
1621786102091.114,-0.012,0.005,-0.003,-1.4385181938671003,-6.076620549430689,-6.9951387432977885
1621786102096.13,-0.014,0.002,-0.005,-1.4443973883968915,-6.064552729080065,-6.988950117476956
1621786102101.147,-0.016,-0.002,-0.003,-1.4502780137357674,-6.0524819718055305,-6.982759985541298
1621786102101.763,-0.01612279762484182,-0.0015088095006327265,-0.002631607125474545,-1.451,-6.051,-6.982
1621786102106.163,-0.017,0.002,0.0,-1.4404110123531184,-6.040139499849352,-6.958106899668575
1621786102111.179,-0.023,-0.002,-0.002,-1.4283402832178367,-6.027759264838807,-6.9308703826453755
1621786102116.196,-0.028,0.0,-0.003,-1.416266616450738,-6.015376016872552,-6.903627237119615
1621786102117.969,-0.030474757801470232,0.000707073657562923,-0.003,-1.412,-6.011,-6.894
1621786102121.211,-0.035,0.002,-0.003,-1.3963936535679846,-6.0150016272902604,-6.8980016272902605
1621786102126.226,-0.04,0.0,0.0,-1.372251356075217,-6.0211919599807135,-6.9041919599807136
1621786102131.242,-0.044,0.007,0.005,-1.3481055327868854,-6.027383196721312,-6.910383196721312
1621786102134.172,-0.044,0.009921331905364619,0.003247200856781229,-1.334,-6.031,-6.914
1621786102136.257,-0.044,0.012,0.002,-1.3201002185215884,-6.038593399140984,-6.932919147012282
1621786102141.271,-0.052,0.014,0.005,-1.2866740110014316,-6.056854012508477,-6.978415929470273
1621786102146.286,-0.054,0.016,0.01,-1.2532412930449852,-6.075118182503203,-7.0239215733554365
1621786102150.372,-0.05155521472392638,0.012740286298568507,0.013259713701431492,-1.226,-6.09,-7.061
1621786102151.3,-0.051,0.012,0.014,-1.2248542059173737,-6.0854741133736265,-7.069994483548616
1621786102156.313,-0.058,0.01,0.017,-1.218664626885918,-6.061025276199376,-7.118582678945544
1621786102161.326,-0.058,0.01,0.023,-1.2124750478544621,-6.036576439025126,-7.167170874342472
1621786102166.34,-0.061,0.005,0.023,-1.206283961595852,-6.012121648303616,-7.215770901472561
1621786102166.57,-0.06132114157697365,0.00486236789558272,0.023,-1.206,-6.011,-7.218
1621786102171.353,-0.068,0.002,0.023,-1.2119056174356038,-6.005389663436176,-7.2005784285649685
1621786102176.365,-0.066,0.003,0.021,-1.218093990685336,-5.999510708848931,-7.182322727478258
1621786102181.378,-0.066,0.007,0.021,-1.224283569716792,-5.993630608769047,-7.1640634693354635
1621786102182.768,-0.06461318135320766,0.008386818646792343,0.02155472745871694,-1.226,-5.992,-7.159
1621786102186.39,-0.061,0.012,0.023,-1.2128027954524894,-5.97880279545249,-7.123882015017641
1621786102191.402,-0.054,0.0,0.019,-1.1945393233014685,-5.960539323301468,-7.075282606073399
1621786102196.414,-0.061,0.007,0.023,-1.176276740749676,-5.9422767407496755,-7.0266855643677815
1621786102198.96,-0.061,0.008016126674786845,0.021983873325213156,-1.167,-5.933,-7.002
1621786102201.425,-0.061,0.009,0.021,-1.1639546071482432,-5.921122967878148,-6.9945387875131955
1621786102206.436,-0.068,0.019,0.017,-1.1577639873322274,-5.896979550595687,-6.979371768963957
1621786102211.446,-0.07,0.021,0.017,-1.1515745739707435,-5.872840838485899,-6.964207706228322
1621786102215.149,-0.07,0.027649276633055678,0.017,-1.147,-5.855,-6.953
1621786102216.458,-0.07,0.03,0.017,-1.1454635176303805,-5.850228817904866,-6.948228817904866
1621786102221.468,-0.08,0.037,0.019,-1.1395832202213978,-5.831968947003288,-6.929968947003288
1621786102226.477,-0.091,0.037,0.016,-1.1337040690133622,-5.813712635357283,-6.911712635357283
1621786102231.337,-0.09876024560206619,0.037,0.016970030700258272,-1.128,-5.796,-6.894
1621786102231.487,-0.099,0.037,0.017,-1.128,-5.795452632372907,-6.894547367627093
1621786102236.497,-0.11,0.045,0.021,-1.128,-5.777188354201237,-6.912811645798763
1621786102241.505,-0.119,0.051,0.017,-1.128,-5.758932086287524,-6.931067913712476
1621786102246.514,-0.133,0.054,0.024,-1.128,-5.740671368230503,-6.9493286317694976
1621786102247.521,-0.13541263342593945,0.054,0.023396841643515135,-1.128,-5.737,-6.953
1621786102251.523,-0.145,0.054,0.021,-1.1084600968720293,-5.7515930922094975,-6.974765968041284
1621786102256.531,-0.152,0.063,0.023,-1.0840078010652905,-5.769854933381619,-7.002003968433601
1621786102261.539,-0.162,0.065,0.016,-1.0595555052585517,-5.78811677455374,-7.029241968825917
1621786102263.701,-0.16286335494564425,0.06931677472822113,0.018158387364110566,-1.049,-5.796,-7.041
1621786102266.547,-0.164,0.075,0.021,-1.049,-5.826965545343415,-7.0548993072848285
1621786102271.554,-0.169,0.072,0.019,-1.049,-5.881438131027301,-7.0793500701770276
1621786102276.561,-0.168,0.066,0.021,-1.049,-5.935913372873938,-7.103802025324097
1621786102279.878,-0.16667511824077236,0.06997464527768296,0.02431220439806914,-1.049,-5.972,-7.12
1621786102281.568,-0.166,0.072,0.026,-1.049,-5.976074995849496,-7.134314729009765
1621786102286.575,-0.157,0.077,0.019,-1.049,-5.988146354347466,-7.176719244759044
1621786102291.582,-0.148,0.073,0.023,-1.049,-6.000218301462487,-7.219125828214377
1621786102296.054,-0.13906487804878048,0.0747870243902439,0.023,-1.049,-6.011,-7.257
1621786102296.587,-0.138,0.075,0.023,-1.0470555127798662,-6.010373809200296,-7.256340851789785
1621786102301.594,-0.126,0.073,0.017,-1.0287873092078446,-6.004490828388967,-7.250148240409438
1621786102306.599,-0.119,0.075,0.019,-1.0105262315624197,-5.998610142367559,-7.243958044597431
1621786102311.604,-0.112,0.075,0.016,-0.9922660446578196,-5.992729743194891,-7.237768150731465
1621786102312.225,-0.11125559619604974,0.075,0.015255596196049744,-0.99,-5.992,-7.237
1621786102316.61,-0.106,0.075,0.01,-0.99,-5.960000392559488,-7.226423858557797
1621786102321.614,-0.099,0.075,0.012,-0.99,-5.923484388211136,-7.214355009663003
1621786102326.618,-0.105,0.075,0.009,-0.99,-5.886968383862785,-7.202286160768209
1621786102328.395,-0.10357949943894229,0.07677562570132214,0.009,-0.99,-5.874,-7.198
1621786102331.622,-0.101,0.08,0.009,-0.9822153125943823,-5.862223165206886,-7.178438477801269
1621786102336.627,-0.108,0.08,0.002,-0.9701419208698279,-5.843958290546663,-7.148100211416491
1621786102341.63,-0.108,0.082,0.0,-0.9580732407127756,-5.825700543642404,-7.11777378435518
1621786102344.562,-0.11093026887229786,0.08844659151905529,-0.0011721075489191431,-0.951,-5.815,-7.1
1621786102346.633,-0.113,0.093,-0.002,-0.9485654492175699,-5.8175626850341375,-7.095002764183433
1621786102351.637,-0.122,0.098,-0.005,-0.9426832668720924,-5.823754455924114,-7.082928810947979
1621786102356.639,-0.133,0.101,-0.005,-0.9368033804603951,-5.82994381004169,-7.070859570418706
1621786102360.725,-0.13708358951837213,0.101,-0.010717025325720978,-0.932,-5.835,-7.061
1621786102361.642,-0.138,0.101,-0.012,-0.9375609977187231,-5.837213050112553,-7.063213050112553
1621786102366.644,-0.145,0.105,-0.012,-0.9678947893218112,-5.849284661056639,-7.075284661056639
1621786102371.646,-0.152,0.108,-0.014,-0.9982285809248992,-5.861356272000725,-7.087356272000725
1621786102376.648,-0.154,0.106,-0.021,-1.028562372527987,-5.873427882944811,-7.099427882944811
1621786102376.885,-0.15404740285100565,0.10652143136106229,-0.021568834212067955,-1.03,-5.874,-7.1
1621786102381.649,-0.155,0.117,-0.033,-1.0182059263512595,-5.8972932954562625,-7.1288954804394145
1621786102386.651,-0.145,0.112,-0.037,-1.0058225418939544,-5.9217504797594405,-7.159234772359812
1621786102391.651,-0.145,0.106,-0.037,-0.993443992807386,-5.946198114205413,-7.189562217621905
1621786102393.042,-0.145,0.10405244140625,-0.03922578125,-0.99,-5.953,-7.198
1621786102396.651,-0.145,0.099,-0.045,-0.9944678182285291,-5.953,-7.206712245545632
1621786102401.653,-0.14,0.101,-0.059,-1.0006605612730652,-5.953,-7.218788094482478
1621786102406.652,-0.133,0.105,-0.068,-1.0068493751038974,-5.953,-7.2308562814526
1621786102409.197,-0.12994609375,0.09787421874999999,-0.0700359375,-1.01,-5.953,-7.237
1621786102411.652,-0.127,0.091,-0.072,-1.01,-5.949959821023672,-7.2341118299724885
1621786102416.651,-0.122,0.087,-0.082,-1.01,-5.943769719140188,-7.228231233183179
1621786102421.651,-0.119,0.082,-0.091,-1.01,-5.937578105632312,-7.222349200350697
1621786102425.348,-0.11456184056271981,0.08865723915592028,-0.09691754591637358,-1.01,-5.933,-7.218
1621786102426.649,-0.113,0.091,-0.099,-1.003716086897365,-5.933,-7.211635523908869
1621786102431.648,-0.112,0.087,-0.112,-0.9795709555988934,-5.933,-7.187180839645033
1621786102436.647,-0.11,0.093,-0.113,-0.9554258243004218,-5.933,-7.162726155381197
1621786102441.497,-0.11,0.093,-0.11979279015240328,-0.932,-5.933,-7.139
1621786102441.645,-0.11,0.093,-0.12,-0.9302864789669459,-5.93389799497989,-7.13935736534914
1621786102446.642,-0.108,0.103,-0.119,-0.8724113164181813,-5.964228294069616,-7.151427586415459
1621786102451.64,-0.105,0.112,-0.124,-0.8145276710920253,-5.994563038679045,-7.163499576617172
1621786102456.638,-0.106,0.113,-0.117,-0.7566411981734055,-6.024899265128376,-7.17557215653068
1621786102457.643,-0.10539657025600938,0.11279885675200313,-0.11740228649599375,-0.745,-6.031,-7.178
1621786102461.635,-0.103,0.112,-0.119,-0.7061809012551036,-6.031,-7.221764206865266
1621786102466.631,-0.108,0.106,-0.122,-0.6575970815061243,-6.031,-7.2765370482383185
1621786102471.628,-0.11,0.113,-0.115,-0.6090061394223498,-6.031,-7.331317919249963
1621786102473.788,-0.10913526192337764,0.1108381548084441,-0.11110867865519937,-0.588,-6.031,-7.355
1621786102476.624,-0.108,0.108,-0.106,-0.5416126094782858,-6.044881075193998,-7.356757098125823
1621786102481.62,-0.099,0.105,-0.101,-0.4598915730082137,-6.069335476258906,-7.359852591931507
1621786102486.616,-0.089,0.117,-0.093,-0.37817452994297296,-6.093788682327671,-7.362947934471857
1621786102489.928,-0.07971730205278592,0.12164134897360704,-0.0870325513196481,-0.324,-6.11,-7.365
1621786102491.611,-0.075,0.124,-0.084,-0.29322926784984793,-6.10384585356997,-7.357802777903863
1621786102496.606,-0.068,0.136,-0.077,-0.20191241129922988,-6.085582482259846,-7.336443919931007
1621786102501.6,-0.056,0.147,-0.068,-0.1106089449714796,-6.067321788994296,-7.315088193908584
1621786102506.064,-0.04170375800224796,0.1478935151248595,-0.05727781850168597,-0.029,-6.051,-7.296
1621786102506.596,-0.04,0.148,-0.056,-0.019306616834874182,-6.047109458457535,-7.291483015327816
1621786102511.59,-0.031,0.157,-0.042,0.07169285357623811,-6.010585861489809,-7.24907850020427
1621786102516.583,-0.019,0.168,-0.026,0.1626700812540665,-5.97407119187762,-7.2066843498918125
1621786102521.578,-0.014,0.164,-0.016,0.25368289730514915,-5.937542238496572,-7.164273615881614
1621786102522.199,-0.014248777625660082,0.16599022100528066,-0.014009778994719342,0.265,-5.933,-7.159
1621786102526.571,-0.016,0.18,0.0,0.28613677839146556,-5.938419686767042,-7.081769463569645
1621786102531.564,-0.021,0.192,0.009,0.31027505485359763,-5.944608988423999,-6.993571914958008
1621786102536.558,-0.033,0.209,0.03,0.3344192328062344,-5.95079980328365,-6.90535280320799
1621786102538.333,-0.03939996087445591,0.21362219396488483,0.035333300728713254,0.343,-5.953,-6.874
1621786102541.55,-0.051,0.222,0.045,0.3078953741826108,-5.98810462581739,-6.866221134051829
1621786102546.542,-0.075,0.232,0.056,0.2534228626786147,-6.042577137321385,-6.854150520707193
1621786102551.535,-0.103,0.243,0.066,0.19893969484136598,-6.097060305158633,-6.842077546015984
1621786102554.462,-0.11824795773614441,0.2488645991292863,0.06541354008707137,0.167,-6.129,-6.835
1621786102556.526,-0.129,0.253,0.065,0.12181676962209304,-6.170471293604651,-6.8864551235465115
1621786102561.518,-0.15,0.258,0.066,0.012530432412790726,-6.270779433139535,-7.010911518895349
1621786102566.509,-0.157,0.262,0.065,-0.09672918180717052,-6.37106304505814,-7.135337481831395
1621786102570.587,-0.157,0.260365895416524,0.05764652937435797,-0.186,-6.453,-7.237
1621786102571.5,-0.157,0.26,0.056,-0.21324345771747033,-6.473560031499879,-7.248667676278168
1621786102576.491,-0.157,0.26,0.037,-0.36215736309668045,-6.585942043251757,-7.312443693966562
1621786102581.481,-0.15,0.267,0.026,-0.5110421310879574,-6.698302065665132,-7.376207232856796
1621786102586.472,-0.129,0.265,0.017,-0.6599560364671675,-6.81068407741701,-7.43998325054519
1621786102586.708,-0.12791162221678493,0.2646214338145339,0.016195546855884514,-0.667,-6.816,-7.443
1621786102591.461,-0.106,0.257,0.0,-0.7392467774428574,-6.839001014859359,-7.437397188688105
1621786102596.45,-0.087,0.239,-0.014,-0.8150821430194338,-6.863144519002105,-7.4315160787046155
1621786102601.44,-0.056,0.232,-0.033,-0.8909323528075251,-6.88729274905709,-7.425633817537376
1621786102602.826,-0.04822138487888427,0.23061096158551506,-0.0388339613408368,-0.912,-6.894,-7.424
1621786102606.429,-0.028,0.227,-0.054,-0.9164713759827908,-6.889528624017209,-7.3341253427459066
1621786102611.418,-0.002,0.211,-0.066,-0.9226627683264911,-6.883337231673509,-7.20967835663753
1621786102616.406,0.014,0.201,-0.08,-0.9288529487509658,-6.877147051249034,-7.0852557301055885
1621786102618.942,0.01755806214827502,0.19439217029606068,-0.09169077563004649,-0.932,-6.874,-7.022
1621786102621.395,0.021,0.188,-0.103,-0.9140351217442689,-6.826347399203018,-6.960645373414749
1621786102626.383,0.017,0.175,-0.119,-0.8775064167638904,-6.729453461416082,-6.835890558947863
1621786102631.37,0.016,0.159,-0.134,-0.8409848634070213,-6.63257849361354,-6.711160169093471
1621786102635.055,0.011566532850288847,0.15234979927543327,-0.14360584549104083,-0.814,-6.561,-6.619
1621786102636.357,0.01,0.15,-0.147,-0.8131919084779149,-6.542737131600878,-6.603969497689219
1621786102641.345,0.0,0.126,-0.161,-0.8100960678839306,-6.472771134176831,-6.546386862641109
1621786102646.332,-0.017,0.113,-0.178,-0.8070008333964694,-6.402818834760209,-6.488815501174331
1621786102651.167,-0.04318165793468148,0.10524247172305734,-0.189636292415414,-0.804,-6.335,-6.433
1621786102651.318,-0.044,0.105,-0.19,-0.8034464670041529,-6.333527039316135,-6.432446467004152
1621786102656.305,-0.065,0.103,-0.208,-0.7851807723786717,-6.284921716329686,-6.414180772378671
1621786102661.291,-0.089,0.106,-0.209,-0.7669177604656098,-6.236323532086453,-6.3959177604656094
1621786102666.276,-0.117,0.094,-0.225,-0.7486592197399133,-6.187737245748583,-6.377659219739913
1621786102667.275,-0.12180963808217837,0.09199598413242568,-0.22780562221460404,-0.745,-6.178,-6.374
1621786102671.261,-0.141,0.084,-0.239,-0.7303971288239396,-6.1658721917351365,-6.369297380468726
1621786102676.247,-0.169,0.08,-0.255,-0.7121307946517903,-6.150701846405724,-6.3634150016675255
1621786102681.232,-0.192,0.079,-0.269,-0.6938689324803687,-6.1355352151108145,-6.357534063002153
1621786102683.38,-0.20104656514713803,0.07813842236693924,-0.2720155217157127,-0.686,-6.129,-6.355
1621786102686.218,-0.213,0.077,-0.276,-0.6324204493768762,-6.141161148003275,-6.351475029564268
1621786102691.202,-0.234,0.086,-0.283,-0.5383324539858698,-6.162516646957155,-6.345285029867491
1621786102696.185,-0.257,0.091,-0.298,-0.4442582855756694,-6.18386900755026,-6.3390959398405045
1621786102699.483,-0.2708957578132654,0.091,-0.3019702165180758,-0.382,-6.198,-6.335
1621786102701.169,-0.278,0.091,-0.304,-0.34712755891183694,-6.204178600673279,-6.351441361113638
1621786102706.153,-0.293,0.096,-0.312,-0.24404026021290146,-6.222443317259576,-6.400044081521244
1621786102711.136,-0.309,0.098,-0.319,-0.1409782094440906,-6.2407035604888845,-6.448634898250083
1621786102715.583,-0.31703209211170996,0.10424718275355217,-0.3243547280744733,-0.049,-6.257,-6.492
1621786102716.119,-0.318,0.105,-0.325,-0.04314107405553787,-6.259596569452659,-6.496227747698561
1621786102721.103,-0.33,0.106,-0.333,0.01135094104978994,-6.283746439783429,-6.53554869041661
1621786102726.085,-0.333,0.098,-0.342,0.06581893322413818,-6.30788566358797,-6.5748522984060545
1621786102731.067,-0.33,0.093,-0.342,0.12028692539848641,-6.332024887392511,-6.614155906395498
1621786102731.681,-0.33061633093172577,0.09373959711807087,-0.34310939567710635,0.127,-6.335,-6.619
1621786102736.048,-0.335,0.099,-0.351,0.16444700474810758,-6.345582849167943,-6.619
1621786102741.031,-0.33,0.089,-0.354,0.20717360173541058,-6.357657757012181,-6.619
1621786102746.012,-0.333,0.096,-0.361,0.24988345140395324,-6.369727931918508,-6.619
1621786102747.775,-0.333,0.09245994705363271,-0.3599379841160898,0.265,-6.374,-6.619
1621786102750.992,-0.333,0.086,-0.358,0.28839147916066094,-6.397591406332974,-6.61120284027978
1621786102755.974,-0.326,0.077,-0.354,0.32461747257582424,-6.434127023623481,-6.5991275091413915
1621786102760.954,-0.323,0.073,-0.346,0.36082748941722675,-6.470646527788314,-6.587057503527591
1621786102763.866,-0.3148140013726836,0.07241528581233454,-0.34892357093832727,0.382,-6.492,-6.58
1621786102765.934,-0.309,0.072,-0.351,0.38585623890381027,-6.503311634117844,-6.5901547624467005
1621786102770.915,-0.297,0.063,-0.342,0.39514380661901943,-6.530555166082457,-6.614612024096751
1621786102775.894,-0.286,0.042,-0.339,0.4044277325078527,-6.557788015356368,-6.639059695604012
1621786102779.955,-0.2819226394744583,0.03302980684380821,-0.3373690557897833,0.412,-6.58,-6.659
1621786102780.874,-0.281,0.031,-0.337,0.412,-6.585599829973281,-6.661228503764877
1621786102785.853,-0.269,0.016,-0.326,0.412,-6.615940672820015,-6.673302920816128
1621786102790.832,-0.262,0.012,-0.321,0.412,-6.646281515666748,-6.685377337867379
1621786102795.81,-0.253,-0.007,-0.323,0.412,-6.676616407578334,-6.697449386689337
1621786102796.037,-0.2528632218844985,-0.008367781155015198,-0.32258966565349545,0.412,-6.678,-6.698
1621786102800.79,-0.25,-0.037,-0.314,0.4235263469508585,-6.747749176420579,-6.686473653049141
1621786102805.767,-0.236,-0.051,-0.316,0.43559621077560684,-6.820787326744698,-6.674403789224393
1621786102810.745,-0.225,-0.068,-0.309,0.447668442865601,-6.8938398081097905,-6.662331557134399
1621786102812.119,-0.2203073828795683,-0.0749009075300466,-0.30761981849399067,0.451,-6.914,-6.659
1621786102815.722,-0.208,-0.093,-0.304,0.464220801700577,-6.995341542666262,-6.650036744609778
1621786102820.7,-0.188,-0.101,-0.304,0.48248697236562405,-7.107724931673246,-6.637652900091102
1621786102825.677,-0.157,-0.124,-0.293,0.5007495596720316,-7.220086273914363,-6.625271484968114
1621786102828.198,-0.1402814247865764,-0.13818545775684427,-0.2894536355607889,0.51,-7.277,-6.619
1621786102830.653,-0.124,-0.152,-0.286,0.49350649232311267,-7.314415827600347,-6.6101423755068565
1621786102835.63,-0.073,-0.183,-0.283,0.46007171169529365,-7.390263246617158,-6.59218665998451
1621786102840.606,-0.019,-0.211,-0.276,0.42664185156499157,-7.466099503394232,-6.57423358695157
1621786102844.274,0.022278775390050045,-0.2331136296732411,-0.27452575802178397,0.402,-7.522,-6.561
1621786102845.582,0.037,-0.241,-0.274,0.4043601731601732,-7.533149783549784,-6.531457142857143
1621786102850.558,0.098,-0.267,-0.264,0.41333834586466167,-7.575563909774436,-6.419075187969925
1621786102855.533,0.168,-0.291,-0.258,0.4223143160932635,-7.61796763119921,-6.306720802005013
1621786102860.347,0.23670046128177447,-0.3287368730984395,-0.2570323878692708,0.431,-7.659,-6.198
1621786102860.508,0.239,-0.33,-0.257,0.43140109998632614,-7.656834060073838,-6.190720035248181
1621786102865.483,0.307,-0.374,-0.255,0.4437847582005196,-7.589962305717194,-5.965956638660569
1621786102870.458,0.354,-0.407,-0.25,0.4561690241419651,-7.523087269633388,-5.741182211823334
1621786102875.432,0.405,-0.445,-0.255,0.4685502514471505,-7.456228642185387,-5.516462936234219
1621786102876.416,0.4125197839960727,-0.451926116838488,-0.2542084437898871,0.471,-7.443,-5.472
1621786102880.405,0.443,-0.48,-0.251,0.44418626348579243,-7.333510575900319,-5.238372906853062
1621786102885.38,0.473,-0.525,-0.255,0.4107458137061237,-7.1969620726333385,-4.947007506457985
1621786102890.353,0.496,-0.565,-0.255,0.37731685154231875,-7.060460477131135,-4.655742197234463
1621786102892.483,0.5049942559772203,-0.5885563847022436,-0.2579980853257401,0.363,-7.002,-4.531
1621786102895.326,0.517,-0.62,-0.262,0.6337974891327476,-6.778105343952336,-4.661088989877496
1621786102900.299,0.529,-0.684,-0.274,1.107489619114205,-6.3864579292944645,-4.888646973888196
1621786102905.271,0.485,-0.75,-0.311,1.5810654770951758,-5.994906648022616,-5.1161491017418
1621786102908.546,0.4309989199273406,-0.6986331189552752,-0.31297564927095095,1.893,-5.737,-5.266
1621786102910.244,0.403,-0.672,-0.314,1.7146368459456995,-5.358493721686783,-5.903645632543857
1621786102915.216,0.421,-0.471,-0.145,1.192344395123286,-4.250131555744733,-7.770833404274725
1621786102920.188,0.449,-0.424,0.044,0.6700775896141802,-3.1418238119850415,-9.637929494390564
1621786102924.606,0.21259039339914543,-0.5093207602770001,-0.0617621924266981,0.206,-2.157,-11.297
1621786102925.159,0.183,-0.52,-0.075,0.21274906503694244,-2.2677741950196113,-11.260190048344432
1621786102930.13,-0.258,-0.506,-0.267,0.2734191370975098,-3.2635681838912705,-10.929290522667154
1621786102935.102,-0.614,-0.326,-0.25,0.33410410775639277,-4.259606707409772,-10.59830973881845
1621786102940.072,-0.737,-0.08,-0.126,0.3947622609383077,-5.255205068563957,-10.267475219678312
1621786102940.665,-0.7248293461708503,-0.06257926020533477,-0.11967603281426537,0.402,-5.374,-10.228
1621786102945.042,-0.635,0.066,-0.073,0.1053674893927643,-5.823311008713901,-10.749560655139376
1621786102950.012,-0.435,0.168,-0.089,-0.23145468923460621,-6.333497543987712,-11.34178568061195
1621786102954.982,-0.197,0.208,-0.126,-0.5682768678619766,-6.843684079261523,-11.934010706084523
1621786102956.719,-0.10612708159355505,0.19192248366655204,-0.15221334184801297,-0.686,-7.022,-12.141
1621786102959.952,0.063,0.162,-0.201,-0.8481189907684821,-6.952721822578438,-11.769636746612322
1621786102964.922,0.333,0.075,-0.278,-1.0973576566848662,-6.846214864721001,-11.198709914376531
1621786102969.89,0.557,-0.026,-0.34,-1.3464738947272368,-6.739760223868112,-10.628063525618604
1621786102972.772,0.649222031150199,-0.08574131577654401,-0.36320051098118217,-1.491,-6.678,-10.297
1621786102974.859,0.716,-0.129,-0.38,-1.7370080619400374,-6.526260355029586,-9.936179507461098
1621786102979.828,0.796,-0.209,-0.419,-2.322759358695487,-6.16496449704142,-9.07705696597253
1621786102984.796,0.806,-0.297,-0.452,-2.908395537031685,-5.803739644970414,-8.218103268888518
1621786102988.822,0.7565650891935721,-0.3350891935721657,-0.4649665339820139,-3.383,-5.511,-7.522
1621786102989.764,0.745,-0.344,-0.468,-3.3887514641678202,-5.509884920212362,-7.440833929141884
1621786102994.731,0.641,-0.342,-0.436,-3.4190815674582047,-5.5040045940642255,-7.012808083727581
1621786102999.699,0.49,-0.344,-0.375,-3.4494176339048024,-5.498123111793967,-6.58469808479243
1621786103004.666,0.304,-0.349,-0.311,-3.479747737195187,-5.492242785645831,-6.156672239378128
1621786103004.871,0.29636175964610467,-0.3509405259277463,-0.30848144507249936,-3.481,-5.492,-6.139
1621786103009.633,0.119,-0.396,-0.25,-3.4753616875608566,-5.84394939751704,-6.389163020326193
1621786103014.599,-0.031,-0.456,-0.169,-3.4694817125121715,-6.210983629503408,-6.650048229065239
1621786103019.566,-0.141,-0.518,-0.08,-3.4636008702531647,-6.578071993670886,-6.910971914556963
1621786103020.918,-0.15488788906918424,-0.5384233662782121,-0.05358577961351232,-3.462,-6.678,-6.982
1621786103024.531,-0.192,-0.593,0.017,-3.5259469912514265,-6.73992050209205,-7.353072681627996
1621786103029.497,-0.208,-0.689,0.079,-3.6138411563332067,-6.825029288702929,-7.8631064282997345
1621786103034.463,-0.213,-0.77,0.094,-3.7017310003803727,-6.910133891213389,-8.373115100798783
1621786103036.964,-0.2084661454491813,-0.7936767959876088,0.08996990706593892,-3.746,-6.953,-8.63
1621786103039.428,-0.204,-0.817,0.086,-3.55510176547449,-6.867287459357623,-8.771372025889574
1621786103044.394,-0.182,-0.841,0.077,-3.1703355161202103,-6.694528958643533,-9.05631538484913
1621786103049.358,-0.154,-0.846,0.065,-2.78573950894892,-6.521846895985901,-9.341132668874776
1621786103053.033,-0.11863491752728697,-0.8401058195878811,0.06721031765454456,-2.501,-6.394,-9.552
1621786103054.346,-0.106,-0.838,0.068,-2.4100130857675097,-6.362548747156098,-9.476287062344444
1621786103059.296,-0.068,-0.826,0.068,-2.0669934342123346,-6.243977874822495,-9.190850132079216
1621786103064.245,-0.044,-0.808,0.061,-1.7240245377227406,-6.125424546884305,-8.90545543662488
1621786103069.022,-0.033382566227615804,-0.782904247447092,0.04941734497558088,-1.393,-6.011,-8.63
1621786103069.194,-0.033,-0.782,0.049,-1.384127605956472,-6.0031935853379155,-8.617638946162659
1621786103074.142,-0.023,-0.761,0.051,-1.1290683008781979,-5.778778541428026,-8.262289331806034
1621786103079.09,0.0,-0.733,0.065,-0.8740089957999236,-5.554363497518136,-7.906939717449409
1621786103084.037,-0.005,-0.707,0.091,-0.6190000305460099,-5.329992745322642,-7.551660236731577
1621786103085.007,-0.010098114697463231,-0.7038626986477149,0.0992354160497483,-0.569,-5.286,-7.482
1621786103088.984,-0.031,-0.691,0.133,-0.45900980781569856,-5.185963671361789,-7.2406188090073025
1621786103093.931,-0.079,-0.674,0.195,-0.3221854929878701,-5.061521647468606,-6.940348253842158
1621786103098.877,-0.14,-0.644,0.243,-0.18538818784564148,-4.937104188945583,-6.640136973326407
1621786103100.988,-0.16304842292314528,-0.6337562564786021,0.2630606643960709,-0.127,-4.884,-6.512
1621786103103.823,-0.194,-0.62,0.29,-0.10960985971453896,-4.869981417524985,-6.445810996668602
1621786103108.769,-0.255,-0.592,0.33,-0.07926996546349216,-4.845523747669549,-6.330333644060026
1621786103113.713,-0.325,-0.567,0.363,-0.048943549619487145,-4.821076943060607,-6.214907591919069
1621786103116.964,-0.3637982321860649,-0.5531904597303837,0.39653745494049675,-0.029,-4.805,-6.139
1621786103118.657,-0.384,-0.546,0.414,-0.03525381781494107,-4.839342999526116,-6.170163092162588
1621786103123.601,-0.431,-0.522,0.457,-0.053518320925753246,-4.939642982710915,-6.261176039867313
1621786103128.545,-0.466,-0.496,0.504,-0.07178192213033309,-5.0399380130547105,-6.352184493327423
1621786103132.935,-0.489091420951252,-0.47202044747369976,0.5288676841013483,-0.088,-5.129,-6.433
1621786103133.488,-0.492,-0.469,0.532,-0.11383781882683956,-5.1354421371337695,-6.454058168695333
1621786103138.431,-0.51,-0.433,0.552,-0.3447925561196403,-5.193026026056639,-6.642289375496972
1621786103143.373,-0.49,-0.403,0.555,-0.5757130711358494,-5.250601382347544,-6.830492690684446
1621786103148.315,-0.452,-0.377,0.548,-0.8066221787265276,-5.308173894427794,-7.018686708667197
1621786103148.901,-0.4439379538605938,-0.373087536432347,0.548,-0.834,-5.315,-7.041
1621786103153.257,-0.384,-0.344,0.548,-1.0132676739100515,-5.320457159023137,-7.089295857354763
1621786103158.198,-0.309,-0.316,0.536,-1.2165977856957166,-5.326646812349946,-7.14407428929702
1621786103163.139,-0.236,-0.298,0.517,-1.419927897481382,-5.332836465676754,-7.198852721239277
1621786103164.866,-0.21257731653076353,-0.29380489251297254,0.5065122312824314,-1.491,-5.335,-7.218
1621786103168.079,-0.169,-0.286,0.487,-1.6093789389952886,-5.2540674600746495,-7.079689913112648
1621786103173.018,-0.124,-0.265,0.473,-1.7913412470170718,-5.129664657651594,-6.867091094046381
1621786103177.958,-0.093,-0.255,0.469,-1.9733395337453346,-5.005237257541455,-6.654450238634277
1621786103180.826,-0.08893529411764706,-0.24280588235294118,0.4655159663865546,-2.079,-4.933,-6.531
1621786103182.897,-0.086,-0.234,0.463,-2.1362438946015425,-4.836165656751132,-6.435593508997429
1621786103187.835,-0.091,-0.218,0.452,-2.2727303984575835,-4.605283725058147,-6.208116002570694
1621786103192.774,-0.112,-0.201,0.442,-2.4092438946015426,-4.3743561329416085,-5.98059350899743
1621786103196.781,-0.14284234991593314,-0.1936952329146474,0.4476814855108298,-2.52,-4.187,-5.796
1621786103197.711,-0.15,-0.192,0.449,-2.526880187365102,-4.181285946086611,-5.771394584168874
1621786103202.648,-0.208,-0.168,0.466,-2.56340713640608,-4.150950005357663,-5.640764308785036
1621786103207.586,-0.284,-0.152,0.489,-2.5999413106372558,-4.120608064047025,-5.5101081941616785
1621786103212.522,-0.374,-0.131,0.506,-2.636461034488037,-4.0902781238997665,-5.379503758017359
1621786103212.73,-0.37766623800573745,-0.13032574933227817,0.5066742506677219,-2.638,-4.089,-5.374
1621786103217.458,-0.461,-0.115,0.522,-2.7050134586823047,-4.260684922907321,-5.487567056085498
1621786103222.393,-0.538,-0.099,0.536,-2.7749613082022937,-4.439887599332425,-5.606106995758754
1621786103227.329,-0.604,-0.072,0.553,-2.844922999188498,-4.619125736859028,-5.724670392430065
1621786103228.675,-0.6143663714186748,-0.07009040526498095,0.5546367954871593,-2.864,-4.668,-5.757
1621786103232.263,-0.642,-0.065,0.559,-2.8770543082059605,-4.974776242840077,-5.955515514442368
1621786103237.198,-0.651,-0.061,0.562,-2.8950102000183784,-5.396739700431892,-6.228568903727754
1621786103242.132,-0.623,-0.056,0.567,-2.9129625386712408,-5.81861965877416,-6.501568260483352
1621786103244.616,-0.5922841375897056,-0.053482306359811924,0.5690141549121505,-2.922,-6.031,-6.639
1621786103247.065,-0.562,-0.051,0.571,-2.899412502680678,-6.23444113231825,-6.745944885266995
1621786103251.997,-0.476,-0.061,0.569,-2.853922260347416,-6.644162770748445,-6.961327257130603
1621786103256.931,-0.361,-0.052,0.555,-2.808416255629423,-7.054026377868325,-7.176784259060691
1621786103260.554,-0.26256618156618156,-0.043185031185031184,0.5447158697158697,-2.775,-7.355,-7.335
1621786103261.863,-0.227,-0.04,0.541,-2.743614446385339,-7.393697894640066,-7.368028776316999
1621786103266.794,-0.07,-0.012,0.511,-2.6253947473261623,-7.53946092672612,-7.492437988415923
1621786103271.726,0.087,0.019,0.476,-2.507145781618706,-7.685260044129815,-7.616877999448377
1621786103276.487,0.24537983459614718,0.05473203585400882,0.43061065715842123,-2.393,-7.826,-7.737
1621786103276.656,0.251,0.056,0.429,-2.3953862434673328,-7.823603151006146,-7.7278474306119636
1621786103281.587,0.414,0.094,0.384,-2.4650321384235774,-7.753647718738984,-7.460716731290901
1621786103286.516,0.56,0.131,0.342,-2.5346538950788515,-7.683716532054131,-7.193678615764226
1621786103291.447,0.693,0.159,0.297,-2.604299790035096,-7.613761099786969,-6.926547916443163
1621786103292.417,0.713273420857072,0.162149269259351,0.28735536289323754,-2.618,-7.6,-6.874
1621786103296.375,0.796,0.175,0.248,-2.6838630363795244,-7.409867083659108,-6.48404111668123
1621786103301.304,0.887,0.169,0.201,-2.7658830734795874,-7.173092259577795,-5.998420595134066
1621786103306.233,0.949,0.169,0.173,-2.84790311057965,-6.936317435496481,-5.512800073586901
1621786103308.342,0.9699715630418627,0.17456388407233095,0.1618722318553381,-2.883,-6.835,-5.305
1621786103311.161,0.998,0.182,0.147,-2.7893273112079013,-6.65438347340654,-5.089676768296424
1621786103316.088,1.033,0.19,0.126,-2.62559887430219,-6.338687810563769,-4.713318017299552
1621786103321.015,1.044,0.197,0.122,-2.461870437396479,-6.022992147720999,-4.3369592663026815
1621786103324.261,1.0380704623160397,0.2121532629701204,0.12792953768396018,-2.354,-5.815,-4.089
1621786103325.942,1.035,0.22,0.131,-2.294963385077924,-5.687632991778132,-4.0290128850165665
1621786103330.868,1.002,0.255,0.148,-2.1219522334028715,-5.314374585838753,-3.8532162228494298
1621786103335.794,0.946,0.293,0.182,-1.9489410817278192,-4.941116179899375,-3.677419560682292
1621786103340.177,0.845435433500223,0.3285980766370892,0.2327272592078521,-1.795,-4.609,-3.521
1621786103340.719,0.833,0.333,0.239,-1.7879833067386768,-4.502795875782496,-3.6509110101877993
1621786103345.644,0.653,0.36,0.358,-1.7242230575672026,-3.5377256965754267,-4.8314041671781025
1621786103350.569,0.394,0.367,0.454,-1.6604628083957285,-2.5726555173683567,-6.011897324168405
1621786103355.493,0.147,0.435,0.438,-1.5967183625874555,-1.6078245366392538,-7.1920978887934215
1621786103356.089,0.1221743119266055,0.45122752293577983,0.4350935779816514,-1.589,-1.491,-7.335
1621786103360.416,-0.058,0.569,0.414,-1.1700422742762409,-1.6564066865195102,-8.62098257759494
1621786103365.339,-0.288,0.637,0.504,-0.6933575967826112,-1.8446042734780341,-10.08415690909649
1621786103370.262,-0.515,0.517,0.621,-0.21669655849937053,-2.0327925275534953,-11.547258680502257
1621786103371.994,-0.5593265063228366,0.46211956360029754,0.641404264815274,-0.049,-2.099,-12.062
1621786103375.185,-0.641,0.361,0.679,-0.2025167728563752,-3.20692954632686,-12.203676917172027
1621786103380.106,-0.607,0.298,0.731,-0.4392457204268058,-4.915400813694634,-12.42214833806709
1621786103385.029,-0.436,0.239,0.808,-0.6760803715360405,-6.624634942811085,-12.64071731020189
1621786103387.896,-0.30197409686383486,0.1690734418420008,0.8272298034934498,-0.814,-7.62,-12.768
1621786103389.949,-0.206,0.119,0.841,-0.8646270618952542,-7.4388016126555065,-12.861763385040701
1621786103394.87,0.07,-0.003,0.801,-0.985983904162187,-7.004455567501152,-13.08652121025956
1621786103399.791,0.361,-0.094,0.745,-1.107334725848564,-6.570131070496084,-13.311267885117493
1621786103403.792,0.5773593408775064,-0.13222890609489774,0.7067710939051022,-1.206,-6.217,-13.494
1621786103404.71,0.627,-0.141,0.698,-1.1759652831116163,-6.235713938984301,-13.27763452026176
1621786103409.629,0.82,-0.136,0.648,-1.0150239331469477,-6.335992780116133,-12.118237795323973
1621786103414.549,0.939,-0.122,0.579,-0.8540426433991828,-6.4362965068051246,-10.958553350333343
1621786103419.467,0.984,-0.129,0.515,-0.6931332452609912,-6.536555439491229,-9.799386801437832
1621786103419.685,0.9817834590945195,-0.12731542891183478,0.5127391282764099,-0.686,-6.541,-9.748
1621786103424.385,0.934,-0.091,0.464,-0.24525707963921878,-6.639501605691369,-8.964719964352115
1621786103429.303,0.801,-0.012,0.454,0.21593067100997232,-6.742572425131759,-8.145105760513822
1621786103434.22,0.611,0.105,0.473,0.6770268434719812,-6.8456227777692416,-7.325654307708854
1621786103435.574,0.5523456802383316,0.14189990069513406,0.4853917576961271,0.804,-6.874,-7.1
1621786103439.137,0.398,0.239,0.518,0.6236416065911432,-6.874,-7.02731825937255
1621786103444.053,0.182,0.368,0.543,0.37479299691040163,-6.874,-6.9270359838295645
1621786103448.969,-0.01,0.506,0.529,0.12594438722966017,-6.874,-6.82675370828658
1621786103451.457,-0.09401400476758043,0.5677452324195471,0.4986334922526818,0.0,-6.874,-6.776
1621786103453.885,-0.176,0.628,0.469,-0.265493633511718,-6.905504428861414,-7.139065602509688
1621786103458.8,-0.304,0.74,0.398,-0.8029413790982346,-6.969279910192532,-7.874031586393554
1621786103463.715,-0.394,0.843,0.323,-1.3403891246847512,-7.033055391523652,-8.608997570277419
1621786103467.333,-0.4212421622695881,0.9070558950663288,0.28692254185919414,-1.736,-7.08,-9.15
1621786103468.629,-0.431,0.93,0.274,-1.8048237356958288,-7.0616306755260245,-9.331733850129199
1621786103473.543,-0.415,1.014,0.236,-2.0658041712809156,-6.991973975636767,-10.020870801033592
1621786103478.457,-0.363,1.068,0.183,-2.3267846068660023,-6.922317275747509,-10.710007751937985
1621786103483.206,-0.2866380441264162,1.090231961836613,0.1259701848539058,-2.579,-6.855,-11.376
1621786103483.37,-0.284,1.091,0.124,-2.577273344103393,-6.850233602584814,-11.374376736672051
1621786103488.282,-0.185,1.063,0.045,-2.5255790137702903,-6.707532487114394,-11.32577787522117
1621786103493.194,-0.07,1.026,-0.024,-2.47388211400877,-6.5648242787906765,-11.27717659819986
1621786103498.106,0.049,0.974,-0.075,-2.422187783675667,-6.422123163320256,-11.22857773674898
1621786103499.074,0.07245570689998013,0.9651301948697554,-0.08012477629747465,-2.412,-6.394,-11.219
1621786103503.017,0.168,0.929,-0.101,-2.073237354384993,-6.194172291214626,-10.67046796854562
1621786103507.928,0.246,0.881,-0.117,-1.6513309327054768,-5.945300124647985,-9.987307680470277
1621786103512.839,0.284,0.848,-0.131,-1.2294035363094964,-5.696415585614699,-9.30411342966622
1621786103514.939,0.290842822336035,0.8347420317239321,-0.131,-1.049,-5.59,-9.012
1621786103517.749,0.3,0.817,-0.131,-0.9882242799304176,-5.419721670592219,-8.5950750165489
1621786103522.658,0.291,0.798,-0.117,-0.8820542188149447,-5.12225977924537,-7.866742206622639
1621786103527.568,0.284,0.784,-0.108,-0.7758577564309795,-4.824723918163764,-7.138228282455087
1621786103530.798,0.27412833905387257,0.7708377854051635,-0.10141889270258171,-0.706,-4.629,-6.659
1621786103532.476,0.269,0.764,-0.098,-0.7256849188506667,-4.545921175818422,-6.4970756675187085
1621786103537.384,0.236,0.744,-0.099,-0.7832618028394567,-4.30292196113455,-6.023459363739953
1621786103542.293,0.182,0.714,-0.099,-0.8408501432047057,-4.059874395614548,-5.5497488220258075
1621786103546.653,0.12868689984576348,0.6997831732922035,-0.099,-0.892,-3.844,-5.129
1621786103547.2,0.122,0.698,-0.099,-0.9014890398508866,-3.8382375648905525,-5.103948934793659
1621786103552.107,0.044,0.681,-0.084,-0.9866319916200688,-3.7865325723616308,-4.879171542123018
1621786103557.013,-0.042,0.661,-0.066,-1.0717579986752315,-3.734837869895405,-4.654438883497389
1621786103561.92,-0.141,0.628,-0.054,-1.1569009504444137,-3.6831328773664835,-4.4296614908267475
1621786103562.502,-0.15345683005722816,0.6232545409305797,-0.053762727046528985,-1.167,-3.677,-4.403
1621786103566.826,-0.246,0.588,-0.052,-1.2605963793236268,-3.7386699175718356,-4.480769586318465
1621786103571.731,-0.347,0.546,-0.054,-1.3667702180109391,-3.808627024112164,-4.568989831291888
1621786103576.636,-0.421,0.506,-0.044,-1.4729440566982512,-3.878584130652492,-4.657210076265311
1621786103578.348,-0.4408936837389876,0.4878513762381166,-0.04260395201831666,-1.51,-3.903,-4.688
1621786103581.541,-0.478,0.454,-0.04,-1.5218927487092548,-3.980202080604146,-4.846032457424674
1621786103586.444,-0.52,0.408,-0.045,-1.540154242120675,-4.098747029359636,-5.088693658010326
1621786103591.349,-0.538,0.363,-0.059,-1.5584230099406642,-4.217339200123295,-5.3314515219234035
1621786103594.189,-0.5327859348540691,0.33692967427034565,-0.07058681143540194,-1.569,-4.286,-5.472
1621786103596.251,-0.529,0.318,-0.079,-1.5038945485939812,-4.296156450419338,-5.55247033793784
1621786103601.154,-0.508,0.279,-0.119,-1.3490860261470152,-4.320306579921065,-5.74381367168229
1621786103606.056,-0.471,0.234,-0.161,-1.1943160458806117,-4.344450696842625,-5.935109367291564
1621786103610.025,-0.43052546930239505,0.20566782851167656,-0.18285624657670668,-1.069,-4.364,-6.09
1621786103610.959,-0.421,0.199,-0.188,-0.9902995127366927,-4.383114661074447,-6.080737648800345
1621786103615.86,-0.367,0.166,-0.213,-0.5773585086042063,-4.483409177820268,-6.032138145315487
1621786103620.761,-0.326,0.147,-0.213,-0.16443807438475289,-4.583698698575217,-5.983541062727441
1621786103625.662,-0.291,0.133,-0.211,0.24850292974773347,-4.683993215321038,-5.934941559242583
1621786103625.858,-0.2902407573492775,0.13276023916292976,-0.21044055804683606,0.265,-4.688,-5.933
1621786103630.562,-0.272,0.127,-0.197,0.463231675715696,-4.801529985192498,-5.7959913005923
1621786103635.462,-0.274,0.124,-0.18,0.6697144311451135,-4.919785476307996,-5.65327983094768
1621786103640.362,-0.276,0.129,-0.161,0.87620747470385,-5.038046859575519,-5.51056125061698
1621786103641.686,-0.2805953045558768,0.13008124813079455,-0.15721563154221913,0.932,-5.07,-5.472
1621786103645.26,-0.293,0.133,-0.147,0.8942793507275,-5.213880560398698,-5.516270941661138
1621786103650.159,-0.312,0.119,-0.122,0.842574825261144,-5.411100816219469,-5.576954097298298
1621786103655.058,-0.307,0.105,-0.106,0.7908677230717008,-5.608330900618722,-5.637640277113453
1621786103657.509,-0.29548853325356467,0.09248753614517898,-0.09999401734968591,0.765,-5.707,-5.668
1621786103659.955,-0.284,0.08,-0.094,0.6876964801012299,-5.7949714056448,-5.802971945743253
1621786103664.852,-0.232,0.058,-0.093,0.5329351264601947,-5.971089826088298,-6.073185269200501
1621786103669.75,-0.162,0.031,-0.096,0.3781429100504606,-6.147243368362576,-6.343452479051896
1621786103673.33,-0.08449007679265981,0.01491303480602374,-0.09965612845317642,0.265,-6.276,-6.541
1621786103674.646,-0.056,0.009,-0.101,0.2176550680786687,-6.272754916792738,-6.600576399394857
1621786103679.542,0.068,-0.031,-0.106,0.04150381302293993,-6.2606812806817125,-6.822235975176758
1621786103684.438,0.197,-0.084,-0.133,-0.13464744203278883,-6.248607644570687,-7.043895550958658
1621786103689.145,0.30758354114713216,-0.13592618453865338,-0.1531935162094763,-0.304,-6.237,-7.257
1621786103689.333,0.312,-0.138,-0.154,-0.3183398499027147,-6.236536273510609,-7.244170233793508
1621786103694.227,0.421,-0.201,-0.183,-0.6916601500972852,-6.224463726489391,-6.910163099539825
1621786103699.122,0.513,-0.269,-0.209,-1.0650549430186231,-6.212388770499398,-6.5760893171500046
1621786103704.016,0.593,-0.335,-0.243,-1.4383752432131938,-6.200316223478181,-6.242082182896322
1621786103704.955,0.6087363405019709,-0.35112015368494587,-0.24894910433611098,-1.51,-6.198,-6.178
1621786103708.909,0.675,-0.419,-0.274,-1.6473411650215488,-6.116946197692201,-5.819762207084048
1621786103713.802,0.749,-0.496,-0.304,-1.817306687056861,-6.016638676491033,-5.376427730664072
1621786103718.695,0.817,-0.578,-0.333,-1.987272209092173,-5.916331155289865,-4.9330932542440955
1621786103720.76,0.8406386684633428,-0.6096589309776913,-0.34439721515196886,-2.059,-5.874,-4.746
1621786103723.587,0.873,-0.653,-0.36,-1.813376716879104,-5.668807060641174,-4.854768358439553
1621786103728.479,0.925,-0.738,-0.379,-1.3883141599073001,-5.313711100811124,-5.0429970799536505
1621786103733.37,0.965,-0.817,-0.403,-0.9633364542294323,-4.958686025492469,-5.231188227114716
1621786103736.562,0.9741367244047322,-0.8541995207906954,-0.42388394149653075,-0.686,-4.727,-5.354
1621786103738.261,0.979,-0.874,-0.435,-0.6923467043838497,-4.1678445866567735,-6.20112367835281
1621786103743.152,0.979,-0.862,-0.38,-0.7106179898596426,-2.5581133679589443,-8.639875765164163
1621786103748.042,0.99,-0.695,-0.201,-0.7288847152661844,-0.9487838990910782,-11.078019198664439
1621786103752.356,0.870876404494382,-0.5882299625468165,-0.05275730337078652,-0.745,0.471,-13.229
1621786103752.931,0.855,-0.574,-0.033,-0.8542394429331025,0.33213013169284034,-13.102288070359837
1621786103757.82,0.368,-0.723,-0.201,-1.7831689903548904,-0.8487649777420553,-12.024779321750957
1621786103762.709,-0.232,-0.735,-0.585,-2.7120521516013354,-2.029601119080005,-10.947324378632372
1621786103767.597,-0.63,-0.417,-0.745,-3.640749768146408,-3.2102013880301716,-9.870084657474958
1621786103768.151,-0.6400859554490061,-0.35625761662171607,-0.7391070822095694,-3.746,-3.344,-9.748
1621786103772.485,-0.719,0.119,-0.693,-2.3462822396091045,-5.616105099579416,-10.552858300346363
1621786103777.373,-0.529,0.642,-0.45,-0.7677462580405736,-8.178478568777834,-11.460539708065314
1621786103782.26,-0.236,0.815,-0.225,0.810474347476497,-10.740340100816429,-12.368039769915883
1621786103783.94,-0.13319587268275618,0.7802735222105631,-0.23840923399790137,1.353,-11.621,-12.68
1621786103787.146,0.063,0.714,-0.264,0.3210795705910561,-11.208638096122018,-12.325328135876374
1621786103792.033,0.372,0.503,-0.449,-1.2518682846845175,-10.580078224820952,-11.784704719476542
1621786103796.919,0.675,0.239,-0.641,-2.824501817563073,-9.951643958729717,-11.244189335932061
1621786103799.723,0.8357176770453296,0.07885631465840373,-0.7070090459293318,-3.727,-9.591,-10.934
1621786103801.804,0.955,-0.04,-0.756,-3.548435816508084,-9.439734772182254,-10.608126959077898
1621786103806.689,1.189,-0.265,-0.756,-3.12927922951961,-9.084658992805755,-9.843181666279879
1621786103811.574,1.3,-0.428,-0.672,-2.710122642531137,-8.729583213429256,-9.07823637348186
1621786103815.503,1.2847154711322168,-0.5116626843289178,-0.5931640089977506,-2.373,-8.444,-8.463
1621786103816.458,1.281,-0.532,-0.574,-2.4021194849811978,-8.317533047555674,-8.358508875098654
1621786103821.342,1.15,-0.585,-0.483,-2.5510293257401075,-7.670812346213962,-7.8241671180303
1621786103826.225,0.942,-0.6,-0.412,-2.6999093919744968,-7.024220956684567,-7.28993220260295
1621786103831.107,0.712,-0.625,-0.339,-2.8487522400532352,-6.377791206920565,-6.755830839226853
1621786103831.279,0.7043158842057897,-0.6253172341382931,-0.3362858857057147,-2.854,-6.355,-6.737
1621786103835.99,0.494,-0.634,-0.262,-2.6078943132216823,-6.287500139305947,-7.029997182924187
1621786103840.872,0.305,-0.623,-0.131,-2.352847908862954,-6.217548091508529,-7.333638593938644
1621786103845.753,0.148,-0.628,0.012,-2.09786527567099,-6.147613534346655,-7.637204083212086
1621786103847.052,0.10674781173410693,-0.6335890061521533,0.038880458160356124,-2.03,-6.129,-7.718
1621786103850.634,-0.007,-0.649,0.113,-2.132480633121157,-6.189215893075624,-7.929550930012854
1621786103855.516,-0.166,-0.623,0.138,-2.2721551983149806,-6.271286313865787,-8.217881351732254
1621786103860.396,-0.267,-0.586,0.15,-2.4117669005250195,-6.35331979742601,-8.506082005296658
1621786103862.816,-0.2853518815052042,-0.5626881505204163,0.15446397117694155,-2.481,-6.394,-8.649
1621786103865.275,-0.304,-0.539,0.159,-2.4870842923746532,-6.357338238255293,-8.768345735041278
1621786103870.155,-0.272,-0.506,0.162,-2.4991592447452797,-6.284578909868187,-9.005200570003561
1621786103875.034,-0.204,-0.531,0.164,-2.511231176716594,-6.21183778132309,-9.241996158671643
1621786103878.578,-0.16476953105450176,-0.5433503328161754,0.14220529503027876,-2.52,-6.159,-9.414
1621786103879.912,-0.15,-0.548,0.134,-2.48925921621496,-6.078379542249701,-9.313563169231246
1621786103884.791,-0.089,-0.525,0.099,-2.3768486355817955,-5.783572730231044,-8.946293338292037
1621786103889.669,-0.026,-0.531,0.082,-2.2644605550648507,-5.488824926781646,-8.579097020129236
1621786103894.333,0.015122947537044452,-0.524305566680016,0.050440528634361236,-2.157,-5.207,-8.228
1621786103894.546,0.017,-0.524,0.049,-2.141767437534875,-5.194808543617087,-8.207590799181599
1621786103899.423,0.059,-0.48,0.024,-1.7927985150970303,-4.915509548019096,-7.740028179056358
1621786103904.299,0.068,-0.447,0.03,-1.4439169353338708,-4.636280457560915,-7.272582584165169
1621786103909.175,0.038,-0.414,0.04,-1.0950353555707113,-4.357051367102734,-6.805136989273978
1621786103910.084,0.02737457440416583,-0.407102793911476,0.04093205487682756,-1.03,-4.305,-6.718
1621786103914.051,-0.019,-0.377,0.045,-0.8521537579064864,-4.208771580057051,-6.369612814709165
1621786103918.926,-0.099,-0.351,0.054,-0.6336028463351111,-4.090518820538261,-5.941488295299516
1621786103923.801,-0.169,-0.316,0.089,-0.4150519347637357,-3.9722660610194716,-5.513363775889867
1621786103925.832,-0.20857857572115385,-0.29058638822115385,0.10274834735576922,-0.324,-3.923,-5.335
1621786103928.676,-0.264,-0.255,0.122,-0.2602218379216751,-4.057602636680884,-5.276461403644824
1621786103933.549,-0.367,-0.194,0.164,-0.1509410314075223,-4.288237766576192,-5.176158340442032
1621786103938.422,-0.463,-0.134,0.22,-0.04166022489336951,-4.518872896471501,-5.07585527723924
1621786103941.573,-0.5160232977604089,-0.09908221854802346,0.2503914023748685,0.029,-4.668,-5.011
1621786103943.295,-0.545,-0.08,0.267,-0.10185627414175574,-4.720517568217427,-5.142950390146286
1621786103948.168,-0.599,-0.024,0.312,-0.4721797154957107,-4.869142360734064,-5.516370181344337
1621786103953.041,-0.623,0.023,0.333,-0.8425031568496657,-5.017767153250702,-5.889789972542388
1621786103957.311,-0.6107275461106656,0.05192792702485967,0.3443958500400962,-1.167,-5.148,-6.217
1621786103957.912,-0.609,0.056,0.346,-1.226175713000031,-5.155143872389287,-6.254476678149148
1621786103962.784,-0.557,0.068,0.339,-1.7058066443223785,-5.213046379914967,-6.558232613350712
1621786103967.655,-0.475,0.075,0.312,-2.185365468764547,-5.270940182478354,-6.861942882413183
1621786103972.525,-0.38,0.08,0.283,-2.6648041150730846,-5.32881947677125,-7.165577041243832
1621786103973.045,-0.369964915797915,0.08138783079390538,0.27905002004811547,-2.716,-5.335,-7.198
1621786103977.396,-0.286,0.093,0.246,-2.878923451808164,-5.2047165606084125,-7.165359987583424
1621786103982.265,-0.187,0.094,0.204,-3.0612364581716593,-5.058928061462051,-7.1288354803662894
1621786103987.134,-0.084,0.084,0.168,-3.2435586062393296,-4.913132252056496,-7.092309141704175
1621786103988.775,-0.05468008825151682,0.07995587424158852,0.15721566464423609,-3.305,-4.864,-7.08
1621786103992.003,0.003,0.072,0.136,-3.3372267519483345,-4.666739435526439,-6.876786723383115
1621786103996.871,0.073,0.045,0.106,-3.3858276772130282,-4.369252243301146,-6.570322290185364
1621786104001.739,0.131,0.014,0.093,-3.434426165119384,-4.071779970192815,-6.26387322631726
1621786104004.501,0.13610642459501482,-0.0007518932744871865,0.08278715080997041,-3.462,-3.903,-6.09
1621786104006.607,0.14,-0.012,0.075,-3.4803497717462193,-3.8518349430141923,-5.9022162044657
1621786104011.474,0.122,-0.042,0.07,-3.522758889475482,-3.7335847023384368,-5.468219247849445
1621786104016.34,0.079,-0.054,0.061,-3.565157370889103,-3.615364119126735,-5.034331138784509
1621786104020.224,0.023136945071482312,-0.059586305492851765,0.06658630549285177,-3.599,-3.521,-4.688
1621786104021.207,0.009,-0.061,0.068,-3.578803463304765,-3.5885376897651153,-4.641777605522567
1621786104026.073,-0.08,-0.056,0.068,-3.478819068651827,-3.922887837482084,-4.412950346622985
1621786104030.938,-0.157,-0.07,0.087,-3.378854740105888,-4.257170883669231,-4.184169011612601
1621786104036.777,-0.222,-0.04,0.106,-3.258874469827712,-4.6583877058531025,-3.909578597127563
1621786104036.917,-0.2230078663213954,-0.03991601113988372,0.10669990716763571,-3.256,-4.668,-3.903
1621786104041.774,-0.258,-0.037,0.131,-3.1380668420893443,-5.066325257841092,-4.0651580921271515
1621786104046.771,-0.267,-0.035,0.15,-3.0167309681517103,-5.476143362671264,-4.231994918791399
1621786104051.768,-0.237,-0.019,0.134,-2.895395094214076,-5.885961467501437,-4.398831745455645
1621786104053.061,-0.22484134427510746,-0.017189136381398983,0.13011957796014068,-2.864,-5.992,-4.442
1621786104056.766,-0.19,-0.012,0.119,-2.785056343565704,-6.106743686677756,-4.757086163617118
1621786104061.762,-0.112,0.005,0.099,-2.678610373506729,-6.261461666414638,-5.181941735974596
1621786104066.76,-0.007,0.014,0.073,-2.572117586571904,-6.416247693936186,-5.606984167548768
1621786104069.206,0.051250000000000004,0.024279411764705886,0.05684663865546218,-2.52,-6.492,-5.815
1621786104071.757,0.112,0.035,0.04,-2.459629475021553,-6.572599391986932,-5.852296973546895
1621786104076.754,0.251,0.044,0.003,-2.341378586445241,-6.730473614955306,-5.92535249633226
1621786104081.751,0.391,0.047,-0.035,-2.223121920232315,-6.888355551522301,-5.998411588547575
1621786104085.348,0.497510550996483,0.0570753223915592,-0.05874897420867527,-2.138,-7.002,-6.051
1621786104086.749,0.539,0.061,-0.068,-2.1328788378353853,-6.954347152061466,-5.9428479990320335
1621786104091.746,0.689,0.072,-0.099,-2.114614341026649,-6.784394461417466,-5.557126591850933
1621786104096.743,0.822,0.075,-0.122,-2.0963507365619045,-6.614450074109925,-5.171424029764966
1621786104101.49,0.948321414615084,0.08639742086752637,-0.15524247753028525,-2.079,-6.453,-4.805
1621786104101.741,0.955,0.087,-0.157,-2.071676910977344,-6.420209352974984,-4.803180888714117
1621786104106.738,1.077,0.084,-0.188,-1.9258705042499775,-5.767330983998306,-4.766961462839166
1621786104111.734,1.161,0.099,-0.188,-1.780099715659881,-5.114612102604434,-4.730750884781753
1621786104116.732,1.141,0.113,-0.124,-1.634264814422699,-4.461606143561512,-4.694524380652772
1621786104117.632,1.1224461110025405,0.12596970881375807,-0.10544611100254055,-1.608,-4.344,-4.688
1621786104121.729,1.038,0.185,-0.021,-0.6945462891540755,-3.179276721569339,-6.6169380945898935
1621786104126.726,0.918,0.26,-0.017,0.41960486712948253,-1.7586488648910263,-8.969688521862757
1621786104131.722,0.757,0.314,-0.124,1.5334838543793579,-0.338368044527126,-11.321864210414871
1621786104133.774,0.5944179366940211,0.2947036440015631,-0.10306140093786635,1.991,0.245,-12.288
1621786104136.72,0.361,0.267,-0.073,1.7314749992437763,-0.7697391028161772,-12.191271272573278
1621786104141.717,-0.276,-0.017,0.171,1.2912696693789891,-2.490935751232645,-12.027200369037176
1621786104146.715,-0.841,-0.325,0.45,0.8509783115036753,-4.212468767960313,-11.863097401615294
1621786104149.916,-1.002460782876411,-0.4134190001466061,0.5685327175878415,0.569,-5.315,-11.758
1621786104151.711,-1.093,-0.463,0.635,-0.01996961079429438,-5.788310925895113,-11.994655462947556
1621786104156.708,-1.021,-0.557,0.696,-1.659663570769487,-7.10601060369995,-12.653505301849973
1621786104161.705,-0.71,-0.768,0.614,-3.2993575307446794,-8.423710281504787,-13.312355140752393
1621786104166.056,-0.29379645282650113,-0.956075243074217,0.4607535056432306,-4.727,-9.571,-13.886
1621786104166.702,-0.232,-0.984,0.438,-4.560579367720466,-9.478383996369686,-13.822801784903946
1621786104171.699,0.326,-1.126,0.281,-3.273240931780366,-8.76195755558917,-13.333935168658297
1621786104176.697,0.826,-1.161,0.232,-1.9856509151414308,-8.04539110573287,-12.844973014672515
1621786104181.693,1.122,-1.059,0.258,-0.6985640599001659,-7.329104674028135,-12.356201936166995
1621786104182.196,1.1316623833488055,-1.0389706845165387,0.26152274392925196,-0.569,-7.257,-12.307
1621786104186.69,1.218,-0.86,0.293,-0.0011061068933183593,-7.497241387132875,-10.046559601947916
1621786104191.688,1.185,-0.611,0.29,0.6304972928828529,-7.764434393998971,-7.5325303832309976
1621786104196.684,1.059,-0.344,0.271,1.261853876168295,-8.03152298781041,-5.019483590937963
1621786104198.339,0.9897758342698001,-0.24860976205599256,0.27265608051986123,1.471,-8.12,-4.187
1621786104201.681,0.85,-0.056,0.276,1.6881843964122034,-7.787080543917232,-4.3352402553204366
1621786104206.677,0.569,0.218,0.293,2.0128820504288116,-7.289355255396064,-4.5568642021992645
1621786104211.675,0.284,0.447,0.318,2.337706638633854,-6.791435390921603,-4.778574788619484
1621786104214.48,0.1441983580120217,0.5284105947319553,0.3258603332844647,2.52,-6.512,-4.903
1621786104216.671,0.035,0.592,0.332,2.2738060554732162,-6.566558966758416,-5.201174253652339
1621786104221.668,-0.166,0.672,0.318,1.7122841414355283,-6.690997670971839,-5.881253440609782
1621786104226.666,-0.337,0.709,0.26,1.1506524908502465,-6.815460693868909,-6.561465533407943
1621786104230.623,-0.45025957779515247,0.7129601250977325,0.20218217357310397,0.706,-6.914,-7.1
1621786104231.662,-0.48,0.714,0.187,0.6472903362424939,-6.982816480873655,-7.287523301014929
1621786104236.658,-0.581,0.703,0.147,0.36501217612269904,-7.313688578645652,-8.189142029555457
1621786104241.655,-0.62,0.716,0.157,0.08266504318364021,-7.644641522847246,-9.09098106272594
1621786104246.653,-0.578,0.737,0.187,-0.19973726801082992,-7.975659144192519,-9.992996339600381
1621786104246.764,-0.576491325807555,0.7371553046962811,0.18706655915554904,-0.206,-7.983,-10.013
1621786104251.649,-0.51,0.744,0.19,-0.9537878792461961,-7.647388199885054,-10.244508590701473
1621786104256.646,-0.429,0.728,0.161,-1.718729771015457,-7.304077573429323,-10.481327913729999
1621786104261.643,-0.354,0.7,0.101,-2.483671662784718,-6.960766946973592,-10.718147236758522
1621786104262.906,-0.33605136099301175,0.6924160680252163,0.0825457655280262,-2.677,-6.874,-10.778
1621786104266.639,-0.283,0.67,0.028,-2.704287879246196,-6.497751020902023,-10.582822287425513
1621786104271.635,-0.206,0.642,-0.037,-2.7408097341117394,-5.994182733899997,-10.321598172963489
1621786104276.633,-0.131,0.618,-0.099,-2.7773458664811397,-5.490417586738861,-10.060271938050152
1621786104279.048,-0.0981281825734252,0.5991470458876997,-0.12026999951131309,-2.795,-5.247,-9.934
1621786104281.629,-0.063,0.579,-0.143,-2.6538145599201366,-5.1058145599201366,-9.54514044136554
1621786104286.626,-0.017,0.56,-0.178,-2.3804455704626926,-4.832445570462692,-8.79221475352805
1621786104291.623,-0.003,0.557,-0.218,-2.1070765810052485,-4.5590765810052485,-8.03928906569056
1621786104295.189,-0.019416849924253528,0.560568880418316,-0.23441684992425352,-1.912,-4.364,-7.502
1621786104296.619,-0.026,0.562,-0.241,-1.8798400998336107,-4.301452094993193,-7.311698441990622
1621786104301.616,-0.07,0.564,-0.262,-1.767453410981697,-4.082870821358342,-6.646666464982605
1621786104306.613,-0.154,0.578,-0.267,-1.6550667221297837,-3.864289547723491,-5.9816344879745875
1621786104311.329,-0.25217563407125054,0.5827199824072716,-0.27077598592581736,-1.549,-3.658,-5.354
1621786104311.609,-0.258,0.583,-0.271,-1.5473010664851372,-3.6588494667574314,-5.342454186521444
1621786104316.605,-0.384,0.567,-0.276,-1.516963391574011,-3.6740183042129946,-5.13628182437032
1621786104321.603,-0.525,0.55,-0.274,-1.4866138567430602,-3.6891930716284698,-4.930028863172226
1621786104326.599,-0.663,0.529,-0.267,-1.456276181831934,-3.704361909084033,-4.723856501021102
1621786104327.468,-0.6852622293896301,0.5265650686605092,-0.26526076332893517,-1.451,-3.707,-4.688
1621786104331.595,-0.791,0.515,-0.257,-1.471198992633824,-3.8698703583258967,-4.913512803835856
1621786104336.592,-0.874,0.483,-0.246,-1.4956566938423608,-4.067079923766884,-5.186572202138763
1621786104341.589,-0.922,0.44,-0.241,-1.5201143950508977,-4.264289489207871,-5.459631600441668
1621786104343.609,-0.925234325367737,0.4250412451742169,-0.24221287201290131,-1.53,-4.344,-5.57
1621786104346.585,-0.93,0.403,-0.244,-1.5408783313670327,-4.47066802795172,-5.763413044135887
1621786104351.582,-0.925,0.361,-0.255,-1.55914393320628,-4.6833539341138035,-6.088169253108267
1621786104356.578,-0.888,0.316,-0.264,-1.5774050730556313,-4.895987884563027,-6.4128461294128325
1621786104359.75,-0.8549841673182174,0.2956825645035184,-0.276063477326036,-1.589,-5.031,-6.619
1621786104361.574,-0.836,0.284,-0.283,-1.5457170430652407,-5.069762543677865,-6.657875554009287
1621786104366.572,-0.764,0.243,-0.311,-1.4271132826090245,-5.175979488420638,-6.764402169144897
1621786104371.568,-0.674,0.201,-0.347,-1.3085558698513062,-5.282154925955618,-6.870887156060446
1621786104375.89,-0.5918180129990714,0.17245257293651958,-0.3772775741582368,-1.206,-5.374,-6.963
1621786104376.564,-0.579,0.168,-0.382,-1.153589693559609,-5.374835224007018,-6.943330474634722
1621786104381.56,-0.496,0.134,-0.415,-0.7651346008409716,-5.381025743412892,-6.797543742626373
1621786104386.557,-0.419,0.11,-0.429,-0.3766225610309466,-5.3872171703421365,-6.65173563844269
1621786104391.553,-0.358,0.103,-0.435,0.011832531687690828,-5.393407689748011,-6.505948906434341
1621786104392.031,-0.3546511923377639,0.10233023846755276,-0.43461727912431586,0.049,-5.394,-6.492
1621786104396.549,-0.323,0.096,-0.431,0.36196356018091336,-5.352850050673887,-6.2862502533694355
1621786104401.546,-0.305,0.094,-0.419,0.7080905020496454,-5.3073396209290715,-6.058698104645358
1621786104406.542,-0.304,0.11,-0.407,1.054166709525178,-5.261835861985508,-5.831179309927544
1621786104408.171,-0.30726035965598125,0.11391243158717748,-0.40243549648162624,1.167,-5.247,-5.757
1621786104411.538,-0.314,0.122,-0.393,1.2775763470789339,-5.273496596375518,-5.722158018939279
1621786104416.535,-0.33,0.138,-0.377,1.441669016428161,-5.312816915257314,-5.670453347653768
1621786104421.531,-0.353,0.143,-0.354,1.6057376334977158,-5.35213147066832,-5.618756255105437
1621786104424.31,-0.36634988272087565,0.1374375488663018,-0.33953762705238466,1.697,-5.374,-5.59
1621786104426.527,-0.377,0.133,-0.328,1.6847738597685502,-5.458896119809394,-5.608820013614704
1621786104431.524,-0.393,0.136,-0.293,1.6572182588306483,-5.6502372589062855,-5.651237062249452
1621786104436.52,-0.394,0.113,-0.258,1.6296666969215643,-5.841550351713184,-5.693647893502761
1621786104440.449,-0.3806311082877248,0.10120391907740423,-0.2281165949960907,1.608,-5.992,-5.727
1621786104441.516,-0.377,0.098,-0.22,1.5619790333560246,-6.028301021102791,-5.75100231449966
1621786104446.513,-0.34,0.056,-0.18,1.3464880417517586,-6.198278829135466,-5.863392012707057
1621786104451.509,-0.267,0.023,-0.145,1.1310286362604947,-6.368231722260041,-5.97576523712276
1621786104456.505,-0.178,-0.024,-0.119,0.9155797594735648,-6.538176310415249,-6.088132970274563
1621786104456.588,-0.17648837209302326,-0.024913621262458472,-0.1185016611295681,0.912,-6.541,-6.09
1621786104461.502,-0.087,-0.079,-0.089,0.6342968140147045,-6.582716377719283,-6.122885903603522
1621786104466.498,0.0,-0.14,-0.072,0.35195788327130806,-6.6251291337629725,-6.15632077698103
1621786104471.493,0.082,-0.215,-0.061,0.06968793682490704,-6.667531527033978,-6.189747481165472
1621786104472.726,0.09976783271448114,-0.23597591362126247,-0.05976612272816103,0.0,-6.678,-6.198
1621786104476.49,0.154,-0.3,-0.056,-0.3064509189925119,-6.7421354663036075,-6.028682368958475
1621786104481.486,0.216,-0.372,-0.065,-0.713223417290674,-6.827266696921565,-5.803935920127071
1621786104486.483,0.279,-0.445,-0.073,-1.1200555479918313,-6.912410407684744,-5.579156523712276
1621786104488.865,0.3099912529319781,-0.46979300234558247,-0.07967503909304144,-1.314,-6.953,-5.472
1621786104491.479,0.344,-0.497,-0.087,-1.283871832498752,-6.927569234958624,-5.481556784314912
1621786104496.475,0.417,-0.55,-0.096,-1.2262886794450916,-6.8789641003918245,-5.499822408133008
1621786104501.47,0.504,-0.593,-0.099,-1.1687195957701093,-6.8303708415908995,-5.518083569083675
1621786104505.003,0.5662165331248779,-0.6276432968536252,-0.101828024232949,-1.128,-6.796,-5.531
1621786104506.467,0.592,-0.642,-0.103,-0.8940525941612463,-6.6100394796551205,-5.946463016185145
1621786104511.463,0.661,-0.71,-0.124,-0.09577582816517927,-5.975503857207684,-7.3641084556042955
1621786104516.458,0.667,-0.771,-0.154,0.7023839056118588,-5.341061261533808,-8.781546059597641
1621786104521.143,0.7045024428376001,-0.7006829196794997,-0.04711803791283957,1.451,-4.746,-10.111
1621786104521.455,0.707,-0.696,-0.04,1.3901327291707641,-4.67036062151081,-10.17791919451715
1621786104526.451,0.853,-0.492,0.232,0.4155419913157936,-3.459242779551266,-11.249411743346899
1621786104531.447,0.824,-0.503,0.234,-0.559096373511657,-2.2480657518495546,-12.320956654613674
1621786104536.443,0.503,-0.6,-0.068,-1.5337347383391076,-1.0368887241478437,-13.392501565880448
1621786104537.28,0.43632629624199776,-0.576044372770366,-0.09614367394810144,-1.697,-0.834,-13.572
1621786104541.439,0.105,-0.457,-0.236,-1.0676680685617463,-3.254943556073282,-12.172110134491158
1621786104546.435,-0.155,-0.15,-0.208,-0.31165699459917384,-6.163202372127502,-10.490434395848776
1621786104551.431,-0.166,0.211,-0.195,0.44431713589809574,-9.07131907232871,-8.808840834480568
1621786104553.418,-0.08247820562939798,0.3191806098514465,-0.1679548475371384,0.745,-10.228,-8.14
1621786104556.427,0.044,0.483,-0.127,0.2420948000665688,-9.69227636655219,-8.882330589890616
1621786104561.423,0.316,0.639,-0.028,-0.5929114483259451,-8.802779536136285,-10.114870402590133
1621786104566.419,0.56,0.639,-0.079,-1.4278768930511214,-7.913326172140945,-11.347349985627185
1621786104569.555,0.6817714034401877,0.5624221071149336,-0.19826065285379202,-1.952,-7.355,-12.121
1621786104571.415,0.754,0.517,-0.269,-2.1791971345144256,-7.22843355976822,-11.539924020757372
1621786104576.41,0.892,0.346,-0.45,-2.7892806330090627,-6.888569693026915,-9.979583627093515
1621786104581.407,0.944,0.138,-0.572,-3.3996325097962083,-6.548556318743665,-8.418556833139174
1621786104585.692,0.9397117376856919,-0.018950400703674736,-0.6320356724003128,-3.923,-6.257,-7.08
1621786104586.403,0.939,-0.045,-0.642,-3.8620609741340193,-6.284186824988655,-6.994033232491303
1621786104591.398,0.894,-0.155,-0.641,-3.4340652548782336,-6.475129239146876,-6.3902590833459385
1621786104596.395,0.808,-0.208,-0.564,-3.0058812585085466,-6.666155649674784,-5.7862193314173345
1621786104601.39,0.684,-0.215,-0.433,-2.577885539252761,-6.857098063833005,-5.18244518227197
1621786104601.832,0.6671823069403715,-0.2138493157380254,-0.42264384164222873,-2.54,-6.874,-5.129
1621786104606.385,0.494,-0.202,-0.316,-2.844417043615074,-6.688641336742258,-5.322540400296516
1621786104611.381,0.272,-0.215,-0.234,-3.1784612486951787,-6.4852427799882,-5.534916975537435
1621786104616.378,0.045,-0.25,-0.19,-3.5125544242901015,-6.281814405228363,-5.747324684951817
1621786104617.97,-0.011094623655913974,-0.268167008797654,-0.17852609970674488,-3.619,-6.217,-5.815
1621786104621.373,-0.131,-0.307,-0.154,-3.5135564851657413,-6.428097916698186,-6.449980846331907
1621786104626.368,-0.237,-0.354,-0.099,-3.3587915185258033,-6.737937379911342,-7.381975475437615
1621786104631.365,-0.267,-0.393,-0.012,-3.2039584701272377,-7.047913142805271,-8.314380092893778
1621786104634.107,-0.26041290322580646,-0.41385913978494626,0.034109677419354834,-3.119,-7.218,-8.826
1621786104636.36,-0.255,-0.431,0.072,-3.169541556987686,-7.302887476929594,-8.978043523645276
1621786104641.356,-0.229,-0.464,0.108,-3.281604822849536,-7.491104232852258,-9.315162022329128
1621786104646.352,-0.208,-0.475,0.096,-3.3936735650963663,-7.67933018668119,-9.652296995552328
1621786104650.245,-0.1776029131433599,-0.47733823745051074,0.0757352754289066,-3.481,-7.826,-9.915
