time,gyro_x,gyro_y,gyro_z,acc_x,acc_y,acc_z
1621787247502.628,,,,2.775,-4.903,-9.728
1621787247521.267,,,,2.903,-4.59,-8.865
1621787247540.212,,,,2.56,-4.021,-7.865
1621787247541.386,0.077,1.902,1.642,2.5264516742770167,-4.028746613394216,-7.831512671232877
1621787247547.317,-0.016,1.904,1.658,2.356979959411466,-4.067879173008625,-7.662349086757991
1621787247553.278,-0.11,1.887,1.677,2.1866432014205985,-4.107211478944698,-7.492322031963471
1621787247559.267,-0.199,1.871,1.684,2.0155111618467783,-4.146727422628107,-7.3215011415525115
1621787247559.46,-0.2018519855595668,1.870455238713341,1.6846729404129315,2.01,-4.148,-7.316
1621787247565.286,-0.288,1.854,1.705,1.7647699444340388,-4.279703140413311,-7.327620865330586
1621787247571.334,-0.365,1.836,1.717,1.5101882000374602,-4.4164286945120805,-7.3396848848098895
1621787247577.412,-0.435,1.796,1.731,1.2543424361615783,-4.553833102328776,-7.351808803146657
1621787247579.012,-0.4499348660535786,1.7849953618552579,1.733358136745302,1.187,-4.59,-7.355
1621787247583.518,-0.492,1.754,1.74,0.9866420883449485,-4.7256792654168915,-7.512319865098081
1621787247589.139,-0.532,1.714,1.733,0.736718471287233,-4.894923656579762,-7.708558433346068
1621787247594.768,-0.545,1.682,1.716,0.4864257710092613,-5.064417985166058,-7.905086803588603
1621787247597.544,-0.5430292065693115,1.6632774624084585,1.7012190492698358,0.363,-5.148,-8.002
1621787247600.402,-0.541,1.644,1.686,0.35986467232652186,-5.204906197273628,-8.160334047510647
1621787247606.043,-0.522,1.627,1.648,0.35367677227563676,-5.317216583197193,-8.472823000080346
1621787247611.688,-0.501,1.609,1.62,0.34748431934438523,-5.429609603899408,-8.785541873108546
1621787247615.776,-0.49232097965530647,1.603937238132262,1.5961326940520928,0.343,-5.511,-9.012
1621787247617.34,-0.489,1.602,1.587,0.3379553200859435,-5.524423978754354,-9.071595625425381
1621787247622.999,-0.475,1.59,1.543,0.319704869683584,-5.5729887366047,-9.28719840390749
1621787247628.663,-0.466,1.585,1.491,0.3014378845101624,-5.621597493761094,-9.50299651688842
1621787247634.07,-0.452651541243327,1.598348458756673,1.4519080850697434,0.284,-5.668,-9.709
1621787247634.334,-0.452,1.599,1.45,0.2924684515734312,-5.676468451573431,-9.702645066900752
1621787247640.01,-0.422,1.607,1.415,0.4745989146915649,-5.858598914691565,-9.565969914611763
1621787247645.692,-0.396,1.637,1.388,0.6569173915356582,-6.040917391535658,-9.429153672226212
1621787247651.381,-0.368,1.66,1.356,0.8394708855372011,-6.223470885537201,-9.292161067219961
1621787247652.426,-0.3606592916559472,1.6603670354172027,1.3504944687419604,0.873,-6.257,-9.267
1621787247657.075,-0.328,1.662,1.326,0.984308016542071,-6.296626663485499,-9.05927551561423
1621787247662.777,-0.288,1.669,1.316,1.1208330682360426,-6.345230820211017,-8.804490668575367
1621787247668.483,-0.236,1.669,1.299,1.2574458008589153,-6.393866192142516,-8.549542190233817
1621787247670.845,-0.21408747489423527,1.6673462245203197,1.3023075509593607,1.314,-6.414,-8.444
1621787247674.196,-0.183,1.665,1.307,1.3905154421283454,-6.3160892446698895,-8.324693931468126
1621787247679.914,-0.148,1.653,1.311,1.5210755594303982,-6.149021795989538,-8.121119151409474
1621787247685.64,-0.122,1.632,1.321,1.6518140603947056,-5.981726083855116,-7.917266228104937
1621787247689.327,-0.11170508286822035,1.6152707596608582,1.3280777555280985,1.736,-5.874,-7.786
1621787247691.37,-0.106,1.606,1.332,1.7445936467397745,-5.781122510235515,-7.734217769644949
1621787247697.106,-0.087,1.581,1.342,1.7687182896486355,-5.520390792643593,-7.588851331604376
1621787247702.85,-0.079,1.545,1.354,1.792877845210042,-5.259281749845315,-7.4432745224523105
1621787247707.872,-0.08511604298517605,1.5170409463534809,1.3662320859703523,1.814,-5.031,-7.316
1621787247708.598,-0.086,1.513,1.368,1.7983201962687938,-5.008806446957571,-7.285381477788564
1621787247714.354,-0.103,1.478,1.379,1.67397349846501,-4.8328032851407725,-7.042565164913017
1621787247720.114,-0.147,1.449,1.393,1.5495424155755555,-4.656680682742515,-6.799584070215948
1621787247725.88,-0.199,1.426,1.405,1.424984755057595,-4.480378919472068,-6.556355802786597
1621787247726.481,-0.2041007568390343,1.4225647964145278,1.4057286795484334,1.412,-4.462,-6.531
1621787247731.654,-0.248,1.393,1.412,1.2898276917042557,-4.4564593057462245,-6.381678289860757
1621787247737.433,-0.305,1.365,1.424,1.1533445773681112,-4.4502695953454925,-6.214865594561025
1621787247743.219,-0.361,1.342,1.431,1.0167000196116884,-4.444072563247696,-6.047855579525397
1621787247745.154,-0.37570500927643785,1.3339790858492158,1.4323368190251307,0.971,-4.442,-5.992
1621787247749.009,-0.405,1.318,1.435,0.9508350230654956,-4.484387604576612,-5.987884698584795
1621787247754.807,-0.447,1.281,1.443,0.9205071020876228,-4.548138132346425,-5.9816953269566575
1621787247760.609,-0.485,1.257,1.447,0.890157470874925,-4.611934295915973,-5.975501524668353
1621787247763.889,-0.5047623350424477,1.2389315793897622,1.4509524670084895,0.873,-4.648,-5.972
1621787247766.418,-0.52,1.225,1.454,0.9073526237076532,-4.688953716106378,-5.985202184797451
1621787247772.226,-0.555,1.194,1.47,0.986245269523376,-4.783006125235711,-6.01552171142467
1621787247778.038,-0.585,1.176,1.475,1.0651909747057675,-4.877121789453151,-6.045861629494766
1621787247782.662,-0.6112194815001258,1.1791781189697121,1.4940687138182736,1.128,-4.952,-6.07
1621787247783.858,-0.618,1.18,1.499,1.1547331042976599,-4.975050158812472,-6.1023845206456215
1621787247789.681,-0.642,1.176,1.517,1.2849109872301807,-5.0872937965903935,-6.260082193556752
1621787247795.512,-0.654,1.169,1.538,1.4152689829519671,-5.199692733519155,-6.41799805535749
1621787247801.348,-0.658,1.157,1.56,1.5457361379399752,-5.312185791145395,-6.576046152848901
1621787247801.494,-0.657750052246604,1.1569250156739812,1.5604998955067921,1.549,-5.315,-6.58
1621787247807.189,-0.648,1.154,1.58,1.6406510455708636,-5.3683626153488255,-6.928816643833846
1621787247813.037,-0.613,1.152,1.59,1.7347655543205729,-5.423159549719545,-7.287009034042443
1621787247818.89,-0.559,1.147,1.609,1.828954713469641,-5.477999948303047,-7.645485537777548
1621787247820.384,-0.5406422947131609,1.1403708286464191,1.6077251593550805,1.853,-5.492,-7.737
1621787247824.75,-0.487,1.121,1.604,1.8891738194936545,-5.496377723378213,-7.904275114346453
1621787247830.614,-0.407,1.105,1.606,1.937759569670811,-5.50225752753978,-8.128945525993686
1621787247836.485,-0.335,1.089,1.607,1.986403981189203,-5.5081444308445535,-8.353887199639244
1621787247839.333,-0.29768053016453383,1.086576657802892,1.6089386737576865,2.01,-5.511,-8.463
1621787247842.361,-0.258,1.084,1.611,2.08040190576481,-5.517371213191385,-8.472397539457294
1621787247848.244,-0.192,1.087,1.627,2.2171756154567284,-5.529748924475722,-8.49065466360169
1621787247854.131,-0.124,1.08,1.642,2.3540514967445323,-5.542135882058329,-8.508925426036035
1621787247858.344,-0.08683037156704361,1.0749963961724867,1.6562960109357523,2.452,-5.551,-8.522
1621787247860.025,-0.072,1.073,1.662,2.480468988030468,-5.535399347116431,-8.525437431991294
1621787247865.924,-0.03,1.066,1.682,2.5803812840043525,-5.480648646226717,-8.537501145746656
1621787247871.829,0.003,1.072,1.702,2.68039281828074,-5.425843563976189,-8.549576841835755
1621787247877.415,0.0313507496592458,1.068219900045434,1.7246805997273966,2.775,-5.374,-8.561
1621787247877.74,0.033,1.068,1.726,2.77651163146813,-5.367834581764818,-8.563836432080649
1621787247883.656,0.058,1.073,1.751,2.8040321827346393,-5.255587838958719,-8.615476118164997
1621787247889.58,0.086,1.068,1.772,2.8315902124673005,-5.143188234543483,-8.667186129011675
1621787247895.507,0.099,1.072,1.791,2.8591618707331077,-5.03073304408856,-8.718921712499203
1621787247896.547,0.09970097494755029,1.0725257312106629,1.7934534123164259,2.864,-5.011,-8.728
1621787247901.442,0.103,1.075,1.805,2.7612277722658933,-4.9135831488971995,-8.635428489658857
1621787247907.381,0.089,1.082,1.815,2.6365262916889263,-4.795379760360222,-8.5231043272533
1621787247913.327,0.079,1.091,1.822,2.5116864076928946,-4.677045180493017,-8.410655498740747
1621787247915.741,0.06764194289465048,1.0918112897932393,1.8163209714473254,2.461,-4.629,-8.365
1621787247919.278,0.051,1.093,1.808,2.3601452228491726,-4.629,-8.305479147910987
1621787247925.235,0.03,1.101,1.81,2.190290407658657,-4.629,-8.205236961896913
1621787247931.198,0.0,1.114,1.805,2.0202685221581183,-4.629,-8.10489617701135
1621787247934.995,-0.019723583554919207,1.1203624463080386,1.8005462875843732,1.912,-4.629,-8.041
1621787247937.166,-0.031,1.124,1.798,1.8668127322832655,-4.633383839405354,-8.052128207721285
1621787247943.141,-0.052,1.147,1.789,1.7424410284934138,-4.645449750967057,-8.082757060147145
1621787247949.121,-0.073,1.155,1.775,1.6179676889237227,-4.657525522716355,-8.113410942279978
1621787247954.308,-0.0885953021776364,1.162797651088818,1.7611375091754342,1.51,-4.668,-8.14
1621787247955.108,-0.091,1.164,1.759,1.510863309352518,-4.674776978417266,-8.14379856115108
1621787247960.832,-0.096,1.168,1.747,1.517041926898042,-4.72327912614963,-8.170984478351386
1621787247966.556,-0.099,1.183,1.731,1.5232202809181226,-4.771779205207263,-8.198169236039739
1621787247972.282,-0.093,1.19,1.723,1.5294010066671937,-4.820297902337471,-8.225364429335652
1621787247972.837,-0.09261221530325002,1.190193892348375,1.7219335920839376,1.53,-4.825,-8.228
1621787247978.006,-0.089,1.192,1.712,1.565503122565653,-4.8414935766249885,-8.214301944836874
1621787247983.731,-0.086,1.182,1.703,1.6048226673180264,-4.85976013678554,-8.19913141182218
1621787247989.456,-0.082,1.178,1.702,1.6441438888815538,-4.8780274759371,-8.18396023184885
1621787247991.328,-0.07742249136423729,1.1757112456821186,1.6997112456821186,1.657,-4.884,-8.179
1621787247995.181,-0.068,1.171,1.695,1.6734632449063132,-4.890043469649153,-8.162536755093686
1621787248000.905,-0.059,1.166,1.695,1.6979213135968099,-4.899021748029209,-8.13807868640319
1621787248006.629,-0.049,1.155,1.684,1.7223783391213638,-4.907999643474931,-8.113621660878636
1621787248009.817,-0.041204179104477615,1.155,1.6828863113006396,1.736,-4.913,-8.1
1621787248012.354,-0.035,1.155,1.682,1.7467020860839715,-4.921095167678902,-8.091904832321099
1621787248018.079,-0.021,1.147,1.669,1.770851808819646,-4.93936226564563,-8.07363773435437
1621787248023.804,-0.012,1.122,1.665,1.7950005017163981,-4.957628584631635,-8.055371415368366
1621787248028.308,-0.0025575364667747152,1.1141312803889791,1.6610656401944894,1.814,-4.972,-8.041
1621787248029.528,0.0,1.112,1.66,1.8127463126064625,-4.969426641665897,-8.030706566663586
1621787248035.253,0.019,1.103,1.653,1.8068632396244602,-4.957350860281787,-7.982403441127148
1621787248040.977,0.042,1.091,1.649,1.8009809193064927,-4.945276623839643,-7.934106495358572
1621787248046.702,0.066,1.091,1.639,1.7950978463244907,-4.933200842455533,-7.885803369822133
1621787248046.797,0.06629936034115139,1.0909168443496802,1.6387671641791044,1.795,-4.933,-7.885
1621787248052.427,0.084,1.086,1.625,1.795,-4.858405669470154,-7.816190535919407
1621787248058.152,0.098,1.077,1.618,1.795,-4.782549769603507,-7.746217338491398
1621787248063.875,0.112,1.066,1.613,1.795,-4.706722982875401,-7.676270996448329
1621787248065.288,0.11496137119467895,1.0635321906711008,1.6115193144026605,1.795,-4.688,-7.659
1621787248069.601,0.124,1.056,1.607,1.7854542937036486,-4.624759695786672,-7.581679778999554
1621787248075.158,0.131,1.061,1.597,1.7731555378443,-4.5432804382184875,-7.4820598565388305
1621787248080.713,0.12,1.061,1.592,1.760861104732057,-4.461829818849879,-7.382474948329664
1621787248083.361,0.11332228134206938,1.0619539598082757,1.5934309397124138,1.755,-4.423,-7.335
1621787248086.265,0.106,1.063,1.595,1.742356293015332,-4.407114316865417,-7.331920122657581
1621787248091.813,0.087,1.059,1.59,1.7181988824531516,-4.376762698466781,-7.326035625212947
1621787248097.359,0.065,1.049,1.593,1.6940510391822827,-4.346423100511074,-7.320153458262351
1621787248101.275,0.05086784140969163,1.0426405286343612,1.5944132158590307,1.677,-4.325,-7.316
1621787248102.901,0.045,1.04,1.595,1.6582699149476443,-4.332091973951863,-7.347186500839602
1621787248108.441,0.028,1.026,1.6,1.5944526341656542,-4.356255798713976,-7.4534453712678665
1621787248113.976,0.009,1.0,1.609,1.5306915998853228,-4.380398326257014,-7.559610588540457
1621787248119.158,-0.0022365994617726224,0.9803359509418978,1.6155546830193674,1.471,-4.403,-7.659
1621787248119.51,-0.003,0.979,1.616,1.4623013706125354,-4.406294038792985,-7.665765600634694
1621787248125.038,-0.003,0.948,1.623,1.3257111728175526,-4.45801867151807,-7.772002421141903
1621787248130.565,-0.01,0.918,1.623,1.1891511367056056,-4.509731882472027,-7.878215782562307
1621787248136.088,-0.003,0.878,1.618,1.0526876179793725,-4.561408543758379,-7.9843540749049335
1621787248137.006,-0.002168141201450942,0.8721769884101566,1.618,1.03,-4.57,-8.002
1621787248141.607,0.002,0.843,1.618,0.9210275699525885,-4.605377305489326,-8.090572377976926
1621787248147.125,0.01,0.81,1.621,0.7903300446709968,-4.647807544739511,-8.196802830990162
1621787248152.637,0.023,0.768,1.621,0.6597770835046178,-4.6901908520376,-8.302915782838664
1621787248154.823,0.028553360209099366,0.751339919372702,1.6217933371727284,0.608,-4.707,-8.345
1621787248158.148,0.037,0.726,1.623,0.5438679141668612,-4.692416027128324,-8.38183388020154
1621787248163.655,0.049,0.681,1.614,0.43764664534109476,-4.668260753167946,-8.44284143110147
1621787248169.16,0.063,0.637,1.606,0.33146775765729897,-4.644115116901659,-8.503824640645808
1621787248172.606,0.06738587535511364,0.6150706232244318,1.597854802911932,0.265,-4.629,-8.542
1621787248174.66,0.07,0.602,1.593,0.22842021961587994,-4.633543348519046,-8.535126729163494
1621787248180.158,0.087,0.559,1.576,0.1305031086863204,-4.645705027902017,-8.51672829112259
1621787248185.589,0.103,0.51,1.557,0.03377735159311521,-4.657718736585569,-8.498553706191064
1621787248190.237,0.1175543913297657,0.4723298106759005,1.5415894680037774,-0.049,-4.668,-8.483
1621787248191.018,0.12,0.466,1.539,-0.08184137700161803,-4.6767458014841266,-8.465909989957039
1621787248196.441,0.138,0.417,1.513,-0.3098728449478324,-4.737471572839368,-8.347246875523071
1621787248201.86,0.152,0.384,1.48,-0.5377503208168276,-4.798156335434916,-8.2286638955532
1621787248207.275,0.168,0.349,1.435,-0.7654430061931597,-4.85879188751883,-8.110177076940245
1621787248207.74,0.16989124548736462,0.346163131768953,1.432077166064982,-0.785,-4.864,-8.1
1621787248212.685,0.19,0.316,1.401,-0.8821510375880971,-4.894589831077302,-8.066861016332922
1621787248218.093,0.199,0.271,1.367,-0.9883960454189507,-4.9280430696945965,-8.030620007830853
1621787248223.494,0.216,0.234,1.332,-1.0945019577133905,-4.961452511466607,-7.994426445911175
1621787248225.199,0.2204212525435225,0.2245258874067375,1.3187362423694327,-1.128,-4.972,-7.983
1621787248228.893,0.23,0.204,1.29,-1.148786671526298,-4.997028849388808,-7.983
1621787248234.286,0.232,0.175,1.25,-1.1791321072109453,-5.0335672311315465,-7.983
1621787248239.676,0.23,0.166,1.21,-1.209462431310979,-5.070087417292812,-7.983
1621787248242.615,0.2272711610826495,0.1621796255157093,1.1947185020628373,-1.226,-5.09,-7.983
1621787248245.061,0.225,0.159,1.182,-1.2714820243984708,-5.106474912862604,-8.017498749156735
1621787248250.442,0.218,0.154,1.15,-1.3715343068360693,-5.142716761299752,-8.093389799302901
1621787248255.818,0.201,0.136,1.103,-1.471500337306049,-5.1789273667641105,-8.169215426129975
1621787248259.986,0.1847062218788347,0.12280979866381857,1.0432561468890607,-1.549,-5.207,-8.228
1621787248261.19,0.18,0.119,1.026,-1.5742209071310815,-5.241739541502867,-8.230709684237224
1621787248266.559,0.154,0.106,0.946,-1.6867048230967578,-5.396676064871567,-8.242794733059982
1621787248271.923,0.133,0.112,0.878,-1.7990813289935326,-5.55146464048696,-8.254868241957983
1621787248277.283,0.122,0.11,0.808,-1.911370883882149,-5.706133448873484,-8.266932409012131
1621787248277.313,0.12207850825202882,0.10998878453542446,0.807607458739856,-1.912,-5.707,-8.267
1621787248282.638,0.136,0.108,0.738,-1.8697312180838273,-5.840285502100632,-8.315439407013423
1621787248287.99,0.161,0.112,0.667,-1.827247322931549,-5.97424931747132,-8.364125330655085
1621787248293.316,0.183,0.115,0.586,-1.784970789187048,-6.107559263293395,-8.412573621150608
1621787248294.572,0.19055264002935915,0.11665214000642232,0.5697146199366944,-1.775,-6.139,-8.424
1621787248298.638,0.215,0.122,0.517,-1.788971476510067,-6.162206859287909,-8.396057046979864
1621787248303.955,0.229,0.113,0.449,-1.8072424496644295,-6.192555255374815,-8.35951510067114
1621787248309.269,0.248,0.094,0.379,-1.8255025167785235,-6.2228855363439886,-8.322994966442952
1621787248311.742,0.25545430292994803,0.08747748493629548,0.3510463640126949,-1.834,-6.237,-8.306
1621787248314.577,0.264,0.08,0.319,-1.8940997490589713,-6.19643680848637,-8.223217976502793
1621787248319.88,0.276,0.052,0.25,-2.006520232120452,-6.1205607248773815,-8.06836882628037
1621787248325.18,0.295,0.019,0.194,-2.11887860727729,-6.044726559826622,-7.9136052241359645
1621787248328.865,0.3033511457420812,-0.0025737931670432035,0.15989948821983493,-2.197,-5.992,-7.806
1621787248330.475,0.307,-0.012,0.145,-2.2080333166511763,-5.952204618574391,-7.703399585329234
1621787248335.764,0.309,-0.056,0.099,-2.2442751269035535,-5.8214862944162435,-7.366381725888325
1621787248341.05,0.298,-0.094,0.051,-2.280498534353328,-5.690834346178595,-7.0295349967827265
1621787248345.939,0.28689094355323375,-0.13010443345199021,0.025078868290878832,-2.314,-5.57,-6.718
1621787248346.331,0.286,-0.133,0.023,-2.2997912789113695,-5.56412767604927,-6.699024333586658
1621787248351.606,0.258,-0.166,0.0,-2.1086370897202427,-5.485125539511608,-6.443738998264959
1621787248356.878,0.227,-0.19,-0.005,-1.9175890678099772,-5.4061672808614984,-6.188595448744605
1621787248362.145,0.185,-0.216,-0.005,-1.7267179913678143,-5.327282152023976,-5.933688208893159
1621787248362.965,0.17596247158695552,-0.2192722085633437,-0.004220902723013406,-1.697,-5.315,-5.894
1621787248367.408,0.127,-0.237,0.0,-1.6276578379777413,-5.281768095936503,-5.858151410577172
1621787248372.665,0.065,-0.251,0.005,-1.5456078998073217,-5.242446050096339,-5.815733140655106
1621787248377.919,-0.01,-0.265,0.01,-1.4636074971961004,-5.203147743939263,-5.773340479682512
1621787248379.944,-0.04048497394864161,-0.27040240044659475,0.014244743208038705,-1.432,-5.188,-5.757
1621787248383.167,-0.089,-0.279,0.021,-1.4133451095185223,-5.271947007166649,-5.867025782635654
1621787248388.411,-0.166,-0.288,0.026,-1.3829922277177753,-5.408534975270011,-6.046045840603325
1621787248393.651,-0.23,-0.288,0.037,-1.3526619561925912,-5.54502119713334,-6.224932544088595
1621787248396.875,-0.25402322869536825,-0.30093558468212134,0.03576803955408368,-1.334,-5.629,-6.335
1621787248398.885,-0.269,-0.309,0.035,-1.3245941228361944,-5.699008300915414,-6.462276996052004
1621787248404.116,-0.288,-0.321,0.031,-1.300115764508525,-5.881201651506167,-6.793509465068186
1621787248409.342,-0.284,-0.326,0.023,-1.2756602553905334,-6.063224934561599,-7.124432746677464
1621787248413.757,-0.2679328501285948,-0.32938255786766424,0.017926163198503625,-1.255,-6.217,-7.404
1621787248414.563,-0.265,-0.33,0.017,-1.2357546989209884,-6.231122795567931,-7.435453141315698
1621787248419.779,-0.23,-0.361,0.012,-1.111193699965193,-6.322529498781761,-7.63902671423599
1621787248424.992,-0.192,-0.37,0.014,-0.9867084928646014,-6.413880583594384,-7.842476418378002
1621787248430.199,-0.152,-0.365,0.014,-0.862363209189001,-6.505128988281703,-8.045697441698573
1621787248430.591,-0.14906109234234233,-0.36552749624624625,0.01422606981981982,-0.853,-6.512,-8.061
1621787248435.402,-0.113,-0.372,0.017,-0.760429747378525,-6.495090882648089,-8.027181765296179
1621787248440.6,-0.072,-0.358,0.028,-0.660413851277651,-6.47682172515598,-7.990643450311959
1621787248445.793,-0.038,-0.356,0.035,-0.5604966040809203,-6.45857058712314,-7.95414117424628
1621787248447.378,-0.030059836296923513,-0.3511137454134914,0.03988625458650861,-0.53,-6.453,-7.943
1621787248450.983,-0.012,-0.34,0.051,-0.48972928668309834,-6.423281505680576,-7.831232619189989
1621787248456.168,-0.003,-0.312,0.063,-0.43180775008385963,-6.3805372701153615,-7.670477124564295
1621787248461.347,0.007,-0.305,0.075,-0.3739543949713419,-6.337843350299707,-7.509910860909767
1621787248464.118,0.008070704212065467,-0.28679802839488705,0.08784845054478563,-0.343,-6.315,-7.424
1621787248466.523,0.009,-0.271,0.099,-0.3232608269587983,-6.27970001901391,-7.377317576165334
1621787248471.693,0.009,-0.251,0.124,-0.28082691492006845,-6.203814555878955,-7.276962922876658
1621787248476.859,0.005,-0.234,0.148,-0.2384290708048734,-6.127993593775139,-7.176693568910795
1621787248480.81,-0.005715853197124477,-0.21409912977676882,0.16943170639424895,-0.206,-6.07,-7.1
1621787248482.021,-0.009,-0.208,0.176,-0.20170713960891312,-6.0657071396089135,-7.092869486130059
1621787248487.177,-0.021,-0.173,0.202,-0.18342872860097698,-6.047428728600977,-7.0625087356423
1621787248492.33,-0.031,-0.152,0.23,-0.1651607035455999,-6.0291607035456,-7.032165236397776
1621787248497.453,-0.04393649815043156,-0.12413677321445508,0.2578632267855449,-0.147,-6.011,-7.002
1621787248497.478,-0.044,-0.124,0.258,-0.14676214220574824,-6.011342394022299,-7.002148471744182
1621787248502.621,-0.049,-0.103,0.286,-0.09811445003383049,-6.0813702821169064,-7.0325145471126405
1621787248507.759,-0.042,-0.065,0.318,-0.04951525314035242,-6.151328361721531,-7.062850351542965
1621787248512.894,-0.035,-0.035,0.34,-0.00094376783455416,-6.22124655076045,-7.093168858294354
1621787248514.051,-0.030939546839299316,-0.024397705635948216,0.34563951827875095,0.01,-6.237,-7.1
1621787248518.023,-0.017,0.012,0.365,0.0422251572327044,-6.287807547169812,-7.155276729559748
1621787248523.284,0.012,0.054,0.387,0.08490878334417695,-6.355104359141184,-7.228493168510084
1621787248528.542,0.044,0.099,0.4,0.12756864020819778,-6.422363695510735,-7.301668835393624
1621787248530.937,0.063597212543554,0.12224320557491289,0.40957073170731706,0.147,-6.453,-7.335
1621787248533.797,0.087,0.15,0.421,0.15037297017159967,-6.484368622595877,-7.318472446159162
1621787248539.05,0.129,0.202,0.433,0.15656783369803062,-6.541980853391685,-7.28811761487965
1621787248544.299,0.175,0.253,0.454,0.1627580905217091,-6.599550241851895,-7.257785356443626
1621787248547.896,0.1962557825662028,0.2783698049983711,0.46359938567505937,0.167,-6.639,-7.237
1621787248549.545,0.206,0.29,0.468,0.13641202601935587,-6.626628430905918,-7.209334443915596
1621787248554.788,0.234,0.328,0.487,0.03915005841374239,-6.587289991778807,-7.121365020985678
1621787248560.029,0.255,0.386,0.497,-0.05807114938052588,-6.547968038307876,-7.033432463617614
1621787248564.823,0.2705616055195562,0.41895398815906015,0.5034077199198173,-0.147,-6.512,-6.953
1621787248565.266,0.272,0.422,0.504,-0.16604011212900616,-6.501955422940207,-6.947859694246164
1621787248570.501,0.291,0.456,0.504,-0.3909756957489235,-6.3832910585787355,-6.8871332832413374
1621787248575.731,0.312,0.48,0.494,-0.615701470970725,-6.264737378262,-6.826463514724157
1621787248580.96,0.328,0.503,0.475,-0.8403852845129035,-6.146205834754212,-6.765805074704505
1621787248581.719,0.32930740117746005,0.5037263339874778,0.4722399308475843,-0.873,-6.129,-6.757
1621787248586.185,0.337,0.508,0.456,-1.0313488557242736,-6.030495360653127,-6.676501585049867
1621787248591.408,0.344,0.522,0.433,-1.2165320990692357,-5.915297757769639,-6.58236160849992
1621787248596.627,0.344,0.534,0.396,-1.4015768423490584,-5.800186312117308,-6.488292040009844
1621787248598.585,0.34324937994290794,0.5321234498572699,0.3836147690579812,-1.471,-5.757,-6.453
1621787248601.844,0.342,0.529,0.363,-1.5753495620141549,-5.69795247418494,-6.415054704722126
1621787248607.057,0.33,0.529,0.325,-1.7422588322311172,-5.603504742429516,-6.35436042464323
1621787248612.268,0.311,0.522,0.29,-1.9091133832231115,-5.509087974242951,-6.293686042464323
1621787248615.419,0.30131807951988,0.51231807951988,0.26640031882970744,-2.01,-5.452,-6.257
1621787248617.475,0.295,0.506,0.251,-2.023215779150018,-5.444902637123138,-6.261772364693062
1621787248622.679,0.255,0.49,0.216,-2.056663218307301,-5.426940123501635,-6.27385060661097
1621787248627.881,0.216,0.469,0.185,-2.090099673083908,-5.408983508899382,-6.285924881946967
1621787248632.222,0.18176111972194825,0.45229810718143815,0.16161735005401343,-2.118,-5.394,-6.296
1621787248633.079,0.175,0.449,0.157,-2.0994457271800844,-5.409998587858495,-6.322579123598778
1621787248638.275,0.133,0.428,0.127,-1.9869786140631822,-5.506974363080507,-6.483689037705634
1621787248643.467,0.101,0.408,0.115,-1.8745907701266558,-5.603881787742029,-6.644685398165672
1621787248648.657,0.07,0.396,0.094,-1.762250487698355,-5.700748202067259,-6.805613626437618
1621787248648.992,0.06864363054326335,0.3941915073910178,0.09303116467375953,-1.755,-5.707,-6.816
1621787248653.843,0.049,0.368,0.079,-1.678504484141451,-5.837969595333576,-7.014772438935472
1621787248659.027,0.038,0.339,0.061,-1.596757841779074,-5.977929755741888,-7.227189850528618
1621787248664.207,0.038,0.297,0.035,-1.5150766460080205,-6.117777863652934,-7.439437200145825
1621787248665.734,0.041243622990239995,0.2852050073082182,0.030282002923287286,-1.491,-6.159,-7.502
1621787248669.385,0.049,0.257,0.019,-1.4566940284332492,-6.210349702663608,-7.660637804824593
1621787248674.56,0.068,0.209,0.0,-1.408069242120951,-6.283132026124691,-7.8854887275171315
1621787248679.732,0.093,0.171,-0.017,-1.3594742771145951,-6.355869712599173,-8.110201750412765
1621787248682.443,0.1108368291761149,0.14372014361300076,-0.023819964096749812,-1.334,-6.394,-8.228
1621787248684.9,0.127,0.119,-0.03,-1.3195168230750027,-6.367841609023219,-8.290218545769632
1621787248690.046,0.159,0.079,-0.047,-1.2891803028300364,-6.313050138784861,-8.420541760291375
1621787248695.189,0.192,0.038,-0.063,-1.2588610535900486,-6.258289862096312,-8.550790779985606
1621787248699.067,0.2221719061639282,0.005565200873777189,-0.07582306011966948,-1.236,-6.217,-8.649
1621787248700.33,0.232,-0.005,-0.08,-1.2172580398162327,-6.204352986217457,-8.611668453292495
1621787248705.466,0.26,-0.047,-0.093,-1.1410549829190717,-6.152931411238073,-8.459881876546119
1621787248710.598,0.271,-0.077,-0.103,-1.064913505713276,-6.101551390034162,-8.308217958534575
1621787248715.647,0.2759200647095209,-0.09766427177998763,-0.10595203882571251,-0.99,-6.051,-8.159
1621787248715.729,0.276,-0.098,-0.106,-0.9868910926155481,-6.050900832300337,-8.155013458473526
1621787248720.855,0.286,-0.101,-0.103,-0.7926213918894989,-6.044704031639219,-7.905902071896583
1621787248725.979,0.29,-0.106,-0.105,-0.5984257127678413,-6.038509592113806,-7.656885602975032
1621787248731.099,0.29,-0.11,-0.108,-0.4043780768549672,-6.032319874859807,-7.408058969364265
1621787248732.191,0.2895732620831146,-0.10658609666491722,-0.10501283458180256,-0.363,-6.031,-7.355
1621787248736.216,0.288,-0.094,-0.094,-0.18603495076732013,-6.007112155888701,-7.204360329992016
1621787248741.329,0.271,-0.077,-0.086,0.03875907034507231,-5.9767680593749075,-7.013006741772377
1621787248746.44,0.264,-0.061,-0.075,0.26345648895591234,-5.94643700286821,-6.8217353854342235
1621787248748.704,0.25513129960791814,-0.05080099454910586,-0.06435755952950177,0.363,-5.933,-6.737
1621787248751.546,0.244,-0.038,-0.051,0.4475115500303753,-5.933,-6.694744224984812
1621787248756.65,0.225,0.003,-0.035,0.5992983597326972,-5.933,-6.618850820133652
1621787248761.75,0.208,0.037,-0.012,0.7509690023559394,-5.933,-6.54301549882203
1621787248765.181,0.19588592500359178,0.055844116661079454,0.002133087495809585,0.853,-5.933,-6.492
1621787248766.848,0.19,0.065,0.009,0.8649634727604792,-5.930972292752461,-6.510857677402112
1621787248771.941,0.168,0.094,0.023,0.9015144401383878,-5.924777213535866,-6.568471914116442
1621787248777.032,0.157,0.12,0.038,0.938051390559342,-5.918584510074688,-6.626064056305403
1621787248781.623,0.14887727970819734,0.13895301401420618,0.04973281819927049,0.971,-5.913,-6.678
1621787248782.119,0.148,0.141,0.051,0.9641602914661223,-5.916571175252201,-6.685717370248402
1621787248787.203,0.136,0.157,0.066,0.894032231146344,-5.953186711171378,-6.764844163972046
1621787248792.272,0.136,0.18,0.08,0.8241095978184745,-5.989694988749646,-6.843739170603048
1621787248797.339,0.133,0.185,0.091,0.7542139057354453,-6.026189199660254,-6.92260377892682
1621787248798.007,0.1336598176819563,0.18684748950947763,0.09205570829113008,0.745,-6.031,-6.933
1621787248802.401,0.138,0.199,0.099,0.6659289557056608,-6.041489016079861,-6.998892536911949
1621787248807.46,0.143,0.208,0.112,0.574885438460159,-6.053566217347122,-7.074762134616534
1621787248812.516,0.155,0.204,0.12,0.4838946440313229,-6.0656364247713555,-7.150587796640564
1621787248814.344,0.16079040989945864,0.2079809068058778,0.12,0.451,-6.07,-7.178
1621787248817.567,0.171,0.215,0.12,0.40256067935718676,-6.05833502074316,-7.174243481256272
1621787248822.617,0.18,0.22,0.133,0.326659812188291,-6.040056852731058,-7.168357291557459
1621787248827.662,0.18,0.223,0.136,0.25083233236981234,-6.021796357591098,-7.162476793122557
1621787248830.645,0.18295806701530118,0.21885870617857833,0.14014129382142165,0.206,-6.011,-7.159
1621787248832.704,0.185,0.216,0.143,0.15636812634170505,-6.00112427003738,-7.134184063170852
1621787248837.742,0.182,0.223,0.145,0.03493657394202332,-5.97696186930479,-7.0734682869710115
1621787248842.777,0.173,0.215,0.148,-0.0864302463483104,-5.952812348940897,-7.012784876825845
1621787248846.908,0.1615048769835493,0.21335783956907847,0.14717891978453923,-0.186,-5.933,-6.963
1621787248847.808,0.159,0.213,0.147,-0.20397075548334687,-5.936272452387399,-6.964053840599332
1621787248852.837,0.145,0.209,0.148,-0.30436718115353373,-5.954554517555736,-6.969941285314559
1621787248857.861,0.126,0.199,0.143,-0.4046709991876523,-5.972819718987875,-6.975823299335079
1621787248862.883,0.115,0.188,0.141,-0.5049309504467911,-5.991076932334447,-6.981702740921262
1621787248863.137,0.11449389264684413,0.1872408389702662,0.1405951141174753,-0.51,-5.992,-6.982
1621787248867.9,0.105,0.173,0.133,-0.590872111427667,-6.0411114276669835,-7.056990503323837
1621787248872.915,0.103,0.168,0.12,-0.6760263947300985,-6.092823301527005,-7.135951747840637
1621787248877.925,0.101,0.15,0.108,-0.7610936251676993,-6.144482310556384,-7.2148322706100485
1621787248879.333,0.10409252669039147,0.14465836298932383,0.10546975088967972,-0.785,-6.159,-7.237
1621787248882.933,0.112,0.131,0.099,-0.8264007154824978,-6.1719099005268,-7.287304095156153
1621787248887.936,0.124,0.117,0.082,-0.8839338405108002,-6.189850337363582,-7.357209935244305
1621787248892.946,0.141,0.094,0.068,-0.9415483856360096,-6.207816163262842,-7.427214705127625
1621787248895.507,0.1466252132793838,0.08632925461902208,0.05623819041583386,-0.971,-6.217,-7.463
1621787248897.954,0.152,0.079,0.045,-0.9590344994333208,-6.214122221382697,-7.454063740083113
1621787248902.957,0.169,0.045,0.033,-0.9345710615791462,-6.208238609746883,-7.435793577635058
1621787248907.958,0.188,0.023,0.016,-0.9101171741594257,-6.2023572950510015,-7.4175305477899505
1621787248911.663,0.20134610123119015,0.00965389876880985,0.004136798905608755,-0.892,-6.198,-7.404
1621787248912.955,0.206,0.005,0.0,-0.8770931835047175,-6.186218806318245,-7.378033287395314
1621787248917.949,0.213,-0.014,-0.017,-0.8194743378110282,-6.140681331495813,-7.277664975541791
1621787248922.938,0.229,-0.03,-0.026,-0.7619118292923021,-6.095188381214884,-7.177394799412397
1621787248927.784,0.22511394449610886,-0.041658166511673436,-0.04445876364348294,-0.706,-6.051,-7.08
1621787248927.926,0.225,-0.042,-0.045,-0.703314226729006,-6.04961293946202,-7.0774909223389395
1621787248932.909,0.218,-0.045,-0.054,-0.6091275730159694,-6.000970490011537,-6.989500759001761
1621787248937.889,0.194,-0.054,-0.065,-0.514996296071407,-5.952356639747404,-6.901562329224604
1621787248942.865,0.176,-0.073,-0.075,-0.42093885481814325,-5.903780921731738,-6.813692877527476
1621787248943.867,0.17156846961814076,-0.073,-0.07681289879257877,-0.402,-5.894,-6.796
1621787248947.839,0.154,-0.073,-0.084,-0.3680923072242421,-5.88434744512223,-6.781397416979783
1621787248952.808,0.131,-0.084,-0.091,-0.3256753882896999,-5.872272555790499,-6.763130276708703
1621787248957.775,0.105,-0.103,-0.099,-0.2832772259153901,-5.86020300591752,-6.744871214080351
1621787248959.916,0.09680172201722016,-0.1012740467404674,-0.10158892988929889,-0.265,-5.855,-6.737
1621787248962.737,0.086,-0.099,-0.105,-0.2442103377296638,-5.865218647556606,-6.768184493405505
1621787248967.697,0.061,-0.108,-0.113,-0.20765795532515058,-5.883185072806282,-6.823013067012274
1621787248972.653,0.042,-0.12,-0.119,-0.17113435999085158,-5.9011373484790735,-6.8777984600137225
1621787248975.928,0.032743037413121706,-0.12595090452013605,-0.12362848129343915,-0.147,-5.913,-6.914
1621787248977.606,0.028,-0.129,-0.126,-0.13051320091673033,-5.9356824751718875,-6.931431902215431
1621787248982.555,0.019,-0.133,-0.133,-0.08188757830404889,-6.002581420932009,-6.982844980901452
1621787248987.5,0.014,-0.143,-0.131,-0.03330033613445378,-6.06942756302521,-7.0342174789915966
1621787248991.907,0.015782022804679403,-0.143,-0.13723707981637792,0.01,-6.129,-7.08
1621787248992.446,0.016,-0.143,-0.138,0.012624805681714268,-6.133307373426402,-7.082658457036608
1621787248997.408,0.016,-0.159,-0.141,0.03678538116865303,-6.172955497302405,-7.107128783491328
1621787249002.369,0.024,-0.162,-0.141,0.060941201572835065,-6.212595817965678,-7.131594293900692
1621787249007.326,0.035,-0.176,-0.143,0.08507800164599018,-6.2522049257780345,-7.156040540128631
1621787249007.926,0.03609039826498423,-0.1770903982649842,-0.14360577681388012,0.088,-6.257,-7.159
1621787249012.279,0.044,-0.185,-0.148,0.12013397684577083,-6.262174114915844,-7.142933011577115
1621787249017.228,0.049,-0.187,-0.15,0.15666722668540184,-6.268056587347649,-7.124666386657299
1621787249022.176,0.066,-0.19,-0.154,0.19319326755658733,-6.273937899013348,-7.106403366221706
1621787249023.911,0.066,-0.19140393164081795,-0.15329803417959104,0.206,-6.276,-7.1
1621787249027.119,0.066,-0.194,-0.152,0.23355602498163114,-6.272178361498898,-7.070432586333578
1621787249032.06,0.063,-0.195,-0.154,0.2759994336272349,-6.266292049350967,-7.024891118662748
1621787249036.996,0.056,-0.199,-0.145,0.31839880296350725,-6.2604118448444765,-6.979396904849375
1621787249039.86,0.053678523722356895,-0.19667852372235692,-0.14383926186117843,0.343,-6.257,-6.953
1621787249041.931,0.052,-0.195,-0.143,0.343,-6.259471748466257,-6.940250981595092
1621787249046.861,0.042,-0.187,-0.138,0.343,-6.265356503067484,-6.909898036809817
1621787249051.789,0.042,-0.185,-0.136,0.343,-6.2712386349693245,-6.8795586196319025
1621787249055.778,0.042,-0.18662061098988295,-0.12870725054552667,0.343,-6.276,-6.855
1621787249056.712,0.042,-0.187,-0.127,0.33953154537769925,-6.2782927072927075,-6.856116959963114
1621787249061.634,0.042,-0.175,-0.134,0.3212498424652271,-6.290377222777223,-6.862004288019673
1621787249066.551,0.038,-0.168,-0.129,0.3029871820487205,-6.302449150849151,-6.867885483747022
1621787249071.466,0.044,-0.159,-0.129,0.28473177591639126,-6.3145162837162845,-6.873764343348959
1621787249071.663,0.04420063646760479,-0.15912038188056288,-0.1289197454129581,0.284,-6.315,-6.874
1621787249076.376,0.049,-0.162,-0.127,0.284,-6.315,-6.8508084405082785
1621787249081.284,0.052,-0.15,-0.119,0.284,-6.315,-6.8266569734308815
1621787249086.188,0.047,-0.143,-0.12,0.284,-6.315,-6.802524728532923
1621787249087.514,0.046188555206932616,-0.1421885552069326,-0.1181066288161761,0.284,-6.315,-6.796
1621787249091.09,0.044,-0.14,-0.113,0.2709451427517748,-6.292941792925413,-6.791498325086819
1621787249096.017,0.033,-0.14,-0.106,0.25295906450720673,-6.262551522788039,-6.785296229140416
1621787249100.941,0.024,-0.131,-0.106,0.23498457235932266,-6.232180829158855,-6.779098128399767
1621787249103.402,0.018997767081824046,-0.12999955341636482,-0.106,0.226,-6.217,-6.776
1621787249105.861,0.014,-0.129,-0.106,0.226,-6.2140573256243075,-6.785137778324517
1621787249110.779,0.0,-0.131,-0.101,0.226,-6.208171976872924,-6.803413334973551
1621787249115.694,-0.003,-0.124,-0.099,0.226,-6.202290134087834,-6.821678004674622
1621787249119.279,-0.00810900144142353,-0.124,-0.099,0.226,-6.198,-6.835
1621787249120.606,-0.01,-0.124,-0.099,0.22265048917648872,-6.204531546105847,-6.838265773052924
1621787249125.514,-0.01,-0.117,-0.096,0.2102613049842077,-6.228690455280796,-6.850345227640397
1621787249130.419,-0.017,-0.113,-0.094,0.19787951621600802,-6.252834943378784,-6.862417471689392
1621787249135.125,-0.017,-0.12835706816710651,-0.094,0.186,-6.276,-6.874
1621787249135.322,-0.017,-0.129,-0.094,0.186,-6.2764858894000675,-6.875594713928428
1621787249140.22,-0.021,-0.119,-0.098,0.186,-6.288565087843888,-6.915239262667119
1621787249145.117,-0.026,-0.115,-0.089,0.186,-6.300641877913978,-6.954875906999722
1621787249150.01,-0.023,-0.115,-0.096,0.186,-6.312709034489147,-6.994480933707969
1621787249150.939,-0.020910697349373532,-0.11727923925522887,-0.09505031697698797,0.186,-6.315,-7.002
1621787249154.901,-0.012,-0.127,-0.091,0.19102111728213617,-6.325042234564273,-7.002
1621787249159.787,-0.01,-0.124,-0.101,0.19721366357771625,-6.337427327155433,-7.002
1621787249164.672,-0.005,-0.117,-0.096,0.20340466281965994,-6.34980932563932,-7.002
1621787249166.72,-0.0029017410446267764,-0.1178393035821493,-0.09683930358214929,0.206,-6.355,-7.002
1621787249169.552,0.0,-0.119,-0.098,0.20959645315309727,-6.355,-7.002
1621787249174.431,0.003,-0.124,-0.098,0.21579227382650212,-6.355,-7.002
1621787249179.305,0.0,-0.113,-0.098,0.22198189371860855,-6.355,-7.002
1621787249182.469,0.0,-0.11429885748647024,-0.09670114251352976,0.226,-6.355,-7.002
1621787249184.177,0.0,-0.115,-0.096,0.22805640557558132,-6.357056405575582,-6.997778956976438
1621787249189.045,0.007,-0.117,-0.096,0.23391727904206439,-6.3629172790420645,-6.98574874301892
1621787249193.944,0.005,-0.113,-0.096,0.2398157768529835,-6.368815776852983,-6.973641300143876
1621787249198.25,0.005,-0.11827790523690773,-0.096,0.245,-6.374,-6.963
1621787249198.839,0.005,-0.119,-0.096,0.24645451313755795,-6.374,-6.963708608964452
1621787249203.732,0.005,-0.115,-0.089,0.2585348686244204,-6.374,-6.969593910355487
1621787249208.621,0.005,-0.108,-0.087,0.2706061823802164,-6.374,-6.9754748068006185
1621787249213.508,0.016,-0.11,-0.084,0.28267207109737247,-6.374,-6.981353060278208
1621787249214.046,0.01677085728567858,-0.11055061234691327,-0.08433036740814796,0.284,-6.374,-6.982
1621787249218.392,0.023,-0.115,-0.087,0.278762333921769,-6.3632490012078415,-6.987513332713927
1621787249223.273,0.03,-0.105,-0.087,0.2728803307627985,-6.351175415776271,-6.993704914986528
1621787249228.151,0.037,-0.106,-0.089,0.26700185821796896,-6.339109077394778,-6.99989278082319
1621787249229.812,0.03802197967255795,-0.10565934010914735,-0.089,0.265,-6.335,-7.002
1621787249233.027,0.04,-0.105,-0.089,0.27297031254849624,-6.33908733976846,-6.991986017567274
1621787249237.899,0.051,-0.112,-0.091,0.2850477358080636,-6.345280890157982,-6.976811819112946
1621787249242.769,0.056,-0.108,-0.084,0.2971209224370713,-6.3514722679164475,-6.961642943604706
1621787249245.544,0.05771080226782399,-0.10286759319652802,-0.08799187195825599,0.304,-6.355,-6.953
1621787249247.635,0.059,-0.099,-0.091,0.3066632462686567,-6.357530083955224,-6.94780666977612
1621787249252.499,0.07,-0.094,-0.089,0.31285820895522387,-6.363415298507463,-6.935726492537314
1621787249257.36,0.065,-0.094,-0.086,0.31904944029850746,-6.369296968283582,-6.92365359141791
1621787249261.247,0.06739990955682847,-0.09959978896593308,-0.086,0.324,-6.374,-6.914
1621787249262.219,0.068,-0.101,-0.086,0.32641817615450514,-6.376480180671287,-6.909101643174207
1621787249267.073,0.065,-0.098,-0.084,0.3384950860524881,-6.388866754925629,-6.884638159021883
1621787249271.926,0.063,-0.089,-0.084,0.3505695662331594,-6.401250837162214,-6.860179596604626
1621787249276.775,0.063,-0.094,-0.077,0.3626337201152558,-6.413624328323339,-6.835741951561404
1621787249276.922,0.0631518279786484,-0.09412146238291873,-0.077,0.363,-6.414,-6.835
1621787249281.623,0.068,-0.098,-0.077,0.36871017184597854,-6.443452465310837,-6.846720879052271
1621787249286.466,0.063,-0.096,-0.073,0.37459293886278855,-6.473795158344909,-6.858796032402566
1621787249291.306,0.07,-0.099,-0.068,0.3804718506610061,-6.504117966567295,-6.870863272409434
1621787249292.564,0.07051995358458202,-0.09692018566167197,-0.067480046415418,0.382,-6.512,-6.874
1621787249296.145,0.072,-0.091,-0.066,0.37764237354389807,-6.516357626456101,-6.878586975216949
1621787249300.98,0.079,-0.086,-0.061,0.3717589242436088,-6.522241075756391,-6.884780079743569
1621787249305.813,0.094,-0.087,-0.063,0.3658778516144164,-6.528122148385584,-6.89097068251114
1621787249308.178,0.09840763397371081,-0.08112315470171891,-0.061041051567239636,0.363,-6.531,-6.894
1621787249310.642,0.103,-0.075,-0.059,0.370748276618412,-6.518666008648242,-6.887833004324121
1621787249315.469,0.11,-0.075,-0.059,0.3859262392680328,-6.494505170144764,-6.875752585072382
1621787249320.292,0.113,-0.068,-0.051,0.4010919189070627,-6.470363884188758,-6.863681942094379
1621787249323.761,0.11803584628626398,-0.068,-0.04956118677535315,0.412,-6.453,-6.855
1621787249325.114,0.12,-0.068,-0.049,0.4171320452654874,-6.449607631095695,-6.839603864203538
1621787249329.932,0.119,-0.061,-0.042,0.43540627501451823,-6.437528055498878,-6.7847811749564455
1621787249334.747,0.115,-0.051,-0.035,0.4536703184593411,-6.425455213221792,-6.729989044621977
1621787249339.316,0.10835372907153729,-0.03865692541856926,-0.026454794520547945,0.471,-6.414,-6.678
1621787249339.559,0.108,-0.038,-0.026,0.471,-6.413373417422895,-6.677075790698772
1621787249344.369,0.106,-0.037,-0.019,0.471,-6.400979538555903,-6.658794819369957
1621787249349.176,0.093,-0.031,-0.012,0.471,-6.3885925797776135,-6.64052405517198
1621787249353.98,0.084,-0.019,-0.005,0.471,-6.376213799285972,-6.622265353946809
1621787249354.839,0.08238947368421053,-0.019357894736842105,-0.0037473684210526316,0.471,-6.374,-6.619
1621787249358.781,0.075,-0.021,0.002,0.45599040446216144,-6.379087998487402,-6.6441855925126445
1621787249363.579,0.065,-0.012,0.005,0.4377206422235177,-6.385281138229316,-6.674841634235114
1621787249368.374,0.059,-0.003,0.01,0.4194629650054359,-6.39147018135409,-6.705477397702743
1621787249370.334,0.05777322738386308,-0.003,0.011635696821515893,0.412,-6.394,-6.718
1621787249373.167,0.056,-0.003,0.014,0.4101678955428896,-6.404809416296952,-6.72514520738273
1621787249377.956,0.056,0.007,0.014,0.40707081168984954,-6.423082211029888,-6.737223834409587
1621787249382.743,0.056,0.014,0.024,0.40397514880717433,-6.441346622037671,-6.74929691965202
1621787249385.797,0.057915675565310604,0.014,0.024,0.402,-6.453,-6.757
1621787249387.526,0.059,0.014,0.024,0.39975977980606486,-6.459608649572109,-6.759128209184238
1621787249392.308,0.065,0.017,0.03,0.39356271256149455,-6.477889997943591,-6.76501542306658
1621787249397.085,0.066,0.026,0.033,0.38737260547004765,-6.496150813863359,-6.770896024803455
1621787249401.231,0.07207647088892297,0.024263865460307725,0.039076470888922965,0.382,-6.512,-6.776
1621787249401.861,0.073,0.024,0.04,0.38122282445046674,-6.508768585872993,-6.775222824450466
1621787249406.633,0.07,0.031,0.044,0.3753372478169226,-6.484296977765099,-6.769337247816923
1621787249411.403,0.068,0.037,0.045,0.3694540800963565,-6.459835385663798,-6.7634540800963565
1621787249416.169,0.066,0.042,0.051,0.3635760313158687,-6.435395077576507,-6.757576031315868
1621787249416.636,0.06570596372579159,0.042686084639819655,0.051,0.363,-6.433,-6.757
1621787249420.934,0.063,0.049,0.051,0.357408981199187,-6.433,-6.751408981199186
1621787249425.694,0.058,0.054,0.056,0.35121709857723576,-6.433,-6.7452170985772355
1621787249430.453,0.049,0.058,0.058,0.34502680386178863,-6.433,-6.739026803861789
1621787249432.011,0.05194962255430596,0.05668905664253068,0.058,0.343,-6.433,-6.737
1621787249435.207,0.058,0.054,0.058,0.3225898945224876,-6.44112238891452,-6.74512238891452
1621787249439.96,0.054,0.063,0.061,0.292237443721463,-6.453201425457785,-6.757201425457785
1621787249444.709,0.058,0.068,0.061,0.26190993843167826,-6.465270534705761,-6.76927053470576
1621787249447.357,0.058,0.06521096482205307,0.06211561407117877,0.245,-6.472,-6.776
1621787249449.456,0.058,0.063,0.063,0.23156969349208625,-6.472,-6.78408559269354
1621787249454.2,0.063,0.066,0.07,0.20121795055706976,-6.472,-6.80235858078707
1621787249458.941,0.065,0.073,0.066,0.17088495194376702,-6.472,-6.820620284033854
1621787249462.674,0.07445493893955789,0.06512088421703509,0.0652120884217035,0.147,-6.472,-6.835
1621787249463.679,0.077,0.063,0.065,0.1431218799405931,-6.472,-6.8363146169692905
1621787249468.414,0.08,0.068,0.065,0.12484779380060365,-6.472,-6.842509222440474
1621787249473.146,0.082,0.065,0.063,0.10658595633913029,-6.472,-6.848699675817244
1621787249477.875,0.087,0.073,0.063,0.08833542535013333,-6.472,-6.854886296491481
1621787249477.962,0.08711029639574512,0.07281617267375813,0.06296323453475162,0.088,-6.472,-6.855
1621787249482.603,0.093,0.063,0.061,0.08222068259276445,-6.460137190585148,-6.82519088916268
1621787249487.326,0.094,0.066,0.058,0.07633952029697426,-6.448065331135894,-6.794856473110709
1621787249492.047,0.094,0.058,0.061,0.07046048610333297,-6.435997839896315,-6.764533033585612
1621787249493.22,0.09275698613123577,0.05824860277375285,0.060254191678741464,0.069,-6.433,-6.757
1621787249496.765,0.089,0.059,0.058,0.069,-6.433,-6.734189573915552
1621787249501.481,0.093,0.058,0.061,0.069,-6.433,-6.703843224006925
1621787249506.192,0.082,0.063,0.061,0.069,-6.433,-6.673529864383957
1621787249508.45,0.07768632429911385,0.06108281079960615,0.06195859460019692,0.069,-6.433,-6.659
1621787249510.903,0.073,0.059,0.063,0.05947735924825316,-6.429933386876556,-6.67158925387519
1621787249515.609,0.072,0.047,0.061,0.04121015179503655,-6.424050726849249,-6.6957391213557145
1621787249520.313,0.068,0.051,0.059,0.022949578347120712,-6.41817020319653,-6.719880218456349
1621787249523.649,0.068,0.04674131213962911,0.059,0.01,-6.414,-6.737
1621787249525.013,0.068,0.045,0.059,0.011708617692505795,-6.4157086176925056,-6.735291382307494
1621787249529.712,0.063,0.051,0.054,0.01759473989183621,-6.421594739891836,-6.729405260108164
1621787249534.407,0.061,0.047,0.051,0.02347596896729333,-6.427475968967293,-6.7235240310327065
1621787249538.817,0.06287970237785524,0.04512029762214475,0.05381955356678287,0.029,-6.433,-6.718
1621787249539.099,0.063,0.045,0.054,0.028459229267820563,-6.433372945332537,-6.71835429806591
1621787249543.789,0.063,0.052,0.049,0.019472892100721048,-6.439570419240882,-6.724241898278838
1621787249548.476,0.063,0.049,0.051,0.010492168470633782,-6.445764021744391,-6.730125820657171
1621787249553.159,0.058,0.042,0.049,0.0015193973513138587,-6.451952139757715,-6.736004532769829
1621787249553.952,0.05766120788567852,0.042338792114321476,0.04866120788567852,0.0,-6.453,-6.737
1621787249557.84,0.056,0.044,0.047,-0.0025737326071849902,-6.44785253478563,-6.737
1621787249562.518,0.059,0.037,0.047,-0.0056702597003830055,-6.441659480599234,-6.737
1621787249567.193,0.054,0.044,0.042,-0.008764847525008486,-6.435470304949983,-6.737
1621787249569.059,0.05479880852842809,0.044,0.04319821279264214,-0.01,-6.433,-6.737
1621787249571.865,0.056,0.044,0.045,-0.0027423209572693865,-6.433,-6.744257679042731
1621787249576.534,0.056,0.044,0.038,0.00933423468644246,-6.433,-6.756334234686443
1621787249581.201,0.049,0.045,0.037,0.021405738434883984,-6.433,-6.7684057384348835
1621787249584.137,0.05025873979485032,0.0399650408205987,0.03448252041029935,0.029,-6.433,-6.776
1621787249585.866,0.051,0.037,0.033,0.025667510425286796,-6.430816644761395,-6.776
1621787249590.526,0.047,0.049,0.033,0.0166859757581658,-6.42493219101397,-6.776
1621787249595.185,0.047,0.04,0.024,0.007705852764120787,-6.419048662155803,-6.776
1621787249599.183,0.042704768399517395,0.03570476839951739,0.021422861039710434,0.0,-6.414,-6.776
1621787249599.839,0.042,0.035,0.021,-0.00043684664032905753,-6.414,-6.773466289486091
1621787249604.492,0.042,0.033,0.019,-0.0035352550033328455,-6.414,-6.755495520980669
1621787249609.141,0.035,0.042,0.017,-0.006631224698824562,-6.414,-6.737538896746817
1621787249613.788,0.03,0.044,0.017,-0.009725731193809036,-6.414,-6.719590759075907
1621787249614.2,0.029467739391071147,0.043467739391071146,0.016911289898511858,-0.01,-6.414,-6.718
1621787249618.431,0.024,0.038,0.016,-0.01,-6.414,-6.7123545891359235
1621787249623.073,0.019,0.038,0.017,-0.01,-6.414,-6.706160599397346
1621787249627.71,0.016,0.03,0.017,-0.01,-6.414,-6.699973450606727
1621787249629.189,0.013128153805636028,0.03159547010797999,0.016680905978404003,-0.01,-6.414,-6.698
1621787249632.345,0.007,0.035,0.016,0.0066650293733681466,-6.418008045039164,-6.706227039817232
1621787249636.978,0.007,0.035,0.016,0.031129503916449086,-6.423891906005221,-6.718304438642298
1621787249641.608,0.0,0.024,0.017,0.055577219321148834,-6.429771736292428,-6.730373563968668
1621787249644.15,0.0,0.022351488283723877,0.017,0.069,-6.433,-6.737
1621787249646.234,0.0,0.021,0.017,0.08268105323411563,-6.438444500776842,-6.745236552457274
1621787249650.857,-0.005,0.026,0.023,0.11303068116771608,-6.450522413934091,-6.763508267233625
1621787249655.479,-0.009,0.028,0.026,0.1433738981110475,-6.462597775778886,-6.781776122332161
1621787249659.078,-0.009,0.033456453915710435,0.026,0.167,-6.472,-6.796
1621787249660.096,-0.009,0.035,0.026,0.16829819272173158,-6.473366518654455,-6.796
1621787249664.712,-0.01,0.038,0.03,0.17418426701184644,-6.47956238632826,-6.796
1621787249669.323,-0.007,0.033,0.031,0.18006411495797217,-6.4857516999557605,-6.796
1621787249673.933,-0.009,0.033,0.033,0.1859427176353001,-6.491939702774,-6.796
1621787249673.978,-0.009029252782193959,0.033,0.033,0.186,-6.492,-6.796
1621787249678.54,-0.012,0.033,0.033,0.186,-6.498135912128327,-6.7840349713497625
1621787249683.144,-0.012,0.047,0.037,0.186,-6.504328303807444,-6.771959807575484
1621787249687.744,-0.016,0.047,0.038,0.186,-6.510515113205378,-6.759895529249511
1621787249688.848,-0.016240046714088546,0.04748009342817709,0.038,0.186,-6.512,-6.757
1621787249692.343,-0.017,0.049,0.038,0.186,-6.512,-6.738395252430538
1621787249696.937,-0.021,0.054,0.044,0.186,-6.512,-6.713941107766208
1621787249701.53,-0.028,0.049,0.045,0.186,-6.512,-6.689492161410781
1621787249703.689,-0.028940944881889762,0.05135236220472441,0.04782283464566929,0.186,-6.512,-6.678
1621787249706.119,-0.03,0.054,0.051,0.192562489697689,-6.512,-6.678
1621787249710.706,-0.035,0.051,0.051,0.20495097748326904,-6.512,-6.678
1621787249715.289,-0.035,0.061,0.056,0.21732825635446545,-6.512,-6.678
1621787249718.5,-0.038503836317135554,0.06240153452685422,0.05459846547314578,0.226,-6.512,-6.678
1621787249719.871,-0.04,0.063,0.054,0.226,-6.513762566279588,-6.679855332925882
1621787249724.448,-0.037,0.068,0.059,0.226,-6.519646261087893,-6.686048695881993
1621787249729.024,-0.042,0.066,0.066,0.226,-6.5255287005071105,-6.692240737375907
1621787249733.28,-0.042,0.07624210863643646,0.066,0.226,-6.531,-6.698
1621787249733.595,-0.042,0.077,0.066,0.22431330685203577,-6.531213505461768,-6.698
1621787249738.165,-0.042,0.08,0.068,0.19983795100959947,-6.5343116517709365,-6.698
1621787249742.731,-0.042,0.075,0.072,0.1753848229063224,-6.537406984442238,-6.698
1621787249747.296,-0.037,0.082,0.07,0.1509369248593181,-6.5405016550810995,-6.698
1621787249748.031,-0.03635517721383446,0.0808715601242103,0.07080602848270694,0.147,-6.541,-6.698
1621787249751.856,-0.033,0.075,0.075,0.1368659380027532,-6.546196954870383,-6.708134061997247
1621787249756.415,-0.031,0.084,0.073,0.12478682434113413,-6.552391372132752,-6.720213175658866
1621787249760.969,-0.026,0.082,0.072,0.11272129434594397,-6.558578823412336,-6.732278705654056
1621787249762.751,-0.026,0.08121722344361629,0.07239138827819186,0.108,-6.561,-6.737
1621787249765.522,-0.026,0.08,0.073,0.09687143949213946,-6.5645837737228705,-6.7334162262771295
1621787249770.071,-0.024,0.084,0.072,0.07860197095090904,-6.570467161897165,-6.727532838102835
1621787249774.618,-0.017,0.082,0.07,0.060341326818891886,-6.57634770831256,-6.72165229168744
1621787249777.442,-0.02072968615649183,0.08324322871883061,0.0687567712811694,0.049,-6.58,-6.718
1621787249779.161,-0.023,0.084,0.068,0.043254063686629804,-6.577771983878489,-6.718
1621787249783.702,-0.017,0.084,0.066,0.02807519485710479,-6.571886300046632,-6.718
1621787249788.24,-0.012,0.087,0.066,0.012906118846179468,-6.566004413430151,-6.718
1621787249792.101,-0.013702826379542395,0.07508021534320322,0.06344576043068641,0.0,-6.561,-6.718
1621787249792.775,-0.014,0.073,0.063,-0.00225685868767105,-6.559618249783059,-6.7197962752820235
1621787249797.307,-0.007,0.077,0.061,-0.017435868767105,-6.550324978305854,-6.731877528202389
1621787249801.837,-0.012,0.066,0.056,-0.032608337227154394,-6.541035711901742,-6.743953574527735
1621787249806.363,-0.01,0.072,0.059,-0.047767722448434684,-6.531754455643815,-6.75601920766304
1621787249806.731,-0.00991867242309768,0.07183734484619536,0.058349379384781436,-0.049,-6.531,-6.757
1621787249810.887,-0.009,0.07,0.051,-0.054692739858877036,-6.51989915727519,-6.762408102865933
1621787249815.407,-0.007,0.066,0.052,-0.06088409189713407,-6.5078260208005885,-6.768289887302277
1621787249819.926,-0.002,0.061,0.049,-0.06707410627696218,-6.4957554927599235,-6.774170400963114
1621787249821.332,-0.002,0.055705942789163465,0.04744292434975396,-0.069,-6.492,-6.776
1621787249824.441,-0.002,0.044,0.044,-0.07732050530266223,-6.487733074203763,-6.784533851592474
1621787249828.953,-0.002,0.045,0.044,-0.08939614991539196,-6.481540435940825,-6.7969191281183505
1621787249833.462,0.0,0.044,0.037,-0.1014639536247424,-6.475351818653978,-6.809296362692043
1621787249835.904,0.0027092248523915285,0.03912339526569525,0.03483262011808678,-0.108,-6.472,-6.816
1621787249837.969,0.005,0.035,0.033,-0.10516002954804915,-6.472,-6.816
1621787249842.472,0.002,0.023,0.033,-0.09896702706332684,-6.472,-6.816
1621787249846.974,0.0,0.031,0.028,-0.09277503189846215,-6.472,-6.816
1621787249850.446,0.003860415874911776,0.021735001900211735,0.024139584125088223,-0.088,-6.472,-6.816
1621787249851.471,0.005,0.019,0.023,-0.08665822188577676,-6.4706582218857776,-6.816
1621787249855.967,0.01,0.017,0.019,-0.08077204138279082,-6.464772041382791,-6.816
1621787249860.458,0.007,0.01,0.012,-0.07489257296660778,-6.458892572966608,-6.816
1621787249864.948,0.01,0.012,0.01,-0.06901438304314914,-6.45301438304315,-6.816
1621787249864.959,0.010004897959183674,0.01199265306122449,0.009997551020408163,-0.069,-6.453,-6.816
1621787249869.434,0.012,0.009,0.009,-0.06281891755184624,-6.453,-6.791584724329793
1621787249873.918,0.009,0.003,0.002,-0.05662569549822964,-6.453,-6.767121497218007
1621787249878.399,0.012,0.0,0.002,-0.05043651997976732,-6.453,-6.742674253920081
1621787249879.439,0.01130323846908734,-0.002787046123650638,0.002,-0.049,-6.453,-6.737
1621787249882.877,0.009,-0.012,0.002,-0.03972159618860976,-6.453,-6.74627840381139
1621787249887.352,0.002,-0.012,-0.003,-0.02764425334932676,-6.453,-6.758355746650674
1621787249891.824,0.002,-0.012,-0.005,-0.015575476001419133,-6.453,-6.770424523998581
1621787249893.89,0.002,-0.013849112264408632,-0.005,-0.01,-6.453,-6.776
1621787249896.293,0.002,-0.016,-0.005,-0.008333643704819788,-6.453,-6.776
1621787249900.76,-0.003,-0.019,-0.01,-0.005236079838832551,-6.453,-6.776
1621787249905.223,-0.003,-0.03,-0.007,-0.0021413939629924324,-6.453,-6.776
1621787249908.311,-0.00576828801225584,-0.02723171198774416,-0.01184450402144772,0.0,-6.453,-6.776
1621787249909.685,-0.007,-0.026,-0.014,0.0027690741589046675,-6.456723927317148,-6.776
1621787249914.142,-0.01,-0.026,-0.016,0.011751344564903888,-6.468803532345905,-6.776
1621787249918.598,-0.014,-0.024,-0.012,0.02073115488369726,-6.480879828981524,-6.776
1621787249922.701,-0.014,-0.025843571741992102,-0.018452501096972357,0.029,-6.492,-6.776
1621787249923.049,-0.014,-0.026,-0.019,0.03091513523621713,-6.492,-6.776
1621787249927.499,-0.005,-0.028,-0.016,0.05539421654794893,-6.492,-6.776
1621787249931.945,-0.002,-0.031,-0.017,0.079851809666287,-6.492,-6.776
1621787249936.389,-0.007,-0.031,-0.017,0.10429731567584108,-6.492,-6.776
1621787249937.062,-0.006696883074047606,-0.0308484415370238,-0.017,0.108,-6.492,-6.776
1621787249940.83,-0.005,-0.03,-0.017,0.1182549747853346,-6.4867410385716235,-6.776
1621787249945.268,-0.002,-0.035,-0.019,0.13033317432192992,-6.480547090091318,-6.776
1621787249949.703,0.0,-0.031,-0.019,0.14240273613193402,-6.4743575712143935,-6.776
1621787249951.392,0.0,-0.028332103117770187,-0.01823774374793434,0.147,-6.472,-6.776
1621787249954.135,0.0,-0.024,-0.017,0.147,-6.472,-6.768520356429559
1621787249958.564,0.0,-0.024,-0.014,0.147,-6.472,-6.75644307881395
1621787249962.99,0.002,-0.021,-0.017,0.147,-6.472,-6.744373790136734
1621787249965.694,0.0007775509077865459,-0.021,-0.01272142817725291,0.147,-6.472,-6.737
1621787249967.414,0.0,-0.021,-0.01,0.15170004105511647,-6.469710236409046,-6.737
1621787249971.835,0.0,-0.019,-0.016,0.163780714359027,-6.463824780184064,-6.737
1621787249976.253,-0.005,-0.019,-0.012,0.17585338191522118,-6.457943224195149,-6.737
1621787249979.966,-0.0033175884955752213,-0.014793971238938053,-0.010317588495575222,0.186,-6.453,-6.737
1621787249980.667,-0.003,-0.014,-0.01,0.186,-6.453,-6.737
1621787249985.08,-0.005,-0.01,-0.007,0.186,-6.453,-6.737
1621787249989.49,-0.01,-0.012,-0.01,0.186,-6.453,-6.737
1621787249993.896,-0.016,-0.005,-0.005,0.186,-6.453,-6.737
1621787249994.208,-0.01585827557527031,-0.005283448849459384,-0.004645688938175769,0.186,-6.453,-6.737
1621787249998.299,-0.014,-0.009,0.0,0.1690173320049471,-6.458468994778068,-6.742756836608493
1621787250002.7,-0.016,-0.005,-0.005,0.15074857427511337,-6.464352154046998,-6.748949635838945
1621787250007.097,-0.023,-0.003,-0.003,0.13249603201868904,-6.470230091383812,-6.755136938298749
1621787250008.421,-0.022397645229367987,-0.0026988226146839943,-0.0026988226146839943,0.127,-6.472,-6.757
1621787250011.493,-0.021,-0.002,-0.002,0.11443736014046202,-6.476331944779151,-6.773894584638689
1621787250015.885,-0.024,0.0,-0.002,0.09647646917065447,-6.482525355458395,-6.798048886287741
1621787250020.274,-0.021,-0.005,-0.003,0.0785285571659724,-6.488714290632424,-6.822185733466451
1621787250022.604,-0.019937489563039243,-0.0007499582521569717,-0.0014062343445588644,0.069,-6.492,-6.835
1621787250024.66,-0.019,0.003,0.0,0.05897534591628999,-6.494905696835858,-6.835
1621787250029.044,-0.012,0.0,-0.005,0.03759870259825403,-6.501101825333839,-6.835
1621787250033.425,-0.01,-0.005,-0.005,0.016236344501569994,-6.5072938131879505,-6.835
1621787250036.755,-0.0046758309167967875,-0.006521191166629489,-0.005,0.0,-6.512,-6.835
1621787250037.803,-0.003,-0.007,-0.005,-0.000742117272852994,-6.507621508090167,-6.833589977181579
1621787250042.178,0.0,-0.014,-0.01,-0.0038398907481676115,-6.4893446445858105,-6.827704207578481
1621787250046.55,0.002,-0.012,-0.01,-0.006935589821601439,-6.471080020052551,-6.821822379338957
1621787250050.878,0.006953059513830679,-0.01695305951383068,-0.011981223805532272,-0.01,-6.453,-6.816
1621787250050.919,0.007,-0.017,-0.012,-0.009941797017097126,-6.452941797017098,-6.815656602400873
1621787250055.286,0.003,-0.017,-0.016,-0.0037449115695750834,-6.446744911569575,-6.779094978260493
1621787250059.649,-0.002,-0.019,-0.016,0.0024464307367181148,-6.440553569263282,-6.742566058653363
1621787250064.01,-0.01,-0.028,-0.014,0.00863500147239689,-6.434364998527603,-6.706053491312859
1621787250064.972,-0.011545098039215686,-0.027117086834733895,-0.014662184873949581,0.01,-6.433,-6.698
1621787250068.368,-0.017,-0.024,-0.017,0.014588527379422896,-6.4378300288204455,-6.683751414979687
1621787250072.723,-0.024,-0.026,-0.014,0.020472794194242857,-6.444023993888677,-6.665479218028404
1621787250077.075,-0.031,-0.023,-0.016,0.02635310253828258,-6.4502137921455605,-6.647219313170597
1621787250079.034,-0.03280132450331126,-0.021198675496688742,-0.016,0.029,-6.453,-6.639
1621787250081.425,-0.035,-0.019,-0.016,0.029,-6.459644735926519,-6.655697028738432
1621787250085.771,-0.038,-0.019,-0.012,0.029,-6.471721818245077,-6.686044568923527
1621787250090.115,-0.042,-0.016,-0.012,0.029,-6.483793472966391,-6.71637847053093
1621787250093.068,-0.03927828092479046,-0.02280429768802385,-0.012,0.029,-6.492,-6.737
1621787250094.455,-0.038,-0.026,-0.012,0.029,-6.492,-6.742843427475593
1621787250098.793,-0.037,-0.019,-0.012,0.029,-6.492,-6.761119438633194
1621787250103.128,-0.031,-0.021,-0.016,0.029,-6.492,-6.779383106694561
1621787250107.072,-0.028268654192966636,-0.023731345807033365,-0.012358205590622182,0.029,-6.492,-6.796
1621787250107.46,-0.028,-0.024,-0.012,0.028523139373262573,-6.4910211808188025,-6.79549804144554
1621787250111.831,-0.03,-0.024,-0.01,0.023150129517311095,-6.479992371114481,-6.78984224159717
1621787250116.829,-0.026,-0.03,-0.016,0.017006460070760676,-6.467381681197877,-6.783375221127116
1621787250121.825,-0.024,-0.028,-0.017,0.010865491533990395,-6.4547765352539805,-6.7769110437199895
1621787250122.529,-0.024,-0.028422626025791327,-0.016295623290347793,0.01,-6.453,-6.776
1621787250126.823,-0.024,-0.031,-0.012,0.015055475711411326,-6.4580554757114115,-6.776
1621787250131.819,-0.028,-0.028,-0.017,0.020937625754527164,-6.463937625754528,-6.776
1621787250136.816,-0.031,-0.031,-0.021,0.02682063811440069,-6.469820638114401,-6.776
1621787250138.667,-0.029147840531561463,-0.03062956810631229,-0.019147840531561464,0.029,-6.472,-6.776
1621787250141.813,-0.026,-0.03,-0.016,0.03289888201388784,-6.468296062086807,-6.772296062086807
1621787250146.809,-0.031,-0.021,-0.021,0.039090618901378195,-6.462413912043691,-6.76641391204369
1621787250151.805,-0.033,-0.024,-0.019,0.045282053221585156,-6.456532049439494,-6.760532049439494
1621787250154.805,-0.036001758843072114,-0.027602110611686534,-0.019,0.049,-6.453,-6.757
1621787250156.802,-0.038,-0.03,-0.019,0.05382712705593972,-6.453,-6.761827127055939
1621787250161.797,-0.037,-0.037,-0.021,0.06590084582910924,-6.453,-6.773900845829109
1621787250166.793,-0.035,-0.031,-0.021,0.07797633494227481,-6.453,-6.785976334942275
1621787250170.94,-0.03666041055718475,-0.0343208211143695,-0.01933958944281525,0.088,-6.453,-6.796
1621787250171.788,-0.037,-0.035,-0.019,0.08700113497071775,-6.451948563127072,-6.796
1621787250176.784,-0.038,-0.037,-0.019,0.08111749216870205,-6.445755254914423,-6.796
1621787250181.779,-0.037,-0.037,-0.026,0.07523471194443183,-6.439562854678349,-6.796
1621787250186.775,-0.035,-0.035,-0.023,0.06935106914241614,-6.433369546465701,-6.796
1621787250187.073,-0.03529844544387955,-0.03517906726632773,-0.023,0.069,-6.433,-6.796
1621787250191.769,-0.04,-0.038,-0.023,0.0573567137301191,-6.433,-6.80182164313494
1621787250196.764,-0.035,-0.038,-0.023,0.04497251857568742,-6.433,-6.808013740712156
1621787250201.759,-0.038,-0.037,-0.024,0.032587718103539595,-6.433,-6.81420614094823
1621787250203.206,-0.038,-0.03786927401613297,-0.024579516010755316,0.029,-6.433,-6.816
1621787250206.753,-0.038,-0.04,-0.026,0.03779578615971424,-6.433,-6.811602106920143
1621787250211.747,-0.042,-0.037,-0.024,0.05018060180420174,-6.433,-6.8054096990979
1621787250216.742,-0.044,-0.037,-0.024,0.06256723375915724,-6.433,-6.799216383120422
1621787250219.336,-0.04451950909446509,-0.034921963622139646,-0.024,0.069,-6.433,-6.796
1621787250221.735,-0.045,-0.033,-0.024,0.069,-6.435975129047396,-6.796
1621787250226.729,-0.049,-0.033,-0.026,0.069,-6.442167890283224,-6.796
1621787250231.723,-0.044,-0.038,-0.024,0.069,-6.44836065151905,-6.796
1621787250235.464,-0.044,-0.03725087993742667,-0.025498240125146655,0.069,-6.453,-6.796
1621787250236.717,-0.044,-0.037,-0.026,0.07047614145573454,-6.453,-6.802059949134068
1621787250241.709,-0.038,-0.037,-0.023,0.07635740886520528,-6.453,-6.826204099551895
1621787250246.703,-0.038,-0.038,-0.024,0.08224097735254934,-6.453,-6.850357696499939
1621787250251.591,-0.030168198709172696,-0.033105124193232936,-0.027915900645413654,0.088,-6.453,-6.874
1621787250251.696,-0.03,-0.033,-0.028,0.088,-6.453,-6.874
1621787250256.689,-0.031,-0.033,-0.024,0.088,-6.453,-6.874
1621787250261.681,-0.024,-0.03,-0.024,0.088,-6.453,-6.874
1621787250266.674,-0.021,-0.03,-0.026,0.088,-6.453,-6.874
1621787250267.719,-0.020162713356482617,-0.030209321660879345,-0.02641864332175869,0.088,-6.453,-6.874
1621787250271.666,-0.017,-0.031,-0.028,0.09289582702440796,-6.448104172975592,-6.854906274604809
1621787250276.659,-0.016,-0.035,-0.024,0.0990889709890376,-6.441911029010963,-6.830753013142753
1621787250281.65,-0.021,-0.031,-0.023,0.1052796923263279,-6.435720307673672,-6.806609199927322
1621787250283.843,-0.02187844709563857,-0.033635341286915706,-0.022121552904361432,0.108,-6.433,-6.796
1621787250286.643,-0.023,-0.037,-0.021,0.108,-6.433,-6.792526860880625
1621787250291.634,-0.019,-0.028,-0.021,0.108,-6.433,-6.786336139543335
1621787250296.626,-0.023,-0.024,-0.019,0.108,-6.433,-6.780144206892374
1621787250299.967,-0.02366942229614049,-0.028016533776842927,-0.016991733111578537,0.108,-6.433,-6.776
1621787250301.617,-0.024,-0.03,-0.016,0.10994442425343752,-6.433,-6.782037948997516
1621787250306.609,-0.023,-0.031,-0.017,0.1158274728935732,-6.433,-6.8003063631958325
1621787250311.599,-0.023,-0.019,-0.012,0.12170850748076807,-6.433,-6.818568523229754
1621787250316.089,-0.017603315889861595,-0.02259778940675894,-0.015597789406758938,0.127,-6.433,-6.835
1621787250316.591,-0.017,-0.023,-0.016,0.127,-6.434214485860988,-6.835
1621787250321.581,-0.016,-0.023,-0.005,0.127,-6.446287869378853,-6.835
1621787250326.572,-0.017,-0.023,-0.01,0.127,-6.458363615709677,-6.835
1621787250331.562,-0.016,-0.017,-0.005,0.127,-6.470436999227542,-6.835
1621787250332.208,-0.016129433057770388,-0.017,-0.00564716528885193,0.127,-6.472,-6.835
1621787250336.553,-0.017,-0.017,-0.01,0.11648598045898659,-6.477391804892828,-6.829877785351814
1621787250341.542,-0.01,-0.021,-0.002,0.10441349693251534,-6.483582822085889,-6.823996319018405
1621787250346.533,-0.009,-0.014,-0.003,0.09233628720745285,-6.489776262970537,-6.81811255017799
1621787250348.325,-0.008281624663567409,-0.015795938341081478,-0.0019224369953511132,0.088,-6.492,-6.816
1621787250351.522,-0.007,-0.019,0.0,0.08423062705470631,-6.488032239004954,-6.816
1621787250356.512,-0.002,-0.017,-0.005,0.07834729649885619,-6.481839259472481,-6.816
1621787250361.501,-0.003,-0.012,-0.003,0.07246511733604012,-6.4756474919326745,-6.816
1621787250364.44,0.0005338323792749159,-0.014355888252849945,-0.001233083810362542,0.069,-6.472,-6.816
1621787250366.491,0.003,-0.016,0.0,0.069,-6.472,-6.8134545124002
1621787250371.481,0.0,-0.016,-0.005,0.069,-6.472,-6.807261532867726
1621787250376.469,0.0,-0.012,0.0,0.069,-6.472,-6.801070977320587
1621787250380.555,0.0,-0.017732909224369955,-0.005732909224369954,0.069,-6.472,-6.796
1621787250381.458,0.0,-0.019,-0.007,0.069,-6.470935055686037,-6.793814061671339
1621787250386.447,0.0,-0.012,0.002,0.069,-6.465051806955072,-6.781737919539359
1621787250391.435,0.0,-0.016,-0.007,0.069,-6.459169709826503,-6.76966414122282
1621787250396.424,0.0,-0.017,0.0,0.069,-6.453286461095538,-6.75758799909084
1621787250396.667,0.0,-0.016853898487592386,-0.0002435025206793598,0.069,-6.453,-6.757
1621787250401.412,0.0,-0.014,-0.005,0.07459597520874059,-6.458595975208741,-6.745513524571532
1621787250406.4,-0.005,-0.012,-0.002,0.08047814095861557,-6.464478140958616,-6.733439605400736
1621787250411.388,-0.005,-0.019,0.002,0.08636059462653997,-6.47036059462654,-6.72136509524026
1621787250412.778,-0.005557497429872228,-0.01760625642531943,0.0008850051402555441,0.088,-6.472,-6.718
1621787250416.375,-0.007,-0.014,-0.002,0.088,-6.46775726757404,-6.72224273242596
1621787250421.363,-0.009,-0.012,0.003,0.088,-6.4618736548546485,-6.728126345145352
1621787250426.351,-0.012,-0.014,0.005,0.088,-6.455990042135258,-6.7340099578647425
1621787250428.886,-0.010983155420624818,-0.012983155420624816,0.005,0.088,-6.453,-6.737
1621787250431.337,-0.01,-0.012,0.005,0.08510902118888114,-6.453,-6.737
1621787250436.325,-0.012,0.002,0.003,0.07922540846948983,-6.453,-6.737
1621787250441.311,-0.01,0.003,0.0,0.07334409954833429,-6.453,-6.737
1621787250444.994,-0.015168371592188343,0.0022616612011159515,0.003691693994420244,0.069,-6.453,-6.737
1621787250446.299,-0.017,0.002,0.005,0.069,-6.453,-6.737
1621787250451.285,-0.01,0.0,0.005,0.069,-6.453,-6.737
1621787250456.271,-0.012,0.0,0.005,0.069,-6.453,-6.737
1621787250461.102,-0.012,0.0,0.005,0.069,-6.453,-6.737
1621787250461.258,-0.012,0.0,0.005,0.06880626383288362,-6.453,-6.737
1621787250466.244,-0.017,0.0,0.002,0.06261458933389928,-6.453,-6.737
1621787250471.23,-0.017,0.0,0.01,0.05642261164842495,-6.453,-6.737
1621787250476.216,-0.023,0.005,0.009,0.05023063396295061,-6.453,-6.737
1621787250477.207,-0.022204819277108434,0.004602409638554217,0.00919879518072289,0.049,-6.453,-6.737
1621787250481.201,-0.019,0.003,0.01,0.049,-6.443326576098493,-6.746673423901507
1621787250486.187,-0.023,0.005,0.009,0.049,-6.431250022743124,-6.758749977256876
1621787250491.172,-0.028,0.003,0.005,0.049,-6.41917583467265,-6.770824165327349
1621787250493.309,-0.028,0.006000832598687432,0.007143451856205309,0.049,-6.414,-6.776
1621787250496.157,-0.028,0.01,0.01,0.04546220335127758,-6.414,-6.7795377966487225
1621787250501.143,-0.033,0.01,0.009,0.039268253847903556,-6.414,-6.785731746152097
1621787250506.127,-0.037,0.01,0.012,0.0330770338918796,-6.414,-6.79192296610812
1621787250509.409,-0.037,0.01,0.010683285175571771,0.029,-6.414,-6.796
1621787250511.112,-0.037,0.01,0.01,0.03111567039699148,-6.414,-6.798115670396991
1621787250516.096,-0.031,0.003,0.012,0.03730679646983896,-6.414,-6.804306796469839
1621787250521.08,-0.038,0.01,0.009,0.04349822582112638,-6.414,-6.810498225821126
1621787250525.509,-0.03977696150455481,0.011776961504554805,0.009,0.049,-6.414,-6.816
1621787250526.065,-0.04,0.012,0.009,0.04969065926566268,-6.414656126302379,-6.816656126302379
1621787250531.048,-0.035,0.012,0.009,0.05588172043010753,-6.420537634408602,-6.822537634408602
1621787250536.032,-0.037,0.012,0.01,0.06207369155405918,-6.426420006976356,-6.828420006976356
1621787250541.016,-0.033,0.007,0.012,0.06826596599784643,-6.432302667697954,-6.834302667697954
1621787250541.607,-0.03323709219163319,0.008066914862349369,0.012,0.069,-6.433,-6.835
1621787250546.0,-0.035,0.016,0.012,0.07418566943226805,-6.427814330567732,-6.835
1621787250550.983,-0.031,0.014,0.012,0.08006760302749928,-6.4219323969725,-6.835
1621787250555.967,-0.031,0.019,0.014,0.08595097756677637,-6.416049022433223,-6.835
1621787250557.703,-0.03309056159952955,0.016561011467215524,0.01330314613349015,0.088,-6.414,-6.835
1621787250560.949,-0.037,0.012,0.012,0.08416783471375261,-6.417832165286247,-6.831167834713753
1621787250565.932,-0.031,0.014,0.014,0.07828527653893996,-6.423714723461059,-6.82528527653894
1621787250570.915,-0.031,0.017,0.017,0.07240243014471649,-6.429597569855283,-6.8194024301447165
1621787250573.797,-0.03215678588926996,0.017,0.018156785889269965,0.069,-6.433,-6.816
1621787250575.898,-0.033,0.017,0.019,0.0663891012804175,-6.433,-6.813389101280418
1621787250580.881,-0.037,0.021,0.023,0.060196067722555986,-6.433,-6.807196067722556
1621787250585.862,-0.037,0.021,0.021,0.054005764912919474,-6.433,-6.80100576491292
1621787250589.89,-0.03376668299853013,0.022616658500734934,0.022616658500734934,0.049,-6.433,-6.796
1621787250590.845,-0.033,0.023,0.023,0.049,-6.431872126371375,-6.797187235398552
1621787250595.826,-0.035,0.023,0.019,0.049,-6.425990000151742,-6.803378947208692
1621787250600.808,-0.033,0.023,0.017,0.049,-6.420106432375836,-6.809572176446488
1621787250605.79,-0.03,0.023,0.023,0.049,-6.414223152911185,-6.815765102198752
1621787250605.979,-0.029924139958835635,0.023,0.023,0.049,-6.414,-6.816
1621787250610.772,-0.028,0.023,0.023,0.05495766633791063,-6.414,-6.810042333662089
1621787250615.753,-0.031,0.024,0.026,0.061149002351870124,-6.414,-6.80385099764813
1621787250620.734,-0.038,0.031,0.024,0.06734033836582962,-6.414,-6.797659661634171
1621787250622.069,-0.03907219526540215,0.029659755918247314,0.024,0.069,-6.414,-6.796
1621787250625.715,-0.042,0.026,0.024,0.069,-6.414,-6.800532871972319
1621787250630.696,-0.038,0.031,0.024,0.069,-6.414,-6.806725429490681
1621787250635.676,-0.04,0.026,0.024,0.069,-6.414,-6.812916772901111
1621787250638.156,-0.04348524654445643,0.03147681599843152,0.0259915694539751,0.069,-6.414,-6.816
1621787250640.657,-0.047,0.037,0.028,0.06589010321797208,-6.420064298724954,-6.816
1621787250645.637,-0.044,0.037,0.028,0.0596976320582878,-6.432139617486339,-6.816
1621787250650.618,-0.045,0.035,0.031,0.053503946569520344,-6.4442173041894355,-6.816
1621787250654.24,-0.042817593409826424,0.03209012454643523,0.02881759340982642,0.049,-6.453,-6.816
1621787250655.597,-0.042,0.031,0.028,0.049,-6.453,-6.819290454793855
1621787250660.577,-0.037,0.035,0.026,0.049,-6.453,-6.831366506770296
1621787250665.557,-0.04,0.03,0.028,0.049,-6.453,-6.8434425587467365
1621787250670.323,-0.037128976910632876,0.030957007696455707,0.028,0.049,-6.453,-6.855
1621787250670.537,-0.037,0.031,0.028,0.04848073419566406,-6.453519265804336,-6.855252975648266
1621787250675.516,-0.024,0.037,0.031,0.036405583895062855,-6.4655944161049375,-6.861135741179329
1621787250680.495,-0.024,0.04,0.028,0.024330433594461652,-6.477669566405538,-6.867018506710391
1621787250685.474,-0.017,0.028,0.026,0.012255283293860449,-6.48974471670614,-6.872901272241452
1621787250686.404,-0.016066101113127056,0.02762644044525082,0.02637355955474918,0.01,-6.492,-6.874
1621787250690.453,-0.012,0.026,0.028,0.00017878672841849415,-6.477142267101966,-6.879036519626452
1621787250695.431,-0.012,0.021,0.028,-0.011896378407106523,-6.458874709589249,-6.885228912003645
1621787250700.411,-0.009,0.021,0.026,-0.023976281223900997,-6.440599984815124,-6.891423733960975
1621787250702.482,-0.007335524379476111,0.021,0.025167762189738055,-0.029,-6.433,-6.894
1621787250705.388,-0.005,0.021,0.024,-0.039663827137998056,-6.42595102951895,-6.894
1621787250710.367,-0.005,0.012,0.021,-0.05793469084062196,-6.41387367893586,-6.894
1621787250715.345,-0.007,0.012,0.017,-0.07620197096695822,-6.401798697157434,-6.894
1621787250718.56,-0.005708288376655223,0.010062432564982834,0.017,-0.088,-6.394,-6.894
1621787250720.323,-0.005,0.009,0.017,-0.088,-6.391806600549793,-6.894
1621787250725.301,-0.007,0.005,0.017,-0.088,-6.385613079598438,-6.894
1621787250730.279,-0.009,0.002,0.009,-0.088,-6.3794195586470845,-6.894
1621787250734.635,-0.007249583047189248,0.002,0.009,-0.088,-6.374,-6.894
1621787250735.256,-0.007,0.002,0.009,-0.088,-6.374772700350813,-6.8947727003508135
1621787250740.233,-0.007,0.0,0.003,-0.088,-6.380964326393002,-6.900964326393002
1621787250745.21,-0.01,-0.007,0.002,-0.088,-6.387156256169606,-6.907156256169605
1621787250750.188,-0.009,-0.009,0.0,-0.088,-6.393349400883867,-6.913349400883867
1621787250750.711,-0.00857962908448631,-0.009735649102148955,-0.00021018545775684428,-0.088,-6.394,-6.914
1621787250755.164,-0.005,-0.016,-0.002,-0.10434731357567104,-6.394,-6.914
1621787250760.141,-0.003,-0.017,0.0,-0.12261794595251477,-6.394,-6.914
1621787250765.117,-0.003,-0.026,-0.003,-0.14088409715787395,-6.394,-6.914
1621787250766.783,-0.001995781418620622,-0.024326302364367704,-0.005343176689885215,-0.147,-6.394,-6.914
1621787250770.094,0.0,-0.021,-0.01,-0.1389650295471463,-6.3818445318790165,-6.9098795023318695
1621787250775.069,0.005,-0.023,-0.012,-0.12689183769577833,-6.363579959591049,-6.903688121895271
1621787250780.046,0.0,-0.024,-0.019,-0.11481449860999285,-6.345309113281784,-6.897494614671792
1621787250782.854,0.0,-0.031337619000883304,-0.017871135538325644,-0.108,-6.335,-6.894
1621787250785.021,0.0,-0.037,-0.017,-0.09734712790362031,-6.327044057548274,-6.8807850447412005
1621787250789.997,0.0,-0.037,-0.019,-0.07288488826094222,-6.308774789967033,-6.850439481640156
1621787250794.972,-0.005,-0.042,-0.023,-0.04842864956018413,-6.290510004101909,-6.820101362745545
1621787250798.924,-0.010559611421842802,-0.0443826906093612,-0.026971151015602,-0.029,-6.276,-6.796
1621787250799.948,-0.012,-0.045,-0.028,-0.025304172110972682,-6.279759549059528,-6.789755325290954
1621787250804.923,-0.024,-0.049,-0.024,-0.007346713664954877,-6.298026618858063,-6.759413412744235
1621787250809.898,-0.03,-0.047,-0.024,0.010609863563159013,-6.3162927922452825,-6.729072989151904
1621787250814.873,-0.037,-0.04,-0.028,0.02856732200917682,-6.334559862043818,-6.698731076605184
1621787250814.993,-0.037240957942778624,-0.04,-0.02790361682288855,0.029,-6.335,-6.698
1621787250819.848,-0.047,-0.04,-0.024,0.02325880172007719,-6.346784564890368,-6.709784564890368
1621787250824.822,-0.045,-0.038,-0.024,0.01737671513880658,-6.358858321557186,-6.721858321557186
1621787250829.797,-0.047,-0.033,-0.019,0.011493473735393778,-6.370934448648402,-6.7339344486484025
1621787250831.06,-0.04750782898934865,-0.034015657978697295,-0.020777401462720266,0.01,-6.374,-6.737
1621787250834.771,-0.049,-0.037,-0.026,0.019007749582130376,-6.378619358760067,-6.764254216684395
1621787250839.745,-0.045,-0.031,-0.024,0.031081689712809606,-6.384811122929646,-6.800785625284911
1621787250844.719,-0.037,-0.028,-0.024,0.04315503722838474,-6.391002583194044,-6.837315240844857
1621787250847.127,-0.037,-0.030420486895062333,-0.024,0.049,-6.394,-6.855
1621787250849.693,-0.037,-0.033,-0.024,0.0552301133773063,-6.39719492993708,-6.861230113377307
1621787250854.666,-0.035,-0.028,-0.026,0.06730329189337061,-6.403386303535062,-6.873303291893371
1621787250859.64,-0.024,-0.031,-0.024,0.07937884130216724,-6.40957889297547,-6.885378841302168
1621787250863.191,-0.026856161021109475,-0.027429798723613157,-0.025428080510554736,0.088,-6.414,-6.894
1621787250864.613,-0.028,-0.026,-0.026,0.088,-6.410458428332573,-6.894
1621787250869.586,-0.023,-0.024,-0.023,0.088,-6.398074175406596,-6.894
1621787250874.559,-0.03,-0.023,-0.019,0.088,-6.385689314485484,-6.894
1621787250879.253,-0.021505032156708726,-0.02960719721144877,-0.017112229368157497,0.088,-6.374,-6.894
1621787250879.532,-0.021,-0.03,-0.017,0.08834753260968713,-6.37332231141111,-6.893322311411111
1621787250884.504,-0.024,-0.024,-0.023,0.09453957250144425,-6.361247833622183,-6.881247833622184
1621787250889.477,-0.024,-0.016,-0.019,0.10073313265833561,-6.349170391316245,-6.869170391316246
1621787250894.45,-0.026,-0.024,-0.023,0.10692638876220012,-6.33709354191371,-6.85709354191371
1621787250895.312,-0.0266935087891584,-0.0227863596189728,-0.021439605224393598,0.108,-6.335,-6.855
1621787250899.422,-0.03,-0.017,-0.014,0.11798152877861899,-6.335,-6.855
1621787250904.393,-0.03,-0.016,-0.012,0.13005363495393596,-6.335,-6.855
1621787250909.365,-0.03,-0.009,-0.014,0.14212811274286236,-6.335,-6.855
1621787250911.371,-0.030403486373680334,-0.009,-0.01198256813159833,0.147,-6.335,-6.855
1621787250914.337,-0.031,-0.009,-0.009,0.13979729996807394,-6.324103607644009,-6.858509007707862
1621787250919.309,-0.031,-0.014,-0.007,0.1277220456998647,-6.3058359152895385,-6.864391823889809
1621787250924.28,-0.04,-0.012,-0.005,0.1156497559937364,-6.287572707785396,-6.870273195797923
1621787250927.43,-0.04,-0.012,-0.005,0.108,-6.276,-6.874
1621787250929.251,-0.04,-0.012,-0.005,0.10130960199458786,-6.273845465049105,-6.878535863054516
1621787250934.223,-0.045,-0.014,-0.005,0.08304308431390434,-6.267963027151935,-6.890919942838031
1621787250939.193,-0.042,-0.014,0.0,0.06478284532822524,-6.262082611207394,-6.903299765879169
1621787250943.489,-0.04459311293412585,-0.012271258043916098,0.0,0.049,-6.257,-6.914
1621787250944.163,-0.045,-0.012,0.0,0.049839656352163,-6.256160343647837,-6.912320687295674
1621787250949.134,-0.049,-0.012,0.002,0.056031703793811304,-6.249968296206188,-6.899936592412377
1621787250954.105,-0.047,-0.021,0.005,0.0622237512354596,-6.24377624876454,-6.8875524975290805
1621787250959.075,-0.049,-0.012,0.003,0.06841458222458754,-6.237585417775413,-6.875170835550825
1621787250959.545,-0.04966193446971558,-0.011716313798693324,0.0031891241342044507,0.069,-6.237,-6.874
1621787250964.045,-0.056,-0.009,0.005,0.07993105440832092,-6.2204632766643355,-6.874
1621787250969.015,-0.065,-0.01,0.01,0.0920037255557921,-6.202199492107904,-6.874
1621787250973.985,-0.068,-0.007,0.016,0.10407698975091997,-6.1839348103768135,-6.874
1621787250975.6,-0.07157514862673808,-0.007650027023043286,0.016,0.108,-6.178,-6.874
1621787250978.954,-0.079,-0.009,0.016,0.09985048065222682,-6.174029721343392,-6.870029721343393
1621787250983.924,-0.08,-0.012,0.021,0.08777450413725968,-6.168146553297639,-6.86414655329764
1621787250988.893,-0.093,-0.002,0.021,0.0757009004623996,-6.162264541250912,-6.858264541250913
1621787250991.651,-0.09854895122071032,-0.0008902097558579358,0.02377447561035516,0.069,-6.159,-6.855
1621787250993.863,-0.103,0.0,0.026,0.06348617893599867,-6.1616190650054,-6.860375975537401
1621787250998.831,-0.11,0.0,0.03,0.05110335752209697,-6.167500905177004,-6.872449226415956
1621787251003.8,-0.115,0.0,0.033,0.03871810201877292,-6.173383901541083,-6.8845248505316965
1621787251007.699,-0.11813922060052091,-0.001569610300260455,0.03613922060052091,0.029,-6.178,-6.894
1621787251008.768,-0.119,-0.002,0.037,0.02513515734372147,-6.179332704364234,-6.894
1621787251013.737,-0.126,-0.002,0.033,0.007171891168056485,-6.185526934079981,-6.894
1621787251018.705,-0.12,0.0,0.038,-0.010787844664921786,-6.19171994643618,-6.894
1621787251023.674,-0.126,0.003,0.038,-0.028751110840586767,-6.197914176151927,-6.894
1621787251023.743,-0.126,0.002916834603096584,0.0379861391005161,-0.029,-6.198,-6.894
1621787251028.641,-0.126,-0.003,0.037,-0.011294030827285039,-6.221811475783996,-6.894
1621787251033.609,-0.131,0.007,0.037,0.006663456125135043,-6.245961199616561,-6.894
1621787251038.577,-0.131,0.009,0.042,0.024621825596080404,-6.2701121102843835,-6.894
1621787251039.788,-0.1305124084721608,0.008024816944321589,0.0415124084721608,0.029,-6.276,-6.894
1621787251043.545,-0.129,0.005,0.04,0.029,-6.294499695641587,-6.894
1621787251048.511,-0.133,0.016,0.044,0.029,-6.318953965790114,-6.894
1621787251053.479,-0.138,0.012,0.045,0.029,-6.343417853664476,-6.894
1621787251055.831,-0.13705293683951833,0.0172088473826493,0.04689412632096338,0.029,-6.355,-6.894
1621787251058.446,-0.136,0.023,0.049,0.019545473914896208,-6.367714707493761,-6.890739818591344
1621787251063.413,-0.133,0.019,0.051,0.0015870822426492966,-6.3918656480185065,-6.884547269738844
1621787251068.379,-0.127,0.026,0.049,-0.016366895963961774,-6.416010653192914,-6.878356242771048
1621787251071.873,-0.127,0.023889604325387073,0.051110395674612924,-0.029,-6.433,-6.874
1621787251073.346,-0.127,0.023,0.052,-0.02725529680365297,-6.438417762557077,-6.875836529680365
1621787251078.312,-0.124,0.024,0.051,-0.021372815829528158,-6.456684414003044,-6.882028614916286
1621787251083.279,-0.117,0.031,0.056,-0.01548917808219178,-6.474954657534247,-6.888221917808219
1621787251087.913,-0.117,0.03753358575924469,0.058800108182533437,-0.01,-6.492,-6.894
1621787251088.244,-0.117,0.038,0.059,-0.010391934477141596,-6.491587437392482,-6.893195502915341
1621787251093.211,-0.106,0.042,0.058,-0.01627673664499825,-6.485392908794739,-6.88111617214974
1621787251098.176,-0.099,0.044,0.059,-0.022159224808561816,-6.479200815990988,-6.869041591182426
1621787251103.142,-0.099,0.051,0.058,-0.028042869974271925,-6.473007505290241,-6.856964635315968
1621787251103.95,-0.0988373875866136,0.051162612413386405,0.05913828689370485,-0.029,-6.472,-6.855
1621787251108.11,-0.098,0.052,0.065,-0.029,-6.482425844346549,-6.844834801762115
1621787251113.044,-0.098,0.061,0.063,-0.029,-6.494790626529613,-6.832779139133627
1621787251117.977,-0.086,0.061,0.066,-0.029,-6.5071535731767005,-6.820725266152716
1621787251119.911,-0.086,0.06374422172729523,0.06678406335065579,-0.029,-6.512,-6.816
1621787251122.91,-0.086,0.068,0.068,-0.032765672419607005,-6.508234327580393,-6.801125593942552
1621787251127.842,-0.084,0.07,0.065,-0.038958615615707674,-6.502041384384292,-6.776663468317954
1621787251132.774,-0.091,0.075,0.068,-0.04515125226081358,-6.495848747739187,-6.752202553569786
1621787251135.839,-0.091,0.075,0.068,-0.049,-6.492,-6.737
1621787251137.706,-0.091,0.075,0.068,-0.05814432452321089,-6.489655301404305,-6.732427837738395
1621787251142.637,-0.098,0.075,0.068,-0.08229600784938984,-6.4834625620899,-6.720351996075305
1621787251147.568,-0.099,0.068,0.07,-0.10644888698105108,-6.477269516158705,-6.7082755565094745
1621787251151.764,-0.1024036738129425,0.0739564291726494,0.07,-0.127,-6.472,-6.698
1621787251152.499,-0.103,0.075,0.07,-0.13157072542435255,-6.470199411196467,-6.697076621126394
1621787251157.429,-0.099,0.087,0.075,-0.16222388334330007,-6.458123924743549,-6.69088406397105
1621787251162.359,-0.094,0.075,0.077,-0.19287704126224758,-6.44604843829063,-6.684691506815708
1621787251167.288,-0.101,0.082,0.08,-0.2235256451538709,-6.433974745848475,-6.678499869665885
1621787251167.686,-0.10140368517509535,0.08216147407003814,0.0797577888949428,-0.226,-6.433,-6.678
1621787251172.217,-0.106,0.084,0.077,-0.2203074044537145,-6.427592034231028,-6.655798877369486
1621787251177.146,-0.119,0.084,0.077,-0.21411483958039385,-6.421709097601374,-6.631647874363535
1621787251182.074,-0.124,0.093,0.077,-0.20792350162566714,-6.415827326544384,-6.6075016563401014
1621787251183.605,-0.12555368911352263,0.0917570487091819,0.07855368911352262,-0.206,-6.414,-6.6
1621787251187.001,-0.129,0.089,0.082,-0.2102671329529419,-6.405465734094116,-6.608320909258237
1621787251191.929,-0.138,0.094,0.08,-0.21645923062764585,-6.393081538744708,-6.62039549972391
1621787251196.856,-0.138,0.101,0.084,-0.2226501012332045,-6.380699797533591,-6.632467697404749
1621787251199.522,-0.14286992715920915,0.09667117585848076,0.084,-0.226,-6.374,-6.639
1621787251201.783,-0.147,0.093,0.084,-0.2315419351868901,-6.36845806481311,-6.641842018044559
1621787251206.709,-0.145,0.096,0.084,-0.24361618486466582,-6.356383815135334,-6.648033940956239
1621787251211.636,-0.148,0.103,0.084,-0.2556928282084331,-6.3443071717915664,-6.65422709138894
1621787251215.433,-0.15493882912804244,0.10531294304268081,0.08554196202845386,-0.265,-6.335,-6.659
1621787251216.561,-0.157,0.106,0.086,-0.2691838191278722,-6.335,-6.661765575355712
1621787251221.486,-0.176,0.103,0.084,-0.2874522570643582,-6.335,-6.673841322466271
1621787251226.411,-0.18,0.101,0.091,-0.3057197894122884,-6.335,-6.685916470967445
1621787251231.336,-0.182,0.112,0.093,-0.3239882273487744,-6.335,-6.697992218078004
1621787251231.339,-0.18200515642818185,0.11199548812534087,0.093,-0.324,-6.335,-6.698
1621787251236.26,-0.19,0.105,0.093,-0.34194725045288465,-6.3288112929472815,-6.691811292947281
1621787251241.183,-0.195,0.106,0.091,-0.3599025146611809,-6.322619822530627,-6.685619822530628
1621787251246.107,-0.202,0.117,0.093,-0.377860450121281,-6.316427430992662,-6.679427430992662
1621787251247.242,-0.20338328787503102,0.117,0.09253890404165634,-0.382,-6.315,-6.678
1621787251251.03,-0.208,0.117,0.091,-0.3774736761296464,-6.315,-6.668709124687169
1621787251255.953,-0.213,0.11,0.087,-0.37159143879258727,-6.315,-6.656635058574258
1621787251260.874,-0.222,0.119,0.087,-0.36571124349388157,-6.315,-6.644565184013757
1621787251263.143,-0.22522708333333333,0.11392886904761905,0.08653898809523809,-0.363,-6.315,-6.639
1621787251265.796,-0.229,0.108,0.086,-0.363,-6.318338402691369,-6.639
1621787251270.717,-0.237,0.115,0.084,-0.363,-6.3245313148071345,-6.639
1621787251275.639,-0.248,0.119,0.079,-0.363,-6.330725148624361,-6.639
1621787251279.036,-0.25421376470004464,0.11761916339999008,0.07485749019997022,-0.363,-6.335,-6.639
1621787251280.559,-0.257,0.117,0.073,-0.3667384537381311,-6.338738453738131,-6.642738453738131
1621787251285.479,-0.255,0.115,0.072,-0.37881367728851056,-6.35081367728851,-6.6548136772885105
1621787251290.399,-0.255,0.12,0.072,-0.3908889008388901,-6.36288890083889,-6.66688890083889
1621787251294.926,-0.2577603334491143,0.11723966655088573,0.06555922195206669,-0.402,-6.374,-6.678
1621787251295.319,-0.258,0.117,0.065,-0.40103502435875765,-6.3744948593032005,-6.680424810585686
1621787251300.238,-0.255,0.112,0.058,-0.3889590434769245,-6.380687670011834,-6.710769583057984
1621787251305.157,-0.248,0.124,0.052,-0.37688306259509136,-6.386880480720466,-6.741114355530283
1621787251310.074,-0.244,0.119,0.052,-0.3648118766232768,-6.393070832500884,-6.7714470792543295
1621787251310.812,-0.24324980146912845,0.11869992058765137,0.05124980146912845,-0.363,-6.394,-6.776
1621787251314.993,-0.239,0.117,0.047,-0.34746843343120226,-6.404266628748866,-6.765733371251134
1621787251319.91,-0.241,0.124,0.04,-0.3292024041935038,-6.4163407836687005,-6.753659216331299
1621787251324.828,-0.236,0.127,0.035,-0.3109327471446359,-6.428417336633206,-6.741582663366794
1621787251326.694,-0.236,0.12396305125148986,0.035759237187127535,-0.304,-6.433,-6.737
1621787251329.744,-0.236,0.119,0.037,-0.28517517529831465,-6.440491511871079,-6.729508488128921
1621787251334.661,-0.232,0.124,0.042,-0.25482519375076884,-6.4525695657522455,-6.717430434247755
1621787251339.576,-0.236,0.126,0.04,-0.22448726780661826,-6.464642821995326,-6.705357178004675
1621787251342.571,-0.22929817242749304,0.126,0.04121851410409218,-0.206,-6.472,-6.698
1621787251344.492,-0.225,0.126,0.042,-0.2107187673002399,-6.460142584732731,-6.71227729593406
1621787251349.407,-0.22,0.126,0.038,-0.22279276619302454,-6.429802792643169,-6.748808882327613
1621787251354.323,-0.23,0.129,0.037,-0.23486916405240818,-6.399456972381128,-6.785347727132927
1621787251358.447,-0.22328616852146263,0.129,0.031125397456279808,-0.245,-6.374,-6.816
1621787251359.237,-0.222,0.129,0.03,-0.24206306916071868,-6.372058638936746,-6.81888715235048
1621787251364.151,-0.222,0.124,0.035,-0.2237961943145459,-6.359983925055378,-6.836844419148412
1621787251369.064,-0.222,0.122,0.026,-0.2055320422101895,-6.347911010952498,-6.8547990093526945
1621787251373.978,-0.223,0.126,0.028,-0.18726425978341127,-6.335835697144967,-6.87275716834851
1621787251374.318,-0.22313844166169747,0.12586155833830254,0.027861558338302526,-0.186,-6.335,-6.874
1621787251378.891,-0.225,0.124,0.026,-0.14075673471899566,-6.357765719472607,-6.885526946568408
1621787251383.804,-0.223,0.131,0.028,-0.09215120232618963,-6.38222328035816,-6.897910521700333
1621787251388.715,-0.222,0.131,0.033,-0.04356257788581361,-6.406672333420514,-6.910289789073678
1621787251390.187,-0.2181051036127814,0.1318988222432043,0.03240078517119714,-0.029,-6.414,-6.914
1621787251393.628,-0.209,0.134,0.031,-0.003621038861100427,-6.418121369757599,-6.958684324740284
1621787251398.539,-0.195,0.133,0.038,0.03260169295883032,-6.4240036937283564,-7.022461100423239
1621787251403.45,-0.187,0.131,0.04,0.068822624086187,-6.429885725278953,-7.086234705656022
1621787251406.05,-0.18117511933174224,0.1299409307875895,0.042118138424821004,0.088,-6.433,-7.12
1621787251408.36,-0.176,0.129,0.044,0.09950669622240695,-6.424406391428835,-7.145635171330932
1621787251413.271,-0.164,0.131,0.045,0.12396845848342108,-6.406137480373141,-7.200132261937749
1621787251418.18,-0.147,0.136,0.049,0.14842049197992674,-6.387875835103599,-7.254607678335027
1621787251421.91,-0.1295316166235832,0.13220252535295288,0.054316464505865976,0.167,-6.374,-7.296
1621787251423.091,-0.124,0.131,0.056,0.18301888070964364,-6.369604121107586,-7.300395878892414
1621787251427.999,-0.099,0.136,0.058,0.2495810053284874,-6.3513382357470665,-7.318661764252934
1621787251432.908,-0.07,0.136,0.066,0.31615637416453635,-6.333068715926942,-7.336931284073059
1621787251437.763,-0.05120509376709943,0.14292443913843703,0.07490285032084763,0.382,-6.315,-7.355
1621787251437.816,-0.051,0.143,0.075,0.3834439481223622,-6.314411724839038,-7.3544083823665325
1621787251442.725,-0.031,0.15,0.08,0.5172453713687194,-6.259900033886819,-7.2995869658975385
1621787251447.633,0.0,0.161,0.096,0.6510135239210129,-6.20540189766181,-7.244779181171252
1621787251452.54,0.023,0.173,0.11,0.7847550599180555,-6.150914605218571,-7.18998230183913
1621787251453.613,0.027592019503457882,0.1749680083586248,0.11415468431265237,0.814,-6.139,-7.178
1621787251457.447,0.044,0.182,0.129,0.9398158847546414,-6.034476034203837,-7.076137524073646
1621787251462.353,0.059,0.194,0.147,1.100811185578923,-5.900726091980587,-6.945793251675526
1621787251467.26,0.068,0.208,0.169,1.2618385332408906,-5.766949526230645,-6.815423033664587
1621787251469.459,0.06889662037728336,0.21651789358419193,0.1824493056592504,1.334,-5.707,-6.757
1621787251472.165,0.07,0.227,0.199,1.3842164486154132,-5.631675327076881,-6.674843157197232
1621787251477.071,0.054,0.246,0.218,1.475257547038972,-5.495113679441542,-6.525894965558688
1621787251481.975,0.038,0.265,0.25,1.5662624011834867,-5.35860639822477,-6.377006071533139
1621787251485.302,0.016972772523643605,0.27381786958685916,0.2649225485316078,1.628,-5.266,-6.276
1621787251486.88,0.007,0.278,0.272,1.6544011437908497,-5.254244018991244,-6.2613548372179055
1621787251491.784,-0.03,0.29,0.288,1.7364558823529412,-5.2177064372918975,-6.21583768035516
1621787251496.688,-0.073,0.305,0.309,1.8185106209150326,-5.181168855592551,-6.170320523492416
1621787251501.14,-0.12112303938654584,0.31952771000348557,0.32352771000348557,1.893,-5.148,-6.129
1621787251501.591,-0.126,0.321,0.325,1.885734617104269,-5.164496692927953,-6.13712013382464
1621787251506.494,-0.183,0.349,0.344,1.80678255037696,-5.343764326791137,-6.225360678990456
1621787251511.396,-0.246,0.372,0.353,1.7278422781024037,-5.52300518030866,-6.313588042120843
1621787251516.299,-0.314,0.384,0.356,1.6488862798908435,-5.702281740953732,-6.401832981298469
1621787251516.975,-0.32200049815681975,0.3862070339742951,0.3543447245192787,1.638,-5.727,-6.414
1621787251521.2,-0.372,0.4,0.344,1.418094690251839,-5.980798482488472,-6.6547215890689815
1621787251526.103,-0.41,0.403,0.323,1.1628876208688679,-6.275339651157411,-6.934086609194516
1621787251531.003,-0.438,0.403,0.305,0.907845750505066,-6.569690159307867,-7.213270792529649
1621787251532.806,-0.43432129514321294,0.39784981320049817,0.2972747198007472,0.814,-6.678,-7.316
1621787251535.904,-0.428,0.389,0.284,0.6603277489818585,-6.891183543132174,-7.44265725657164
1621787251540.804,-0.394,0.384,0.257,0.41728582006664194,-7.228346168085894,-7.64297334320622
1621787251545.705,-0.332,0.375,0.22,0.17418334258916446,-7.565592789707516,-7.843339334197211
1621787251548.632,-0.29137147413535336,0.37081765174922754,0.1978933021030599,0.029,-7.767,-7.963
1621787251550.604,-0.264,0.368,0.183,-0.04066906352708813,-7.788935161325166,-7.948293471384264
1621787251555.503,-0.185,0.358,0.143,-0.21375058249880416,-7.843429521502307,-7.911757479901862
1621787251560.402,-0.106,0.354,0.098,-0.386840727081951,-7.897926597435462,-7.875219667628497
1621787251564.454,-0.04562020332901425,0.33993895146018144,0.05168125186883286,-0.53,-7.943,-7.845
1621787251565.301,-0.033,0.337,0.042,-0.5436549504491989,-7.9141371831681635,-7.8082655058503905
1621787251570.198,0.002,0.316,0.005,-0.6226088265258869,-7.747250362755086,-7.595864098051928
1621787251575.096,0.023,0.29,-0.035,-0.7015784477169584,-7.5803302614923895,-7.383420332808496
1621787251579.993,0.019,0.272,-0.066,-0.7805323237936463,-7.413443441079312,-7.171018925010033
1621787251580.27,0.01832113841399591,0.2705291332303245,-0.06781029756267756,-0.785,-7.404,-7.159
1621787251584.891,0.007,0.246,-0.098,-0.7619135093407442,-7.25496062992126,-7.041521908290875
1621787251589.787,-0.023,0.232,-0.126,-0.737453635942566,-7.097055118110236,-6.9170552107457155
1621787251594.683,-0.056,0.211,-0.148,-0.7129937625443878,-6.939149606299213,-6.792588513200555
1621787251596.083,-0.06457997905132426,0.2075680083794703,-0.15400598533592696,-0.706,-6.894,-6.757
1621787251599.578,-0.086,0.199,-0.169,-0.6127037837837838,-6.82038,-6.730912432432432
1621787251604.474,-0.119,0.194,-0.192,-0.4819978378378378,-6.71724,-6.694364324324324
1621787251609.369,-0.162,0.187,-0.213,-0.3513309961389961,-6.614130857142857,-6.657827150579151
1621787251611.891,-0.17642733167082295,0.18081685785536158,-0.22278997506234413,-0.284,-6.561,-6.639
1621787251614.264,-0.19,0.175,-0.232,-0.20744289134296082,-6.524072453471311,-6.65956534095297
1621787251619.158,-0.201,0.164,-0.244,-0.049539423893736945,-6.447907251525215,-6.701982546914819
1621787251624.052,-0.208,0.162,-0.269,0.10836404355548696,-6.371742049579118,-6.74439975287667
1621787251627.698,-0.2035291887037222,0.15454864783953698,-0.2794318930246482,0.226,-6.315,-6.776
1621787251628.945,-0.202,0.152,-0.283,0.26696376531668653,-6.295662577066304,-6.768265030826521
1621787251633.838,-0.215,0.145,-0.312,0.42768318988828286,-6.219793099185686,-6.737917239674274
1621787251638.731,-0.22,0.141,-0.332,0.5884106339910689,-6.143919835591885,-6.707567934236754
1621787251643.498,-0.22487127033230217,0.141,-0.3485623191298273,0.745,-6.07,-6.678
1621787251643.624,-0.225,0.141,-0.349,0.7495373678679607,-6.069378005810719,-6.67635729739754
1621787251648.515,-0.227,0.148,-0.361,0.9256945199975274,-6.045229925202448,-6.612581597329542
1621787251653.407,-0.237,0.145,-0.374,1.1018956388700007,-6.0210758175187,-6.548789979600667
1621787251658.298,-0.251,0.143,-0.38,1.2780615843481486,-5.996926531495333,-6.485011096000495
1621787251659.296,-0.2546722408026756,0.14381605351170568,-0.3818361204013378,1.314,-5.992,-6.472
1621787251663.189,-0.269,0.147,-0.389,1.4034638104511523,-5.972529914529915,-6.467317321216056
1621787251668.08,-0.286,0.145,-0.387,1.5158630314832846,-5.948068376068377,-6.4614341663961925
1621787251672.969,-0.305,0.14,-0.384,1.6282117587054297,-5.923617826617827,-6.455553654503022
1621787251675.092,-0.31368340905686753,0.14043417045284337,-0.3800924659244096,1.677,-5.913,-6.453
1621787251677.859,-0.325,0.141,-0.375,1.7285136363636364,-5.933675541125541,-6.48559025974026
1621787251682.748,-0.339,0.133,-0.363,1.8195409090909092,-5.970210296846011,-6.543178942486086
1621787251687.637,-0.351,0.124,-0.351,1.9105636363636365,-6.006743228200371,-6.600764749536179
1621787251690.883,-0.3616235205992509,0.11669632958801499,-0.34037647940074905,1.971,-6.031,-6.639
1621787251692.526,-0.367,0.113,-0.335,1.982238760960673,-6.054518147936223,-6.67677472434004
1621787251697.413,-0.387,0.096,-0.321,2.0156727804153847,-6.124481929387748,-6.789150178618375
1621787251702.302,-0.401,0.087,-0.305,2.0491184912546587,-6.194470176144008,-6.90156492893927
1621787251706.67,-0.41708822500874254,0.068230404156467,-0.29784967777389215,2.079,-6.257,-7.002
1621787251707.189,-0.419,0.066,-0.297,2.079657807206176,-6.270221924844134,-7.019102987360571
1621787251712.076,-0.431,0.056,-0.284,2.085851281733938,-6.394710762852148,-7.18013332508238
1621787251716.963,-0.421,0.047,-0.271,2.0920447562617,-6.519199600860162,-7.341163662804189
1621787251721.848,-0.421,0.033,-0.264,2.0982357555036435,-6.64363868562323,-7.502129643094726
1621787251722.451,-0.4187789989009891,0.03238305525027475,-0.26288949945049456,2.099,-6.659,-7.522
1621787251726.735,-0.403,0.028,-0.255,2.053660539955133,-6.778728753771176,-7.604534106908022
1621787251731.62,-0.375,0.014,-0.25,2.001962497099095,-6.915248735205384,-7.698643119053145
1621787251736.505,-0.353,0.0,-0.246,1.950267037982517,-7.051761893710838,-7.79274742786416
1621787251738.231,-0.33744988752811794,-0.0017670582354411398,-0.2449397650587353,1.932,-7.1,-7.826
1621787251741.389,-0.309,-0.005,-0.243,1.9123802816901407,-7.172673038229376,-7.82199597585513
1621787251746.274,-0.264,-0.019,-0.236,1.8820307692307692,-7.28509010989011,-7.815802197802197
1621787251751.158,-0.208,-0.038,-0.229,1.851687323943662,-7.397484708249497,-7.809609657947686
1621787251754.005,-0.1811864033991502,-0.0414974256435891,-0.22783419145213699,1.834,-7.463,-7.806
1621787251756.042,-0.162,-0.044,-0.227,1.8137193547388304,-7.470621388983497,-7.771768337616497
1621787251760.924,-0.105,-0.056,-0.218,1.7651153203083878,-7.488886599374555,-7.689729680775304
1621787251765.808,-0.054,-0.059,-0.209,1.7164918413474937,-7.5071591169458465,-7.607658203548318
1621787251769.775,-0.007683936787357466,-0.0760638127625525,-0.20493718743748748,1.677,-7.522,-7.541
1621787251770.69,0.003,-0.08,-0.204,1.657091615820609,-7.511146157896367,-7.51656434478273
1621787251775.572,0.056,-0.112,-0.201,1.5508728435593273,-7.453236798092112,-7.386190866292935
1621787251780.454,0.11,-0.136,-0.195,1.4446540712980458,-7.395327438287856,-7.255817387803141
1621787251785.335,0.164,-0.161,-0.194,1.338461857713631,-7.337432557995478,-7.125476507572707
1621787251785.54,0.16605872055219328,-0.16192432351322963,-0.1934117941279448,1.334,-7.335,-7.12
1621787251790.216,0.213,-0.183,-0.18,1.1912863693399223,-7.247769631155794,-6.933671184917819
1621787251795.096,0.248,-0.223,-0.182,1.0423509519309715,-7.1567363406813005,-6.739219122271622
1621787251799.977,0.276,-0.255,-0.18,0.8933782783139436,-7.065680278220997,-6.544718417424442
1621787251801.3,0.28196567253803045,-0.2625926741393114,-0.18054233386709367,0.853,-7.041,-6.492
1621787251804.856,0.298,-0.283,-0.182,0.8022170551044443,-6.999019432219674,-6.3658325946817085
1621787251809.736,0.319,-0.311,-0.182,0.7325225624496374,-6.941405318291701,-6.192680499597099
1621787251814.614,0.337,-0.351,-0.173,0.6628594495754044,-6.883817144982335,-6.019606365834004
1621787251817.055,0.34650570456365093,-0.364007806244996,-0.17550150120096075,0.628,-6.855,-5.933
1621787251819.493,0.356,-0.377,-0.178,0.628,-6.806398040796082,-5.867681443362887
1621787251824.371,0.367,-0.407,-0.176,0.628,-6.7091503193006385,-5.736985460970922
1621787251829.249,0.382,-0.431,-0.178,0.628,-6.61190746481493,-5.6062960195920395
1621787251832.806,0.3973158289947938,-0.4448571786143372,-0.18091730076091309,0.628,-6.541,-5.511
1621787251834.126,0.403,-0.45,-0.182,0.6328621085271318,-6.475277705426357,-5.494569426356589
1621787251839.003,0.424,-0.492,-0.182,0.6508250232558139,-6.232468651162791,-5.433867162790698
1621787251843.88,0.443,-0.52,-0.178,0.6687879379844962,-5.989659596899225,-5.373164899224807
1621787251848.553,0.46312521904571174,-0.557375406799179,-0.17129159365142943,0.686,-5.757,-5.315
1621787251848.756,0.464,-0.559,-0.171,0.683471438317931,-5.732823854121441,-5.32525615580227
1621787251853.632,0.466,-0.611,-0.176,0.6227738014017243,-5.152480121565465,-5.571453203498109
1621787251858.508,0.461,-0.661,-0.183,0.5620761644855176,-4.57213638900949,-5.817650251193947
1621787251863.382,0.435,-0.684,-0.188,0.5014028406624077,-3.992025119394653,-6.063748682007071
1621787251864.298,0.42804906869617465,-0.6913266573202483,-0.188,0.49,-3.883,-6.11
1621787251868.258,0.398,-0.723,-0.188,0.07319960299613854,-3.3872163050726547,-6.317016733092443
1621787251873.131,0.314,-0.766,-0.213,-0.43970643425398936,-2.7771150380720497,-6.571767287502133
1621787251878.006,0.159,-0.824,-0.272,-0.9528180450661414,-2.166769241505513,-6.826619946342447
1621787251880.041,0.07297314494714163,-0.8298464852948544,-0.3058260934916579,-1.167,-1.912,-6.933
1621787251882.879,-0.047,-0.838,-0.353,-1.3738147734499822,-2.0941123985915273,-7.060298369708533
1621787251887.753,-0.243,-0.831,-0.417,-1.7290152325996249,-2.406886996447795,-7.278930910388261
1621787251892.625,-0.358,-0.813,-0.452,-2.0840733553601067,-2.719536258861123,-7.497475840352428
1621787251895.78,-0.38389779559118237,-0.8097627755511022,-0.47660290581162323,-2.314,-2.922,-7.639
1621787251897.498,-0.398,-0.808,-0.49,-2.292602646643603,-3.165012798833367,-7.699043593602135
1621787251902.369,-0.408,-0.78,-0.534,-2.2319377899129678,-3.8539922431312927,-7.8692766099381
1621787251907.241,-0.401,-0.728,-0.585,-2.1712577297196667,-4.543144355326642,-8.039552289051956
1621787251911.517,-0.3904657177225341,-0.658649308340016,-0.6227478448275862,-2.118,-5.148,-8.189
1621787251912.112,-0.389,-0.649,-0.628,-2.0471600552503335,-5.221827854859235,-8.20492291336872
1621787251916.984,-0.321,-0.579,-0.654,-1.467098053822516,-5.826355899059503,-8.335305242573796
1621787251921.854,-0.201,-0.524,-0.651,-0.8872395319241393,-6.430671881304901,-8.465641835056026
1621787251926.724,-0.065,-0.468,-0.634,-0.3073810100257628,-7.034987863550299,-8.595978427538256
1621787251927.248,-0.05295288456718962,-0.46445040348854694,-0.6330319282241492,-0.245,-7.1,-8.61
1621787251931.595,0.047,-0.435,-0.625,-0.09882181767389892,-7.015995902784244,-8.631830012105409
1621787251936.464,0.115,-0.421,-0.607,0.06491745041437741,-6.921899990688146,-8.65628256820933
1621787251941.333,0.119,-0.408,-0.576,0.2286485085513858,-6.827808796598069,-8.680733898252475
1621787251942.979,0.11122298008927228,-0.408,-0.5587553036762124,0.284,-6.796,-8.689
1621787251946.201,0.096,-0.408,-0.525,0.49910835480766247,-6.886345509019218,-8.650690226334255
1621787251951.07,0.059,-0.412,-0.475,0.8241914061287219,-7.0228803905740635,-8.592794482908504
1621787251955.937,0.019,-0.4,-0.41,1.1491277593219287,-7.15935365891521,-8.534924865720761
1621787251958.706,0.003072621495561461,-0.4028441747329355,-0.36619970911279404,1.334,-7.237,-8.502
1621787251960.805,-0.009,-0.405,-0.333,1.34708218816478,-7.336584820111489,-8.62908411360072
1621787251965.672,-0.031,-0.407,-0.255,1.377419108398938,-7.567516886383752,-8.923785624446825
1621787251970.539,-0.038,-0.422,-0.178,1.4077545069175945,-7.7984373689849535,-9.218472352913775
1621787251974.429,-0.017215393106216448,-0.4435840148512368,-0.1364307862124329,1.432,-7.983,-9.454
1621787251975.405,-0.012,-0.449,-0.126,1.3522026995542162,-7.967723629642285,-9.502064677466954
1621787251980.271,0.026,-0.473,-0.089,0.9543937963063637,-7.891567217036082,-9.741678756154766
1621787251985.136,0.096,-0.506,-0.056,0.5566647302775664,-7.815426088442242,-9.98124474612075
1621787251990.002,0.182,-0.532,-0.035,0.1588558270297138,-7.739269675836039,-10.22085882480856
1621787251990.147,0.18459388646288208,-0.5323279626562265,-0.03452296340912513,0.147,-7.737,-10.228
1621787251994.866,0.269,-0.543,-0.019,-0.15332162334332908,-7.466109895744317,-9.957109895744317
1621787251999.731,0.351,-0.539,-0.017,-0.4629345877161636,-7.186839001880021,-9.67783900188002
1621787252004.595,0.396,-0.529,-0.03,-0.7724854026506736,-6.907624166809093,-9.398624166809093
1621787252005.86,0.4025025347588215,-0.5303005069517643,-0.03182070973247001,-0.853,-6.835,-9.326
1621787252009.459,0.421,-0.534,-0.037,-0.8575816497793249,-6.491376266550631,-8.991310483620316
1621787252014.322,0.421,-0.532,-0.04,-0.8637726735873686,-6.0270494809473485,-8.539056194442718
1621787252019.185,0.405,-0.548,-0.047,-0.8699636973954125,-5.562722695344067,-8.086801905265121
1621787252021.57,0.39273663068039166,-0.5470189304544314,-0.047,-0.873,-5.335,-7.865
1621787252024.047,0.38,-0.546,-0.047,-0.7739684799502642,-5.205060553310537,-7.602124930059062
1621787252028.909,0.339,-0.559,-0.04,-0.5795949642524091,-4.950022691949021,-7.086168479950264
1621787252033.772,0.267,-0.564,-0.024,-0.38517264532172835,-4.694920795772459,-6.570082483680448
1621787252037.278,0.1992015971071267,-0.5777039324996233,-0.0066897694741600115,-0.245,-4.511,-6.198
1621787252038.633,0.173,-0.583,0.0,-0.2314509959415963,-4.466987311657415,-6.1370726314316375
1621787252043.494,0.07,-0.59,0.028,-0.18284546967081838,-4.3090967486122125,-5.918502557882789
1621787252048.354,-0.023,-0.618,0.066,-0.13424726718601793,-4.151229976209358,-5.69996541804668
1621787252052.979,-0.10767761538847873,-0.618,0.07836864045000251,-0.088,-4.001,-5.492
1621787252053.215,-0.112,-0.618,0.079,-0.08830076357246162,-3.998939769528638,-5.494360994043824
1621787252058.074,-0.213,-0.606,0.101,-0.09449083246504829,-3.9565377976144194,-5.542953034850629
1621787252062.934,-0.304,-0.613,0.134,-0.10068245649503134,-3.9141251730090354,-5.591557283485996
1621787252067.792,-0.379,-0.6,0.131,-0.10687128127770089,-3.871731723247749,-5.640139558029952
1621787252068.678,-0.3893909680012056,-0.5921611995780378,0.13446365600040186,-0.108,-3.864,-5.649
1621787252072.652,-0.436,-0.557,0.15,-0.05330701385972281,-4.005543422464884,-5.69103257268188
1621787252077.51,-0.48,-0.536,0.18,0.013548929021419562,-4.178564126495248,-5.742412602859054
1621787252082.368,-0.524,-0.503,0.201,0.08040487190256194,-4.351584830525612,-5.793792633036229
1621787252084.373,-0.5437873814184611,-0.4799147216784621,0.20965697937057673,0.108,-4.423,-5.815
1621787252087.232,-0.572,-0.447,0.222,0.13239843048986358,-4.60287164083768,-5.75391487840859
1621787252092.225,-0.63,-0.386,0.232,0.17501129986464498,-4.917024911410886,-5.6472271835505605
1621787252097.217,-0.682,-0.318,0.265,0.21761375146381157,-5.231101379404742,-5.540565571152648
1621787252100.426,-0.7134988017802123,-0.28650119821978776,0.28299931530297845,0.245,-5.433,-5.472
1621787252102.209,-0.731,-0.269,0.293,0.26998755525949253,-5.547876415551384,-5.507822866832194
1621787252107.201,-0.771,-0.229,0.326,0.3399479198207473,-5.86950835705202,-5.608120026645674
1621787252112.194,-0.803,-0.188,0.372,0.4099253921153031,-6.191218948707079,-5.708441712590081
1621787252116.552,-0.8178408079424854,-0.1583183841150291,0.4112844916124615,0.471,-6.472,-5.796
1621787252117.186,-0.82,-0.154,0.417,0.4355334605135659,-6.49975984132752,-5.834533490794574
1621787252122.179,-0.808,-0.112,0.457,0.15623958333333332,-6.718364583333334,-6.137979166666667
1621787252127.171,-0.77,-0.087,0.476,-0.12299966690891473,-6.936926568556202,-6.441365491763566
1621787252132.164,-0.696,-0.075,0.478,-0.40230720082364335,-7.155541999757752,-6.7448260053294575
1621787252132.677,-0.6858274074436347,-0.07356145155768572,0.47728072577884284,-0.431,-7.178,-6.776
1621787252137.156,-0.597,-0.061,0.471,-0.6462699551841085,-7.246330850290698,-7.094877301356589
1621787252142.149,-0.475,-0.035,0.461,-0.8862397498788759,-7.322501907703488,-7.450342235949613
1621787252147.141,-0.337,-0.01,0.447,-1.1261743429021316,-7.398661791424419,-7.805755026647287
1621787252148.802,-0.28976387462715764,0.0013100581878636754,0.4386837807442179,-1.206,-7.424,-7.924
1621787252152.134,-0.195,0.024,0.422,-1.2405084786821705,-7.357049418604651,-7.999009447674419
1621787252157.126,-0.054,0.066,0.393,-1.292207985101744,-7.256746184593023,-8.111386219113372
1621787252162.119,0.084,0.113,0.363,-1.343917605377907,-7.156423328488372,-8.223784974563955
1621787252164.927,0.14755006845296303,0.14055710932916096,0.34950264032857425,-1.373,-7.1,-8.287
1621787252167.112,0.197,0.162,0.339,-1.331810706067579,-7.086721872350733,-8.142160015744217
1621787252172.105,0.29,0.202,0.314,-1.2376920188930605,-7.056380979774736,-7.811196605910137
1621787252177.097,0.354,0.232,0.304,-1.1435917403415283,-7.026046021557466,-7.4802979290299145
1621787252181.054,0.38886954821044395,0.24864228437316643,0.3024150205358889,-1.069,-7.002,-7.218
1621787252182.09,0.398,0.253,0.302,-1.0267887247184206,-7.008296354608211,-7.15747789754148
1621787252187.083,0.433,0.276,0.3,-0.8233809040813854,-7.038637247184207,-6.865833807678333
1621787252192.076,0.485,0.295,0.304,-0.6199730834443502,-7.068978139760203,-6.574189717815187
1621787252197.069,0.541,0.328,0.305,-0.4165553167009809,-7.09932051592588,-6.282531367324694
1621787252197.181,0.5424108845533226,0.32867184978729647,0.30529113490782844,-0.412,-7.1,-6.276
1621787252202.062,0.604,0.358,0.318,-0.30214003723831,-6.90418899199225,-6.2463408364995985
1621787252207.055,0.663,0.384,0.33,-0.18976340049348328,-6.703892341926402,-6.216002240353612
1621787252212.048,0.723,0.398,0.351,-0.07738126882729596,-6.50358589788226,-6.185662160730234
1621787252213.309,0.7391635127866608,0.3992627744364579,0.3552934330839568,-0.049,-6.453,-6.178
1621787252217.041,0.787,0.403,0.368,-0.18296188775201305,-6.137645849730581,-6.112291578373797
1621787252222.033,0.857,0.419,0.379,-0.36215322092389657,-5.7158189289822605,-6.024398074710904
1621787252227.027,0.908,0.428,0.393,-0.5414234273778531,-5.293806335896349,-5.936465883635043
1621787252229.439,0.9181441983277102,0.4405594836438316,0.40894088308640164,-0.628,-5.09,-5.894
1621787252232.02,0.929,0.454,0.426,-0.6766473624460758,-4.675697298115492,-6.215648679330962
1621787252237.013,0.908,0.464,0.489,-0.7707532278816318,-3.8742496480738664,-6.837861802769999
1621787252242.006,0.85,0.449,0.541,-0.864863694845985,-3.0727628093544235,-7.460105350790887
1621787252245.568,0.8050637985822537,0.42474871669518455,0.5338672696162308,-0.932,-2.501,-7.904
1621787252247.0,0.787,0.415,0.531,-0.7378670087177625,-2.338201689066473,-8.179975980748274
1621787252251.992,0.71,0.407,0.506,-0.061066109698510784,-1.7706420874197843,-9.142104007749122
1621787252256.986,0.546,0.415,0.541,0.6160326916091537,-1.2028326673931469,-10.104655527303548
1621787252261.699,0.34022659038677816,0.3564772871742213,0.5966909686567894,1.255,-0.667,-11.013
1621787252261.979,0.328,0.353,0.6,1.2486984698742298,-0.7454826933845898,-10.951373465712166
1621787252266.972,0.154,0.243,0.656,1.136342242670985,-2.14482843218864,-9.85257289664462
1621787252271.965,0.066,0.175,0.705,1.0239805215443525,-3.544242595311247,-8.75371859912521
1621787252276.959,0.03,0.183,0.74,0.9116023186475565,-4.943862031389524,-7.654703116250208
1621787252277.83,0.030174465796293577,0.19102542662950467,0.7394766026111192,0.892,-5.188,-7.463
1621787252281.952,0.031,0.229,0.737,0.6965239284417,-5.378365586027364,-7.435403378132946
1621787252286.946,0.04,0.269,0.686,0.4596786687250273,-5.609018812810268,-7.4019664002905925
1621787252291.939,0.052,0.29,0.609,0.22289130039956417,-5.8396156617023856,-7.368537595350527
1621787252293.961,0.05645355885803676,0.28635617911615174,0.5778250879937427,0.127,-5.933,-7.355
1621787252296.933,0.063,0.281,0.532,0.2572495119625914,-6.073934761883144,-7.492250192945022
1621787252301.926,0.045,0.267,0.48,0.47605456939210966,-6.310689880601081,-7.722815635356608
1621787252306.919,0.007,0.251,0.471,0.6948596268216279,-6.547444999319018,-7.953381077768193
1621787252310.094,-0.02605924912006257,0.2414636781384435,0.46591396167383653,0.834,-6.698,-8.1
1621787252311.913,-0.045,0.236,0.463,0.8151649763865343,-6.883756190966336,-8.059059200169532
1621787252316.906,-0.091,0.222,0.445,0.7634678796318721,-7.393607199079681,-7.946687666505207
1621787252321.9,-0.141,0.209,0.401,0.7117606714700896,-7.903557928675225,-7.8342941541535485
1621787252326.223,-0.18687754204145485,0.21246245600312866,0.3784940359796637,0.667,-8.345,-7.737
1621787252326.894,-0.194,0.213,0.375,0.6755712512676142,-8.333183323495135,-7.817386686645779
1621787252331.887,-0.253,0.264,0.382,0.7393364966928514,-8.245273956015682,-8.41541801752713
1621787252336.881,-0.337,0.326,0.391,0.803117331880307,-8.157343095854335,-9.013595559188122
1621787252341.874,-0.41,0.389,0.389,0.8668825773055442,-8.06943372837488,-9.611626890069473
1621787252342.353,-0.4145081398191151,0.3932203862136397,0.38583471033977024,0.873,-8.061,-9.669
1621787252346.868,-0.457,0.433,0.356,0.9169456469092451,-7.91012927589756,-10.344419401222982
1621787252351.862,-0.447,0.482,0.312,0.9655560483138584,-7.743243885088091,-11.09153340497669
1621787252356.856,-0.347,0.572,0.278,1.014164073378943,-7.576366652539807,-11.838610885754072
1621787252358.483,-0.2987856863511928,0.6045772389518967,0.2692041454829879,1.03,-7.522,-12.082
1621787252361.85,-0.199,0.672,0.251,1.2305858619489385,-7.49319578673366,-11.905835101472524
1621787252366.844,-0.044,0.764,0.22,1.5280759871059522,-7.4504760809358785,-11.644563857317978
1621787252371.838,0.098,0.838,0.197,1.8255661122629658,-7.407756375138097,-11.38329261316343
1621787252374.615,0.1658407313257724,0.8708082225263981,0.1919953558858037,1.991,-7.384,-11.238
1621787252376.832,0.22,0.897,0.188,2.000346410570767,-7.220987603868683,-10.911837760523088
1621787252381.826,0.305,0.951,0.202,2.021399249269703,-6.853801328913712,-10.177155610044045
1621787252386.819,0.372,0.983,0.206,2.0424490002875784,-6.4866689067490055,-9.442581210552603
1621787252390.745,0.40186841976636195,0.9853580331394496,0.2075720220929664,2.059,-6.198,-8.865
1621787252391.814,0.41,0.986,0.208,2.0057325665859564,-6.0979579297820825,-8.733090223970944
1621787252396.807,0.422,0.981,0.208,1.756903813559322,-5.630630296610169,-8.116898622881356
1621787252401.802,0.4,0.96,0.211,1.5079655569007264,-5.163097003631961,-7.500435850484261
1621787252406.795,0.354,0.93,0.215,1.259136803874092,-4.695769370460049,-6.884244249394673
1621787252406.878,0.3528201368523949,0.9295679374389052,0.2149667644183773,1.255,-4.688,-6.874
1621787252411.79,0.283,0.904,0.213,0.8877811492652511,-4.4489728044554075,-6.378589494075094
1621787252416.784,0.185,0.887,0.206,0.5144480681629008,-4.20596578234484,-5.874930353980961
1621787252421.778,0.079,0.864,0.192,0.1410967356266175,-3.9629468801549708,-5.371246591098264
1621787252423.01,0.05186433634808116,0.8565993644585675,0.18780630652652164,0.049,-3.903,-5.247
1621787252426.772,-0.031,0.834,0.175,-0.14991758100398023,-3.850297334927433,-5.153021353875024
1621787252431.767,-0.152,0.787,0.162,-0.414039438836509,-3.7803189763457783,-5.028236935696233
1621787252436.76,-0.272,0.75,0.147,-0.6780451140336275,-3.7103714000332944,-4.903507408023972
1621787252439.142,-0.32541336331198983,0.7309237988171464,0.13936951952685858,-0.804,-3.677,-4.844
1621787252441.755,-0.384,0.71,0.131,-0.8898466521370627,-3.7136063082697666,-4.890162822375591
1621787252446.749,-0.475,0.646,0.112,-1.053935524881947,-3.7835762804213586,-4.978399291681802
1621787252451.744,-0.552,0.586,0.086,-1.2180484622835694,-3.853556514105824,-5.066648701416636
1621787252455.273,-0.5922784024247165,0.5407751271020728,0.06833403402424716,-1.334,-3.903,-5.129
1621787252456.738,-0.609,0.522,0.061,-1.3152925651851517,-3.963572131172349,-5.156607088270455
1621787252461.733,-0.665,0.452,0.017,-1.2515139601398284,-4.170078585372497,-5.250726971444136
1621787252466.727,-0.702,0.377,-0.014,-1.1877447072532195,-4.376554758553896,-5.34483305337389
1621787252471.406,-0.7151170862869713,0.31328843803471035,-0.0402341725739428,-1.128,-4.57,-5.433
1621787252471.721,-0.716,0.309,-0.042,-1.1111539683740637,-4.577456760233034,-5.447933040780812
1621787252476.715,-0.712,0.246,-0.065,-0.8440203071801466,-4.695701324052357,-5.684731709162443
1621787252481.71,-0.705,0.185,-0.093,-0.576847469168495,-4.813963229174548,-5.921565105545888
1621787252486.706,-0.686,0.127,-0.115,-0.30960933646061883,-4.932254036468185,-6.158456381932361
1621787252487.54,-0.6806549312992031,0.11914943034570437,-0.11884176812869787,-0.265,-4.952,-6.198
1621787252491.699,-0.654,0.08,-0.138,0.104110139357533,-5.096086988757585,-6.460913646749081
1621787252496.694,-0.616,0.052,-0.145,0.5474323261057058,-5.269143624506348,-6.7766878300473605
1621787252501.689,-0.564,0.04,-0.138,0.9907328451028158,-5.442191801964018,-7.092446579612341
1621787252503.675,-0.5401436950146628,0.03443352883675464,-0.138,1.167,-5.511,-7.218
1621787252506.684,-0.504,0.026,-0.138,1.2347044082262677,-5.642678546026846,-7.342404518696751
1621787252511.678,-0.422,-0.002,-0.126,1.3470690062196395,-5.861216855071806,-7.548870598205233
1621787252516.673,-0.335,-0.042,-0.127,1.4594610705043811,-6.079808583405215,-7.755387146078298
1621787252519.808,-0.2615511121975067,-0.06522742605719872,-0.13139437790271327,1.53,-6.217,-7.885
1621787252521.667,-0.218,-0.079,-0.134,1.3955519375387735,-6.248682276929594,-7.887188957315136
1621787252526.663,-0.084,-0.14,-0.155,1.0341984899151146,-6.333834117629257,-7.89307217539984
1621787252531.657,0.072,-0.218,-0.197,0.6730039643511023,-6.418948508829003,-7.898952806064549
1621787252535.943,0.22301935483870966,-0.29179354838709676,-0.24848387096774194,0.363,-6.492,-7.904
1621787252536.652,0.248,-0.304,-0.257,0.3186138014527845,-6.432100605326877,-7.904
1621787252541.647,0.442,-0.37,-0.323,0.005908141646489062,-6.01010276937046,-7.904
1621787252546.642,0.642,-0.435,-0.386,-0.30681280266343836,-5.588084306900726,-7.904
1621787252551.636,0.824,-0.49,-0.436,-0.619457324455206,-5.166168976997579,-7.904
1621787252552.076,0.835975762314308,-0.494050625488663,-0.4383775410476935,-0.647,-5.129,-7.904
1621787252556.632,0.96,-0.536,-0.463,-1.095723885904517,-4.334061209048952,-8.000861103124764
1621787252561.627,1.082,-0.567,-0.449,-1.5876562608761446,-3.462576227585685,-8.107049148823485
1621787252566.622,1.187,-0.625,-0.403,-2.0796126806385717,-2.5910486494665963,-8.213242384807446
1621787252568.21,1.1885895205044235,-0.6472532870619288,-0.40745065741238573,-2.236,-2.314,-8.247
1621787252571.617,1.192,-0.695,-0.417,-2.002026481047136,-2.135985851554816,-7.5036906257093134
