time,gyro_x,gyro_y,gyro_z,acc_x,acc_y,acc_z
1621785917686.291,,,,-1.932,-4.972,-7.6
1621785917704.911,,,,-1.775,-6.11,-7.08
1621785917722.448,-0.136,1.255,1.201,-2.0752072621734925,-6.482479380844889,-8.007492189616253
1621785917723.838,-0.14305161023947152,1.227028612716763,1.191832906688687,-2.099,-6.512,-8.081
1621785917728.361,-0.166,1.136,1.162,-1.9421131184379248,-6.5326987190066905,-8.387717381644597
1621785917734.303,-0.183,1.012,1.143,-1.7360186118552186,-6.559889598435893,-8.790636776822781
1621785917740.274,-0.195,0.911,1.122,-1.5289164116952532,-6.587213426942755,-9.195526235606282
1621785917743.068,-0.19360290527343751,0.8751412353515625,1.1182744140625,-1.432,-6.6,-9.385
1621785917746.274,-0.192,0.834,1.114,-1.1922760193434716,-6.616080047983806,-9.454242655603734
1621785917752.305,-0.182,0.794,1.103,-0.7412896897297163,-6.646331013283017,-9.584507016381972
1621785917758.363,-0.173,0.782,1.103,-0.2882769065440416,-6.676717907706149,-9.715356704612194
1621785917762.606,-0.16045500481231953,0.7792122232916265,1.0960305582290664,0.029,-6.698,-9.807
1621785917764.451,-0.155,0.778,1.093,0.09731419010933426,-6.71142760982063,-9.76367880627213
1621785917770.569,-0.129,0.789,1.086,0.3238529758893947,-6.755955319507672,-9.62002006407014
1621785917776.199,-0.096,0.813,1.077,0.5323120501147814,-6.796929341270768,-9.48782650480526
1621785917781.43,-0.05516205328135153,0.8436284600389863,1.077,0.726,-6.835,-9.365
1621785917781.835,-0.052,0.846,1.077,0.7471070396532349,-6.8421910419007865,-9.34498049446139
1621785917787.477,0.0,0.888,1.086,1.0411297559800932,-6.942362819072082,-9.066107213570932
1621785917793.126,0.056,0.946,1.098,1.3355087092631241,-7.042655964039171,-8.786896050730453
1621785917798.78,0.119,1.009,1.117,1.6301548402632848,-7.1430401348531065,-8.507431476427461
1621785917799.679,0.12837057326489237,1.017894103437864,1.1211294051675798,1.677,-7.159,-8.463
1621785917804.44,0.178,1.065,1.143,1.8579451539794696,-7.054488574856686,-8.28205484602053
1621785917810.107,0.236,1.133,1.166,2.07332379682709,-6.930088841487802,-8.06667620317291
1621785917815.78,0.293,1.176,1.196,2.288934408745501,-6.805555125983202,-7.8510655912545
1621785917817.992,0.31286415029448433,1.1993695885817461,1.207295301147844,2.373,-6.757,-7.767
1621785917821.459,0.344,1.236,1.225,2.3322559473998807,-6.6015689845254695,-7.606098718204158
1621785917827.143,0.387,1.272,1.26,2.265457621040048,-6.346745739523145,-7.342307179385004
1621785917832.835,0.419,1.297,1.286,2.1985674835624627,-6.091572252108653,-7.0781530716610215
1621785917836.372,0.42334608956503106,1.3150052281979858,1.2959339190057853,2.157,-5.933,-6.914
1621785917838.532,0.426,1.326,1.302,2.0628306458018906,-5.860616093414886,-6.810577686869489
1621785917844.235,0.403,1.356,1.332,1.8141818254031297,-5.669490507585988,-6.537496955013636
1621785917849.944,0.377,1.379,1.367,1.5652775438875208,-5.478168559853841,-6.26413566076204
1621785917854.813,0.3386742825418517,1.405402160915613,1.3959572087461565,1.353,-5.315,-6.031
1621785917855.661,0.332,1.41,1.401,1.2923378451471617,-5.29342003403649,-6.033703222912626
1621785917861.382,0.279,1.426,1.429,0.8830211342858274,-5.147809633118297,-6.051943166976689
1621785917867.109,0.236,1.428,1.442,0.47330268729963976,-5.002056318518226,-6.070201013179245
1621785917872.843,0.201,1.422,1.431,0.0630602366723394,-4.8561165947678795,-6.088482209997229
1621785917873.319,0.19992196470338083,1.4201756325749522,1.429424409951095,0.029,-4.844,-6.09
1621785917878.584,0.188,1.4,1.412,-0.2378051355544453,-4.799768755423493,-6.295845407452207
1621785917884.329,0.18,1.381,1.386,-0.5289462646927344,-4.751503063451576,-6.520466512398433
1621785917890.081,0.187,1.347,1.356,-0.8204338136685161,-4.703179941623498,-6.745354887059875
1621785917891.888,0.19578494213404551,1.3350775785323667,1.3440775785323669,-0.912,-4.688,-6.816
1621785917895.84,0.215,1.309,1.318,-1.0180409542899815,-4.717055221475455,-6.847176040561254
1621785917901.604,0.243,1.271,1.281,-1.1726938385148502,-4.759430111753069,-6.892643988523366
1621785917907.375,0.258,1.223,1.236,-1.327536689855756,-4.801857053020477,-6.938167786817592
1621785917910.523,0.27162541212274915,1.2044694395130613,1.2082041592695918,-1.412,-4.825,-6.963
1621785917913.151,0.283,1.189,1.185,-1.3830505385469025,-4.870391631307527,-6.902290449768262
1621785917918.934,0.293,1.14,1.14,-1.3193423591618252,-4.970283582479274,-6.768688830863633
1621785917924.723,0.3,1.091,1.096,-1.25557232195313,-5.070272524316208,-6.634957490697826
1621785917929.223,0.30698976109215015,1.052944634053849,1.0633811149032992,-1.206,-5.148,-6.531
1621785917930.517,0.309,1.042,1.054,-1.1343266445442124,-5.168970837399961,-6.505338317392153
1621785917936.318,0.309,0.998,1.028,-0.8130607326436333,-5.262969718264038,-6.390313371071637
1621785917942.126,0.309,0.958,1.004,-0.4914162404840914,-5.357079367558072,-6.27515287917236
1621785917947.939,0.309,0.92,0.991,-0.16948781313032746,-5.451272093174572,-6.15989072808901
1621785917947.984,0.308930522341095,0.9197452485840152,0.991,-0.167,-5.452,-6.159
1621785917953.758,0.3,0.887,0.991,0.10708015935841367,-5.470108319599268,-6.1258525675132045
1621785917959.577,0.286,0.843,0.991,0.38328101844041573,-5.488356752618124,-6.092448656224452
1621785917965.402,0.271,0.826,1.005,0.6597831791224906,-5.50662509246162,-6.059008305324491
1621785917966.797,0.26501875811246495,0.8166692626554453,1.0064354980530084,0.726,-5.511,-6.051
1621785917971.233,0.246,0.787,1.011,0.8734382393290709,-5.529576747858049,-6.1638713793906765
1621785917977.069,0.225,0.757,1.025,1.0674231097766158,-5.554018222762923,-6.312376543369658
1621785917982.912,0.206,0.733,1.037,1.2616351952993554,-5.578488326042502,-6.461055651903813
1621785917985.661,0.20082949943639627,0.7264193629190497,1.0473410011272073,1.353,-5.59,-6.531
1621785917988.76,0.195,0.719,1.059,1.4541917703966463,-5.606046591422122,-6.64987576910674
1621785917994.614,0.187,0.705,1.08,1.6453353240890036,-5.636357381489842,-6.874423050628829
1621785918000.474,0.182,0.695,1.107,1.836678168332796,-5.666699774266365,-7.0992044501773615
1621785918004.588,0.17709175648121175,0.6921952894178353,1.1259317964296116,1.971,-5.688,-7.257
1621785918006.341,0.175,0.691,1.134,2.0099674540614916,-5.708776486170226,-7.29956871166433
1621785918012.212,0.169,0.698,1.162,2.140457687708154,-5.77835066287757,-7.442118469273599
1621785918018.09,0.162,0.709,1.187,2.271110715341983,-5.848011637326887,-7.584846065811977
1621785918023.574,0.16572875166002657,0.7285759462151394,1.204711570385126,2.393,-5.913,-7.718
1621785918023.973,0.166,0.73,1.206,2.4001834762435754,-5.91896877763679,-7.7272358980274545
1621785918029.864,0.176,0.752,1.236,2.506265044026608,-6.007112354366132,-7.863626485177068
1621785918035.759,0.19,0.777,1.26,2.612416951846298,-6.095314376898528,-8.000107509516669
1621785918041.66,0.215,0.81,1.286,2.718674369720973,-6.1836040681355025,-8.136724189641251
1621785918042.622,0.22004838842975205,0.8148855371900827,1.2908855371900827,2.736,-6.198,-8.159
1621785918047.568,0.246,0.84,1.316,2.746093525639388,-6.170048698229388,-8.192127468765172
1621785918053.481,0.267,0.869,1.339,2.758160019417972,-6.1366337923810015,-8.231730320141036
1621785918059.399,0.291,0.899,1.358,2.7702369759063847,-6.103189912874626,-8.27136751066711
1621785918061.733,0.2965148543409287,0.9159384811899954,1.3654844451769748,2.775,-6.09,-8.287
1621785918065.324,0.305,0.942,1.377,2.7309851909388407,-6.038493308545452,-8.259467332204297
1621785918071.256,0.321,0.965,1.391,2.6582765206983052,-5.953408694434187,-8.213985738479366
1621785918077.192,0.328,0.995,1.407,2.585522964868272,-5.868271554633084,-8.168476067385686
1621785918080.906,0.328,1.011251201774929,1.4232512017749293,2.54,-5.815,-8.14
1621785918083.134,0.328,1.021,1.433,2.4956388673833305,-5.784422091355612,-8.112665202878501
1621785918089.084,0.323,1.047,1.447,2.3771723800941733,-5.702763729359953,-8.039667576246018
1621785918095.038,0.316,1.073,1.468,2.2586232564633018,-5.621048406543895,-7.96661903009227
1621785918100.142,0.3100053252498771,1.1021169916434541,1.4799893495002459,2.157,-5.551,-7.904
1621785918100.998,0.309,1.107,1.482,2.1339785678137653,-5.544878694331984,-7.8922453188259105
1621785918106.963,0.3,1.129,1.499,1.9735508350202429,-5.502221609311741,-7.810331351214575
1621785918112.936,0.295,1.159,1.506,1.8128998481781375,-5.45950516194332,-7.728303390688259
1621785918118.914,0.298,1.18,1.517,1.6521175354251012,-5.416753795546559,-7.646208375506073
1621785918119.439,0.29756133191871376,1.1814037378601159,1.5178773361625724,1.638,-5.413,-7.639
1621785918124.897,0.293,1.196,1.527,1.4832257405515832,-5.349567926455567,-7.54793973442288
1621785918130.888,0.283,1.21,1.532,1.3133382135966405,-5.279941890818296,-7.447987692152486
1621785918136.883,0.269,1.22,1.538,1.1433329928498468,-5.210267620020429,-7.347966405629327
1621785918138.799,0.2667650122050448,1.222873555736371,1.5395964198535395,1.089,-5.188,-7.316
1621785918142.884,0.262,1.229,1.543,0.9839664334934224,-5.145200459386093,-7.247433389016496
1621785918148.616,0.244,1.227,1.545,0.8365854823553978,-5.085145019837126,-7.151222123616622
1621785918154.348,0.222,1.236,1.541,0.6892045312173731,-5.02508958028816,-7.055010858216747
1621785918157.506,0.2065731078836407,1.227184633076366,1.5398980791345458,0.608,-4.992,-7.002
1621785918160.08,0.194,1.22,1.539,0.5861807624370567,-4.989220479291345,-6.9679508713189735
1621785918165.811,0.173,1.216,1.538,0.5376002082729167,-4.98303187366534,-6.892140452400411
1621785918171.544,0.141,1.225,1.539,0.4890030977300889,-4.976841158946509,-6.816304197094724
1621785918176.027,0.12457233534974865,1.225,1.539,0.451,-4.972,-6.757
1621785918177.275,0.12,1.225,1.539,0.45760283687943265,-4.977255319148936,-6.759627659574468
1621785918183.006,0.084,1.227,1.534,0.4879298953307496,-5.001393181997944,-6.771696590998972
1621785918188.737,0.065,1.22,1.538,0.5182556618945926,-5.025530016609982,-6.783765008304991
1621785918194.469,0.037,1.218,1.534,0.5485865960083314,-5.049670964169896,-6.795835482084948
1621785918194.547,0.0367818863423362,1.218,1.534122688932436,0.549,-5.05,-6.796
1621785918200.2,0.021,1.218,1.543,0.5731146164291459,-5.074114616429146,-6.888795486005828
1621785918205.931,0.0,1.216,1.543,0.5975625090635835,-5.0985625090635835,-6.982873452599106
1621785918211.663,-0.014,1.208,1.543,0.6220156091387289,-5.123015609138728,-7.076971457951564
1621785918213.066,-0.015223907301695493,1.2075104370793217,1.5425104370793217,0.628,-5.129,-7.1
1621785918217.394,-0.019,1.206,1.541,0.669137673707249,-5.124325264351449,-7.239774595891675
1621785918223.125,-0.026,1.201,1.543,0.7236088917016059,-5.1181353532157265,-7.424852938849774
1621785918228.856,-0.024,1.204,1.546,0.7780801096959629,-5.111945442080004,-7.609931281807874
1621785918231.583,-0.027330919314986796,1.2006690806850133,1.5479033824657067,0.804,-5.109,-7.698
1621785918234.587,-0.031,1.197,1.55,0.7689578861316949,-5.140797473695314,-7.750563170802458
1621785918240.318,-0.026,1.187,1.552,0.7021004720339654,-5.201464386487698,-7.850849291949053
1621785918246.049,-0.017,1.178,1.538,0.6352459059623955,-5.262128714960048,-7.951131141056407
1621785918250.099,-0.009933032291045411,1.1666928516656725,1.528812941978359,0.588,-5.305,-8.022
1621785918251.78,-0.007,1.162,1.525,0.5581451892225697,-5.325889124568728,-8.037435769039725
1621785918257.51,0.0,1.15,1.515,0.4563743237256508,-5.397097222408678,-8.09005414222234
1621785918263.072,0.014,1.136,1.518,0.3575867712011169,-5.466217924794265,-8.141130059471868
1621785918268.285,0.022439525691699606,1.1153700483091789,1.5151868247694333,0.265,-5.531,-8.189
1621785918268.631,0.023,1.114,1.515,0.25193363277528247,-5.5321387232884165,-8.190119422893698
1621785918274.187,0.037,1.093,1.496,0.04223594664488908,-5.55041370627467,-8.208084660405607
1621785918279.739,0.063,1.058,1.482,-0.1673143051585681,-5.568675840479107,-8.226037266911664
1621785918285.289,0.08,1.016,1.463,-0.3767908397985572,-5.586931550292636,-8.243983557914795
1621785918286.222,0.08504711165903488,1.0104481771750617,1.4611493923916872,-0.412,-5.59,-8.247
1621785918290.834,0.11,0.983,1.452,-0.5560055229030014,-5.605199151791194,-8.178990236052964
1621785918296.377,0.138,0.944,1.44,-0.7290774297364007,-5.6234661330133235,-8.097253235330214
1621785918301.916,0.166,0.894,1.426,-0.9020273690526517,-5.6417202410985805,-8.01557383644025
1621785918304.125,0.1755767144432194,0.876442690187431,1.4204135832414553,-0.971,-5.649,-7.983
1621785918307.452,0.19,0.85,1.412,-1.023869781420765,-5.634293265027322,-7.87148943989071
1621785918312.985,0.206,0.799,1.395,-1.1118011475409835,-5.6098334836065575,-7.68602856557377
1621785918318.514,0.216,0.763,1.384,-1.1996626775956283,-5.5853931284153004,-7.500714986338798
1621785918321.996,0.216,0.7333891072927249,1.377699810062282,-1.255,-5.57,-7.384
1621785918324.041,0.216,0.716,1.374,-1.2820578186596583,-5.549821287779238,-7.323349211563732
1621785918329.563,0.209,0.672,1.365,-1.3551229741568112,-5.495332019272887,-7.159571807928165
1621785918335.083,0.187,0.623,1.356,-1.4281622864651775,-5.4408620236530885,-6.995852332457293
1621785918339.832,0.17064510133640146,0.5808215771307195,1.3413666696167803,-1.491,-5.394,-6.855
1621785918340.6,0.168,0.574,1.339,-1.5032518203633871,-5.399047404868015,-6.842316777511142
1621785918346.113,0.145,0.527,1.319,-1.5911915392526568,-5.435276091875214,-6.751280589646898
1621785918351.622,0.117,0.48,1.302,-1.6790689475488516,-5.471479108673295,-6.660308906410696
1621785918357.128,0.099,0.435,1.292,-1.7668957284881728,-5.507661268426466,-6.5693896331847785
1621785918357.636,0.09715391439343536,0.429830960301619,1.290061610113107,-1.775,-5.511,-6.561
1621785918362.632,0.079,0.379,1.271,-1.8608953414519647,-5.5858758733051666,-6.51946508160053
1621785918368.132,0.054,0.34,1.26,-1.9554540910722669,-5.6683037307044435,-6.473740949382818
1621785918373.566,0.047,0.286,1.229,-2.048875348631707,-5.7497400243006656,-6.4285668544445365
1621785918375.318,0.04409589964931211,0.26760736444564337,1.2244825105655968,-2.079,-5.776,-6.414
1621785918378.996,0.038,0.229,1.215,-2.0953736309673108,-5.82952917816236,-6.444857996823008
1621785918384.421,0.035,0.182,1.192,-2.1195237856366527,-5.9084816068890555,-6.490371749853691
1621785918389.842,0.038,0.131,1.178,-2.143657637321294,-5.987380737396538,-6.535854778028593
1621785918392.839,0.04408489545782264,0.10666041816870944,1.1663833813987021,-2.157,-6.031,-6.561
1621785918395.26,0.049,0.087,1.157,-2.106852726282114,-6.051363671924114,-6.638437364663807
1621785918400.671,0.047,0.054,1.14,-1.994769827188779,-6.096877998351518,-6.811515653595228
1621785918406.079,0.049,0.024,1.119,-1.8827425573825456,-6.14236973498554,-6.984508039842975
1621785918410.315,0.054487033523086655,0.01616138068130478,1.1103775187494354,-1.795,-6.178,-7.12
1621785918411.483,0.056,0.014,1.108,-1.7588154466761912,-6.187180155195114,-7.17648810824439
1621785918416.883,0.058,0.017,1.084,-1.5915148331792586,-6.229624940471188,-7.437662954870158
1621785918422.277,0.063,0.028,1.061,-1.424403311202622,-6.272021752528224,-7.6985426086225734
1621785918427.668,0.066,0.045,1.021,-1.2573901168165391,-6.31439361851136,-7.959268762080847
1621785918427.745,0.06605728529345117,0.04518617720371629,1.0203268978019486,-1.255,-6.315,-7.963
1621785918433.055,0.07,0.058,0.974,-1.2730180434446832,-6.321107811337181,-8.202731594984343
1621785918438.437,0.077,0.063,0.922,-1.291281309237963,-6.327298748894225,-8.445725894098318
1621785918443.814,0.087,0.073,0.859,-1.3095271774997543,-6.333483788982967,-8.688488717581476
1621785918445.132,0.09313188260948572,0.07692440487007086,0.8447740323459931,-1.314,-6.335,-8.748
1621785918449.188,0.112,0.089,0.801,-1.502050515289745,-6.3074005462634455,-8.738644252970658
1621785918454.557,0.129,0.087,0.737,-1.7509771920932589,-6.270866531508701,-8.726259841189389
1621785918459.921,0.154,0.087,0.672,-1.9996774793039362,-6.234365743087233,-8.713886692571943
1621785918462.473,0.1620923994717428,0.08366783551163531,0.6377263081196776,-2.118,-6.217,-8.708
1621785918465.282,0.171,0.08,0.6,-2.293404766950649,-6.148561254044278,-8.55015196597861
1621785918470.638,0.18,0.059,0.527,-2.6278415631755183,-6.0180720128851775,-8.249189844445386
1621785918475.99,0.182,0.031,0.469,-2.9620344452450587,-5.887677941197248,-7.948447223046384
1621785918479.753,0.17705427458170983,0.007684437313774925,0.4350864542745817,-3.197,-5.796,-7.737
1621785918481.316,0.175,-0.002,0.421,-3.2192828526779373,-5.757618923142492,-7.6638758630487285
1621785918486.639,0.171,-0.04,0.363,-3.295170549794005,-5.6269062366813465,-7.414840318227021
1621785918491.956,0.168,-0.07,0.319,-3.3709747123170906,-5.496337434294644,-7.166078903253303
1621785918496.938,0.1642492417976289,-0.09250454921422663,0.28618086572925283,-3.442,-5.374,-6.933
1621785918497.269,0.164,-0.094,0.284,-3.4380204578804157,-5.370773866339948,-6.917101149687291
1621785918502.577,0.157,-0.11,0.255,-3.374215719516191,-5.319048665821378,-6.662191927970025
1621785918507.881,0.133,-0.126,0.23,-3.3104550026355906,-5.267359152622056,-6.407458578490733
1621785918513.179,0.11,-0.141,0.216,-3.246770589659938,-5.215731497442765,-6.153030074223926
1621785918514.075,0.10204712066024252,-0.1437073631794919,0.21278500622435337,-3.236,-5.207,-6.11
1621785918518.474,0.063,-0.157,0.197,-3.1955842250382163,-5.270069202965841,-5.950911153335143
1621785918523.763,0.023,-0.169,0.182,-3.1469951283626445,-5.3458929525551095,-5.759649613554867
1621785918529.048,-0.028,-0.171,0.168,-3.0984396759861137,-5.421664199894281,-5.568520508021773
1621785918531.164,-0.04683956155767274,-0.1746075756174267,0.16559494958838222,-3.079,-5.452,-5.492
1621785918534.327,-0.075,-0.18,0.162,-2.98619382199553,-5.526801779471603,-5.566616167115594
1621785918539.604,-0.127,-0.178,0.159,-2.8313497048541465,-5.651606137887558,-5.691110837297266
1621785918544.874,-0.18,-0.171,0.166,-2.6767133360077944,-5.776243051177718,-5.8154384778497334
1621785918548.204,-0.2071927303073856,-0.1741619453845797,0.16789716723074785,-2.579,-5.855,-5.894
1621785918550.14,-0.223,-0.176,0.169,-2.5555289477087557,-5.896245247230246,-6.012380695779627
1621785918555.402,-0.258,-0.194,0.176,-2.4917258122458366,-6.00836532022819,-6.334183888721243
1621785918560.658,-0.286,-0.208,0.175,-2.427999640758144,-6.120350145852194,-6.655598899282953
1621785918565.194,-0.30154667162513943,-0.2304563034585348,0.16981777612495352,-2.373,-6.217,-6.933
1621785918565.91,-0.304,-0.234,0.169,-2.3568589998558873,-6.2389720420809915,-6.958690387663928
1621785918571.158,-0.304,-0.262,0.161,-2.2385210260844506,-6.400060383340539,-7.147039832828938
1621785918576.401,-0.284,-0.295,0.162,-2.1202986597492437,-6.560991353220925,-7.335205274535236
1621785918581.639,-0.246,-0.311,0.164,-2.0021863957342556,-6.721772445597349,-7.523195474852285
1621785918582.135,-0.24173407977606717,-0.31299076277116866,0.1651375787263821,-1.991,-6.737,-7.541
1621785918586.872,-0.201,-0.332,0.176,-1.9304269692152045,-6.679231276195982,-7.557545411186588
1621785918592.102,-0.152,-0.335,0.182,-1.8635509466685938,-6.615451365804307,-7.575812472900708
1621785918597.325,-0.103,-0.346,0.182,-1.7967654574360457,-6.551757797369562,-7.594054805607747
1621785918599.027,-0.08310515975113439,-0.34469542031154976,0.182,-1.775,-6.531,-7.6
1621785918602.544,-0.042,-0.342,0.182,-1.6787481338686532,-6.381506863015089,-7.567220080298001
1621785918607.76,0.007,-0.318,0.183,-1.5359906802139347,-6.15978378965982,-7.518602032090212
1621785918612.97,0.028,-0.291,0.195,-1.3934002724914123,-5.938320162915079,-7.470040873711826
1621785918615.871,0.025213180112570358,-0.2681480769230769,0.20614727954971857,-1.314,-5.815,-7.443
1621785918618.175,0.023,-0.25,0.215,-1.2171497557855564,-5.8284438016048385,-7.362337190370973
1621785918623.376,-0.005,-0.202,0.258,-0.9985208745202931,-5.858791719967439,-7.180249680195372
1621785918628.572,-0.052,-0.134,0.3,-0.7800972496801953,-5.889111146644959,-6.998333120130248
1621785918632.666,-0.09380025397422631,-0.0851015896905277,0.33154736148998215,-0.608,-5.913,-6.855
1621785918633.763,-0.105,-0.072,0.34,-0.5990243514778576,-5.931671969553362,-6.876161565493811
1621785918638.95,-0.145,0.002,0.37,-0.5565813003980811,-6.019965907931,-6.976228028988466
1621785918644.133,-0.162,0.08,0.4,-0.514170212455708,-6.108193353650535,-7.076219134137272
1621785918649.31,-0.171,0.152,0.419,-0.47180906691552804,-6.196316904591785,-7.176092491870689
1621785918649.409,-0.17073234516616315,0.15322356495468278,0.41917206382175226,-0.471,-6.198,-7.178
1621785918654.482,-0.157,0.216,0.428,-0.4828485415600555,-6.32590348709701,-7.330208187733022
1621785918659.651,-0.122,0.283,0.433,-0.494921178448717,-6.456226054536151,-7.485295138533519
1621785918664.814,-0.07,0.342,0.438,-0.5069801301264713,-6.586400891878061,-7.640206287009285
1621785918666.107,-0.05320798826368843,0.3550326061237045,0.438,-0.51,-6.619,-7.679
1621785918669.973,-0.003,0.394,0.438,-0.5782673216511475,-6.698877410367329,-7.692467702910771
1621785918675.127,0.068,0.443,0.433,-0.6692803577974925,-6.805368854021555,-7.710422655619913
1621785918680.277,0.154,0.49,0.428,-0.7602244152797126,-6.911779587946331,-7.7283640002932765
1621785918682.756,0.19351910389672028,0.5054220893255494,0.42703611941715314,-0.804,-6.963,-7.737
1621785918685.421,0.236,0.522,0.426,-0.8528014942714692,-6.920459223743621,-7.669416351683261
1621785918690.562,0.309,0.548,0.415,-0.9469528333799069,-6.838386510376068,-7.539029135352169
1621785918695.697,0.361,0.56,0.414,-1.0409923962760874,-6.756411233509332,-7.408796714367655
1621785918699.356,0.39095688178183896,0.5649928136303065,0.41257348181991244,-1.108,-6.698,-7.316
1621785918700.827,0.403,0.567,0.412,-1.1577485887594143,-6.643092945973793,-7.265377095093672
1621785918705.954,0.429,0.557,0.401,-1.3311544165662959,-6.451706549027006,-7.088923713195281
1621785918711.214,0.438,0.555,0.394,-1.5090520671590895,-6.255362569110883,-6.907899566107008
1621785918716.18,0.438,0.5455535946498236,0.38266431357978825,-1.677,-6.07,-6.737
1621785918716.471,0.438,0.545,0.382,-1.6827118846502527,-6.064288115349748,-6.729435612219936
1621785918721.725,0.419,0.525,0.382,-1.7858372785748204,-5.96116272142518,-6.592864144590103
1621785918726.976,0.398,0.504,0.377,-1.888900378455384,-5.858099621544616,-6.456375174478005
1621785918732.224,0.36,0.483,0.377,-1.9919059761414817,-5.755094023858518,-6.31996235592074
1621785918733.146,0.35507852720755945,0.4784300609784481,0.3773515337708886,-2.01,-5.737,-6.296
1621785918737.469,0.332,0.457,0.379,-2.0776463252890465,-5.796988250728022,-6.238309171640285
1621785918742.711,0.297,0.417,0.374,-2.1596723178502435,-5.869728281867197,-6.168354928927717
1621785918747.949,0.271,0.382,0.372,-2.2416371853645876,-5.942414107776145,-6.09845281550039
1621785918750.081,0.2608202545810603,0.3665267869632116,0.3646705832983634,-2.275,-5.972,-6.07
1621785918753.185,0.246,0.344,0.354,-2.253332269385751,-6.024333078178484,-6.143817183957019
1621785918758.418,0.241,0.318,0.34,-2.2168035500223864,-6.112559222403559,-6.268262482127125
1621785918763.647,0.232,0.297,0.328,-2.180302098528286,-6.2007195077918515,-6.392614884674822
1621785918766.985,0.22880686595049043,0.28103432975245213,0.32225235871088276,-2.157,-6.257,-6.472
1621785918768.874,0.227,0.272,0.319,-2.1614785320463654,-6.252521467953634,-6.535707118359551
1621785918774.098,0.232,0.243,0.309,-2.1738641014138316,-6.240135898586169,-6.711891842611754
1621785918779.318,0.232,0.218,0.298,-2.1862409880902423,-6.2277590119097574,-6.8879530555836945
1621785918783.856,0.23373970423062523,0.19973310557843504,0.28321251403968556,-2.197,-6.217,-7.041
1621785918784.535,0.234,0.197,0.281,-2.2116353567131073,-6.20554974846688,-7.052087391449324
1621785918789.75,0.241,0.178,0.265,-2.3240502631311886,-6.117599794134276,-7.13725019934181
1621785918794.961,0.26,0.141,0.241,-2.4363757049451267,-6.029719834147614,-7.222345231019036
1621785918800.169,0.271,0.122,0.222,-2.548637995273787,-5.941889281934557,-7.30739242066196
1621785918800.696,0.2718099793659726,0.119367567060589,0.21967130932282875,-2.56,-5.933,-7.316
1621785918805.375,0.279,0.096,0.199,-2.641843416370107,-5.859229573680006,-7.261437722419929
1621785918810.577,0.281,0.07,0.176,-2.732834163701068,-5.777214104146997,-7.200777224199288
1621785918815.776,0.265,0.045,0.161,-2.8237736654804273,-5.695244825332268,-7.140150889679715
1621785918817.504,0.25934744210081273,0.0400124489124818,0.15501493869497815,-2.854,-5.668,-7.12
1621785918820.973,0.248,0.03,0.143,-2.809332566837915,-5.651870093580358,-7.020532243745543
1621785918826.166,0.229,0.021,0.141,-2.742465020156889,-5.627723479501099,-6.871628123590109
1621785918831.356,0.197,0.021,0.126,-2.6756383402948583,-5.603591622884254,-6.722815007786235
1621785918834.279,0.18234792431516522,0.026635413724936458,0.1248729172550127,-2.638,-5.59,-6.639
1621785918836.543,0.171,0.031,0.124,-2.526581752431502,-5.592569110077429,-6.624396637454614
1621785918841.727,0.143,0.044,0.127,-2.271448023447411,-5.598452048003033,-6.590956779772234
1621785918846.908,0.117,0.066,0.131,-2.016470493882967,-5.60433138424299,-6.557537394829321
1621785918851.022,0.09315986795567083,0.08984013204432917,0.1333840132044329,-1.814,-5.609,-6.531
1621785918852.085,0.087,0.096,0.134,-1.7615850864890137,-5.6165060191678355,-6.541622925432445
1621785918857.261,0.065,0.12,0.138,-1.5063603319308088,-5.653055195184666,-6.593349301659654
1621785918862.433,0.033,0.141,0.143,-1.251328190743338,-5.689576788218794,-6.645036640953717
1621785918867.601,0.002,0.161,0.152,-0.9965007012622721,-5.726069074333801,-6.696682503506311
1621785918867.733,0.0011069741069741068,0.16148478548478548,0.15212757512757513,-0.99,-5.727,-6.698
1621785918872.768,-0.033,0.18,0.157,-0.7884388812256039,-5.836859889061721,-6.80180700261204
1621785918877.912,-0.052,0.202,0.175,-0.5825189446189065,-5.949095530185191,-6.907858861855429
1621785918883.053,-0.063,0.222,0.19,-0.3767260587562,-6.061261922930179,-7.013845288057993
1621785918884.37,-0.06197457828462818,0.22687075314801616,0.19307626514611548,-0.324,-6.09,-7.041
1621785918888.191,-0.059,0.241,0.202,-0.30580125412152614,-6.146439148610456,-7.1292293629298165
1621785918893.326,-0.051,0.262,0.211,-0.28134283737635424,-6.222291200541687,-7.247806244112106
1621785918898.457,-0.031,0.278,0.22,-0.2569030263777673,-6.298085551106924,-7.366292922750825
1621785918900.956,-0.01589259188725957,0.278,0.2234113502190059,-0.245,-6.335,-7.424
1621785918903.585,0.0,0.278,0.227,-0.28709414506778386,-6.331823083391111,-7.433213058165779
1621785918908.71,0.019,0.297,0.227,-0.36915583649264627,-6.325629748189234,-7.451173730251221
1621785918913.831,0.054,0.305,0.232,-0.45115498089660566,-6.319441133517238,-7.469120712800012
1621785918917.506,0.07554224109144683,0.3114626723274341,0.232,-0.51,-6.315,-7.482
1621785918918.949,0.084,0.314,0.232,-0.5340275868186455,-6.2953410653301995,-7.471777353971704
1621785918924.064,0.112,0.323,0.232,-0.6192055853698201,-6.225649975606511,-7.435537987315386
1621785918929.175,0.129,0.332,0.223,-0.7043185346165787,-6.156012108040981,-7.39932629618131
1621785918934.02,0.1441734684125012,0.334845025327344,0.22869005065468795,-0.785,-6.09,-7.365
1621785918934.284,0.145,0.335,0.229,-0.7879786672987468,-6.08591634321946,-7.362645891973571
1621785918939.388,0.159,0.34,0.227,-0.8455846049005955,-6.006940461023377,-7.317118618707594
1621785918944.489,0.162,0.344,0.23,-0.9031574768155017,-5.928009910817457,-7.2716174780006515
1621785918949.588,0.154,0.34,0.23,-0.960705549465201,-5.84911335960416,-7.2261359367129865
1621785918950.5,0.1529256649892164,0.3398209441648694,0.2298209441648694,-0.971,-5.835,-7.218
1621785918954.682,0.148,0.339,0.229,-1.0383879511275405,-5.802450348134622,-7.16815834558114
1621785918959.773,0.143,0.339,0.223,-1.1204266541961727,-5.762824106652414,-7.10748066331151
1621785918964.861,0.131,0.33,0.215,-1.2024181475378197,-5.72322066835909,-7.046837898424858
1621785918966.945,0.12526233915882468,0.3263115037449587,0.21213116957941233,-1.236,-5.707,-7.022
1621785918969.946,0.117,0.321,0.208,-1.2502772731333949,-5.71249125889746,-7.009370104535844
1621785918975.028,0.094,0.312,0.206,-1.274455252107097,-5.721790481579653,-6.987981892366799
1621785918980.094,0.072,0.304,0.208,-1.2985565714626084,-5.731060219793311,-6.966661494475385
1621785918983.34,0.058541212763906295,0.2950274751759375,0.20351373758796876,-1.314,-5.737,-6.953
1621785918985.159,0.051,0.29,0.201,-1.3337001613481536,-5.754474154416159,-6.969361150950162
1621785918990.219,0.038,0.281,0.195,-1.3885062746504124,-5.803087486554321,-7.014878092506275
1621785918995.276,0.031,0.274,0.187,-1.443278011832198,-5.8516703268794075,-7.060366484403012
1621785918999.682,0.030128080007730214,0.26528080007730215,0.18525616001546044,-1.491,-5.894,-7.1
1621785919000.329,0.03,0.264,0.185,-1.496834660877377,-5.898643913759545,-7.110121350501572
1621785919005.378,0.03,0.262,0.171,-1.5423498577631383,-5.934870294954335,-7.189076283874831
1621785919010.424,0.04,0.239,0.162,-1.58784084443779,-5.971077406797425,-7.2679892199431055
1621785919015.467,0.051,0.237,0.147,-1.6333032190447672,-6.007261745770325,-7.3468525228327595
1621785919015.988,0.05151695736434108,0.2357593023255814,0.14606947674418605,-1.638,-6.011,-7.355
1621785919020.506,0.056,0.225,0.138,-1.629668217426539,-6.000168682654501,-7.36860857820332
1621785919025.542,0.063,0.211,0.12,-1.6203815169433022,-5.988095972026294,-7.383776855659273
1621785919030.575,0.065,0.208,0.11,-1.6111002191073627,-5.976030284839572,-7.398936308791308
1621785919032.256,0.0673404709881039,0.20499082301529498,0.10699082301529497,-1.608,-5.972,-7.404
1621785919035.603,0.072,0.199,0.101,-1.5675811546677096,-5.984166897319414,-7.3897709166942445
1621785919040.628,0.077,0.194,0.084,-1.5068983423087337,-6.002433662264208,-7.368408089894401
1621785919045.65,0.087,0.178,0.075,-1.4462509100755137,-6.020689777069105,-7.34705771834291
1621785919048.486,0.09095635885958937,0.17234805877201517,0.06708728228082125,-1.412,-6.031,-7.335
1621785919050.668,0.094,0.168,0.061,-1.3816904722427383,-6.02830581975491,-7.324492697044149
1621785919055.683,0.099,0.166,0.056,-1.3120229865999427,-6.0221131543644395,-7.300341302021313
1621785919060.695,0.096,0.169,0.047,-1.2423995900094962,-6.015924408000844,-7.2762051912032915
1621785919064.683,0.096,0.16342437097717966,0.03983133411351668,-1.187,-6.011,-7.257
1621785919065.702,0.096,0.162,0.038,-1.1771068947813481,-6.019065716356608,-7.250824685914472
1621785919070.706,0.091,0.159,0.031,-1.128513801642909,-6.058683015221068,-7.220492691471369
1621785919075.708,0.087,0.164,0.021,-1.0799420451799953,-6.098282918579367,-7.190174015462672
1621785919080.715,0.096,0.145,0.014,-1.0313205031408552,-6.137923411452042,-7.159824263107031
1621785919080.851,0.0960815281030445,0.1447554156908665,0.013864119828259172,-1.03,-6.139,-7.159
1621785919085.719,0.099,0.136,0.009,-1.083030056667926,-6.174554242538723,-7.111694778995089
1621785919090.721,0.112,0.119,0.0,-1.1375202417831507,-6.211087434831885,-7.063087057045712
1621785919095.718,0.117,0.089,-0.01,-1.1919572346052134,-6.247584964110313,-7.014526785039667
1621785919097.007,0.12009753116597409,0.08357932045954534,-0.012839403568809582,-1.206,-6.257,-7.002
1621785919100.712,0.129,0.068,-0.021,-1.2443886237976218,-6.229875104142997,-6.9817712641066425
1621785919105.703,0.14,0.031,-0.031,-1.2961038551844277,-6.193333802923578,-6.954520124214193
1621785919110.69,0.15,0.01,-0.044,-1.3477786109217602,-6.156821101264864,-6.927290312807695
1621785919113.124,0.15195346558902767,0.00023267205486162193,-0.048883663972569186,-1.373,-6.139,-6.914
1621785919115.674,0.154,-0.01,-0.054,-1.3823553406606752,-6.1063355902356085,-6.885933978017974
1621785919120.655,0.148,-0.031,-0.056,-1.4006289318678649,-6.042532881952878,-6.831113204396405
1621785919125.631,0.136,-0.058,-0.063,-1.4188846095457857,-5.978792719213019,-6.7763461713626425
1621785919129.206,0.11946560950463941,-0.0716588443222544,-0.07018886543276548,-1.432,-5.933,-6.737
1621785919130.604,0.113,-0.077,-0.073,-1.4089141005355403,-5.921065025559883,-6.726720240993184
1621785919135.575,0.089,-0.093,-0.079,-1.32682328687926,-5.878625623782863,-6.690166595666991
1621785919140.541,0.066,-0.103,-0.08,-1.2448131085686465,-5.836227908958131,-6.653648855890944
1621785919145.253,0.03846654860291224,-0.11629201101928376,-0.0856965761511216,-1.167,-5.796,-6.619
1621785919145.504,0.037,-0.117,-0.086,-1.1600863617647508,-5.797536364052278,-6.618702133500069
1621785919150.464,0.002,-0.124,-0.084,-1.0234478520122612,-5.8279004773306085,-6.6128152135787595
1621785919155.42,-0.026,-0.12,-0.086,-0.8869303981821786,-5.858237689292849,-6.606933509218733
1621785919160.372,-0.047,-0.106,-0.08,-0.7505138242874354,-5.888552483491681,-6.601056151159776
1621785919161.262,-0.051134895191122076,-0.10510110974106042,-0.07874155363748458,-0.726,-5.894,-6.6
1621785919165.322,-0.07,-0.101,-0.073,-0.6461922665443985,-5.948899587345255,-6.679807733455601
1621785919170.268,-0.084,-0.091,-0.066,-0.5489688827754853,-6.0157793672627236,-6.777031117224515
1621785919175.21,-0.091,-0.08,-0.065,-0.451827082378114,-6.082603026134801,-6.874172917621886
1621785919177.236,-0.09304570104515875,-0.07590859790968252,-0.062136018536777755,-0.412,-6.11,-6.914
1621785919180.162,-0.096,-0.07,-0.058,-0.3780145137438446,-6.1403311328952785,-6.980326513499916
1621785919185.122,-0.096,-0.056,-0.049,-0.3204050737121339,-6.191746009482719,-7.092757840013416
1621785919190.077,-0.086,-0.037,-0.037,-0.26285518271766806,-6.2431077401551995,-7.205072949857454
1621785919193.25,-0.07575,-0.02675,-0.03571875,-0.226,-6.276,-7.277
1621785919195.03,-0.07,-0.021,-0.035,-0.2456060504201681,-6.2825724828113065,-7.291147547746371
1621785919199.978,-0.054,-0.007,-0.024,-0.3001055462184874,-6.300842200152788,-7.330473888464477
1621785919204.924,-0.037,0.01,-0.028,-0.35458352941176474,-6.319104705882353,-7.369784705882353
1621785919209.229,-0.021316928550252,0.02219794446091511,-0.030613845241624665,-0.402,-6.335,-7.404
1621785919209.865,-0.019,0.024,-0.031,-0.4094188115325137,-6.331091163816202,-7.402444442743183
1621785919214.805,0.0,0.037,-0.04,-0.4670434689409135,-6.3007297851816695,-7.390361853286582
1621785919219.741,0.017,0.033,-0.047,-0.5246225597525684,-6.270392414754023,-7.378288818116397
1621785919224.673,0.033,0.033,-0.049,-0.5821560839674786,-6.240079052533264,-7.366225337232626
1621785919225.174,0.03350809686525034,0.03340647749220027,-0.049,-0.588,-6.237,-7.365
1621785919229.603,0.038,0.037,-0.049,-0.6208505133281156,-6.201643939045164,-7.285657658487178
1621785919234.528,0.037,0.031,-0.047,-0.6573806608044442,-6.162327593879962,-7.197428065006215
1621785919239.45,0.031,0.033,-0.045,-0.6938872673142734,-6.123036585178706,-7.109255328944339
1621785919241.083,0.025357515010172183,0.03233617823649085,-0.04566382176350915,-0.706,-6.11,-7.08
1621785919244.37,0.014,0.031,-0.047,-0.7445111644214799,-6.085568186012179,-7.049563757150766
1621785919249.286,-0.002,0.016,-0.049,-0.8021034323675955,-6.049031155809805,-7.0040472873223845
1621785919254.198,-0.01,0.007,-0.049,-0.8596527957187673,-6.012521344651534,-6.9585647259642
1621785919256.959,-0.025745214061956144,0.0030636964845109638,-0.05012465814728258,-0.892,-5.992,-6.933
1621785919259.108,-0.038,0.0,-0.051,-0.9052934087441631,-6.0000031746520985,-6.933
1621785919264.014,-0.054,-0.016,-0.052,-0.9356423122563147,-6.0182744532971695,-6.933
1621785919268.917,-0.075,-0.024,-0.056,-0.9659730925118278,-6.036534821002019,-6.933
1621785919272.801,-0.08768281016442452,-0.03826816143497758,-0.057585351270553066,-0.99,-6.051,-6.933
1621785919273.817,-0.091,-0.042,-0.058,-0.9812436330681085,-6.0653808945961725,-6.939902829406162
1621785919278.741,-0.093,-0.042,-0.059,-0.9388001904703388,-6.135087278424626,-6.973361893643821
1621785919283.662,-0.094,-0.052,-0.061,-0.8963820005529783,-6.204752188872845,-7.006801050658966
1621785919288.581,-0.084,-0.059,-0.061,-0.8539827501459248,-6.27438599428589,-7.040225277257227
1621785919288.695,-0.08367524339360223,-0.059162378303198884,-0.061162378303198886,-0.853,-6.276,-7.041
1621785919293.496,-0.07,-0.066,-0.068,-0.8472506193546402,-6.287801360272055,-7.064905319525444
1621785919298.407,-0.059,-0.08,-0.07,-0.8413696739347869,-6.2998727745549115,-7.089357671534307
1621785919303.317,-0.044,-0.086,-0.08,-0.8354898979795959,-6.311941788357672,-7.113805161032206
1621785919304.561,-0.04070260315564183,-0.086,-0.08,-0.834,-6.315,-7.12
1621785919308.222,-0.031,-0.086,-0.08,-0.8090314523589269,-6.3196238051187175,-7.092719549799568
1621785919313.124,-0.023,-0.087,-0.086,-0.7755974098057354,-6.325815294480419,-7.056189762565526
1621785919318.024,-0.009,-0.089,-0.082,-0.7421783533765032,-6.332004008633981,-7.019676349059512
1621785919320.396,-0.009,-0.08657802373117958,-0.082,-0.726,-6.335,-7.002
1621785919322.921,-0.009,-0.084,-0.082,-0.7133786476758377,-6.325573926745246,-6.984745493025196
1621785919327.813,-0.009,-0.086,-0.08,-0.6889243198986607,-6.307310568025582,-6.951314260114625
1621785919332.704,-0.016,-0.084,-0.079,-0.6644748737120171,-6.289050855050747,-6.917889700770859
1621785919336.2,-0.016715341959334568,-0.07756192236598891,-0.079,-0.647,-6.276,-6.894
1621785919337.591,-0.017,-0.075,-0.079,-0.640119848911731,-6.277764141304684,-6.899204216848819
1621785919342.475,-0.021,-0.075,-0.068,-0.6159644571039351,-6.283957831511811,-6.917475602959844
1621785919347.356,-0.024,-0.077,-0.066,-0.5918247623765441,-6.290147496826528,-6.935735115638256
1621785919351.971,-0.024,-0.06848513513513514,-0.058431231231231236,-0.569,-6.296,-6.953
1621785919352.234,-0.024,-0.068,-0.058,-0.569,-6.297303166157331,-6.953167072584273
1621785919357.108,-0.019,-0.068,-0.063,-0.569,-6.321459534927013,-6.9562640429393605
1621785919361.98,-0.017,-0.068,-0.056,-0.569,-6.3456062237252375,-6.9593597722724665
1621785919366.848,-0.009,-0.059,-0.056,-0.569,-6.3697323425841175,-6.962452864433861
1621785919367.709,-0.007407035680232849,-0.059,-0.05564600792894064,-0.569,-6.374,-6.963
1621785919371.713,0.0,-0.059,-0.054,-0.5540355706773894,-6.364108258583359,-6.950571914630374
1621785919376.609,0.002,-0.049,-0.054,-0.535736993504485,-6.352012588926693,-6.935374791215589
1621785919381.501,0.005,-0.052,-0.045,-0.5174530157748222,-6.3399265697494585,-6.92018979276214
1621785919383.495,0.004184219725343321,-0.04710531835205992,-0.04663156054931336,-0.51,-6.335,-6.914
1621785919386.39,0.003,-0.04,-0.049,-0.5243043229448612,-6.324180063413502,-6.888692351712938
1621785919391.278,0.003,-0.031,-0.037,-0.5484589281571417,-6.305909272291393,-6.845957280952749
1621785919396.161,-0.002,-0.026,-0.035,-0.5725869924986466,-6.287658556956152,-6.8032691671177785
1621785919399.28,-0.007112189266243185,-0.01833171610063522,-0.03244390536687841,-0.588,-6.276,-6.776
1621785919401.042,-0.01,-0.014,-0.031,-0.5989612857231418,-6.273874852767962,-6.776
1621785919405.92,-0.014,-0.007,-0.033,-0.6293072035211704,-6.267991460541814,-6.776
1621785919410.795,-0.024,-0.003,-0.028,-0.6596348955427438,-6.26211160188457,-6.776
1621785919415.033,-0.025739727400280618,-0.0021301362998596913,-0.023650681499298457,-0.686,-6.257,-6.776
1621785919415.667,-0.026,-0.002,-0.023,-0.6883791652433154,-6.259338840408683,-6.779951833793981
1621785919420.537,-0.028,-0.005,-0.023,-0.7066539393186547,-6.277303872550542,-6.810306543275053
1621785919425.403,-0.028,0.0,-0.019,-0.7249131393434987,-6.295253594608863,-6.840635383994286
1621785919430.266,-0.028,0.0,-0.021,-0.7431613459209341,-6.313192509549393,-6.870945964411042
1621785919430.756,-0.028,0.0,-0.02130241084881969,-0.745,-6.315,-6.874
1621785919435.127,-0.028,0.0,-0.024,-0.7697871410348154,-6.320570144052768,-6.898787141034815
1621785919439.985,-0.016,-0.003,-0.026,-0.7973377928502535,-6.326761301764102,-6.926337792850253
1621785919444.839,-0.005,-0.012,-0.03,-0.8248649077502255,-6.332947170280949,-6.9538649077502255
1621785919446.45,-0.0033399587379862126,-0.014324057766819304,-0.03,-0.834,-6.335,-6.963
1621785919449.691,0.0,-0.019,-0.03,-0.8379319230529401,-6.343070789424456,-6.944582044646754
1621785919454.54,0.01,-0.012,-0.035,-0.8438148500342957,-6.3551462711230275,-6.917025176155141
1621785919459.387,0.016,-0.019,-0.035,-0.8496951113051069,-6.367216281099956,-6.88948079441292
1621785919462.111,0.013749609237130036,-0.020125195381434983,-0.036687793072152475,-0.853,-6.374,-6.874
1621785919464.229,0.012,-0.021,-0.038,-0.858284016367839,-6.374,-6.8687159836321605
1621785919469.069,0.016,-0.014,-0.037,-0.8703595926782033,-6.374,-6.856640407321796
1621785919473.906,0.012,-0.026,-0.04,-0.8824272505778722,-6.374,-6.844572749422127
1621785919477.743,0.008032114724298121,-0.02441284588971925,-0.04,-0.892,-6.374,-6.835
1621785919478.741,0.007,-0.024,-0.04,-0.8932794591718569,-6.370225595443022,-6.8337845137867355
1621785919483.573,0.007,-0.033,-0.035,-0.8994739444774812,-6.351951863791431,-6.827899752746393
1621785919488.401,0.014,-0.03,-0.038,-0.9056631091358643,-6.3336938280492,-6.822020046320929
1621785919493.227,0.012,-0.031,-0.04,-0.9118500829395011,-6.315442255328472,-6.8161424212074735
1621785919493.344,0.011927258921791951,-0.03126671728676284,-0.04,-0.912,-6.315,-6.816
1621785919498.05,0.009,-0.042,-0.04,-0.8941694808961635,-6.297471693084364,-6.821742031575812
1621785919502.869,0.005,-0.033,-0.038,-0.8759116065409278,-6.2795232742266744,-6.827621686029192
1621785919507.687,0.005,-0.037,-0.047,-0.8576565072197921,-6.2615775833686085,-6.833500446827524
1621785919508.916,0.003723501369307232,-0.03597880109544579,-0.046489400547722895,-0.853,-6.257,-6.835
1621785919512.501,0.0,-0.033,-0.045,-0.8440030164016842,-6.257,-6.821389178658958
1621785919517.312,-0.009,-0.031,-0.044,-0.8319290202978696,-6.257,-6.803123389681392
1621785919522.121,-0.017,-0.037,-0.038,-0.8198599258467919,-6.257,-6.784865016024634
1621785919524.456,-0.01894380366851278,-0.03845785275138458,-0.03994380366851278,-0.814,-6.257,-6.776
1621785919526.926,-0.021,-0.04,-0.042,-0.814,-6.260026133089844,-6.788582342847247
1621785919531.728,-0.024,-0.035,-0.042,-0.814,-6.265909400040931,-6.813044347538609
1621785919536.528,-0.03,-0.038,-0.042,-0.814,-6.271790274082587,-6.83749640276444
1621785919539.964,-0.02856709427815109,-0.03728354713907554,-0.04056709427815109,-0.814,-6.276,-6.855
1621785919541.324,-0.028,-0.037,-0.04,-0.814,-6.274330915055358,-6.866156515156295
1621785919546.118,-0.028,-0.044,-0.042,-0.814,-6.268446866227171,-6.9054867362710155
1621785919550.909,-0.026,-0.042,-0.042,-0.814,-6.262566413273191,-6.944792921805508
1621785919555.444,-0.02315847440342647,-0.03158107281256374,-0.042,-0.814,-6.257,-6.982
1621785919555.697,-0.023,-0.031,-0.042,-0.8146385460292374,-6.257638546029237,-6.983932011062821
1621785919560.482,-0.016,-0.044,-0.038,-0.8267185302252074,-6.269718530225207,-7.020481706835243
1621785919565.264,-0.005,-0.042,-0.042,-0.8387911181351244,-6.281791118135125,-7.057009024101146
1621785919570.043,0.003,-0.04,-0.044,-0.8508563097589885,-6.293856309758989,-7.093513962860529
1621785919570.892,0.004244492153555181,-0.04088892296682513,-0.04417778459336502,-0.853,-6.296,-7.1
1621785919574.819,0.01,-0.045,-0.045,-0.853,-6.296,-7.1
1621785919579.594,0.024,-0.047,-0.042,-0.853,-6.296,-7.1
1621785919584.364,0.033,-0.052,-0.052,-0.853,-6.296,-7.1
1621785919586.31,0.03504070660522274,-0.05077557603686636,-0.052,-0.853,-6.296,-7.1
1621785919589.132,0.038,-0.049,-0.052,-0.8458472669575565,-6.281511130503769,-7.089179198730662
1621785919593.896,0.044,-0.051,-0.056,-0.8337725823086076,-6.257052153907179,-7.070912368107893
1621785919598.658,0.044,-0.049,-0.054,-0.8217028480761602,-6.23260320507735,-7.052653026576755
1621785919601.697,0.04272282357769456,-0.057940234956138106,-0.05655435284461089,-0.814,-6.217,-7.041
1621785919603.417,0.042,-0.063,-0.058,-0.814,-6.219240134821456,-7.024535009062292
1621785919608.173,0.042,-0.058,-0.063,-0.814,-6.225434608413622,-6.979005628159878
1621785919612.926,0.037,-0.056,-0.056,-0.814,-6.23162494832904,-6.933506629781551
1621785919617.053,0.03352538540596095,-0.06381788283658787,-0.056,-0.814,-6.237,-6.894
1621785919617.677,0.033,-0.065,-0.056,-0.8148143888101193,-6.237814388810119,-6.890823883640535
1621785919622.424,0.03,-0.061,-0.054,-0.8210096063468799,-6.2440096063468795,-6.866662535247168
1621785919627.168,0.024,-0.059,-0.054,-0.8272006818435265,-6.250200681843526,-6.842517340810247
1621785919631.909,0.019,-0.054,-0.051,-0.8333879339185292,-6.256387933918529,-6.818387057717736
1621785919632.378,0.018307248467363865,-0.054,-0.05129689351398691,-0.834,-6.257,-6.816
1621785919636.648,0.012,-0.054,-0.054,-0.8393043145141981,-6.23494521859886,-6.8377756069530236
1621785919641.384,0.012,-0.063,-0.051,-0.845187584797842,-6.210483200051078,-6.861927979696404
1621785919646.117,0.005,-0.066,-0.056,-0.8510669124806461,-6.186037574422577,-6.88606416702581
1621785919647.673,0.005,-0.06665799525136781,-0.056,-0.853,-6.178,-6.894
1621785919650.847,0.005,-0.068,-0.056,-0.853,-6.186108237777671,-6.889841929344784
1621785919655.573,-0.005,-0.066,-0.058,-0.853,-6.198182027539222,-6.883650242287579
1621785919660.298,-0.01,-0.075,-0.058,-0.853,-6.210253322458379,-6.877459834636729
1621785919662.939,-0.011118787816103842,-0.07611878781610384,-0.058,-0.853,-6.217,-6.874
1621785919665.019,-0.012,-0.077,-0.058,-0.853,-6.233109731280145,-6.876730462928838
1621785919669.737,-0.017,-0.068,-0.058,-0.853,-6.269649702757703,-6.882923678433509
1621785919674.453,-0.017,-0.077,-0.059,-0.853,-6.306172656913487,-6.889114009646354
1621785919678.175,-0.014630278223926221,-0.07147064918916118,-0.05821009274130874,-0.853,-6.335,-6.894
1621785919679.165,-0.014,-0.07,-0.058,-0.8543020164397637,-6.338840948497303,-6.896538932057539
1621785919683.874,-0.012,-0.07,-0.058,-0.8604951836629848,-6.357110791805805,-6.908615608142821
1621785919688.582,-0.007,-0.073,-0.059,-0.8666870665296686,-6.375376846262522,-6.920689779732854
1621785919693.285,0.0,-0.075,-0.059,-0.8728722065245312,-6.393623009247367,-6.932750802722835
1621785919693.382,0.0,-0.075,-0.059,-0.873,-6.394,-6.933
1621785919697.986,0.0,-0.075,-0.059,-0.873,-6.382166720298623,-6.933
1621785919702.684,0.003,-0.08,-0.068,-0.873,-6.370091855451152,-6.933
1621785919707.379,0.012,-0.077,-0.065,-0.873,-6.358025148024199,-6.933
1621785919708.556,0.012,-0.07750169103491336,-0.06675591862219679,-0.873,-6.355,-6.933
1621785919712.071,0.012,-0.079,-0.072,-0.8593053038852169,-6.341305303885218,-6.919305303885217
1621785919716.761,0.005,-0.084,-0.072,-0.8410336611317104,-6.323033661131711,-6.90103366113171
1621785919721.447,0.01,-0.084,-0.068,-0.8227772368208931,-6.304777236820893,-6.882777236820893
1621785919723.7,0.006632292372660446,-0.08832990980657943,-0.06896220217923987,-0.814,-6.296,-6.874
1621785919726.13,0.003,-0.093,-0.07,-0.8093375708724376,-6.286514368326684,-6.858244205017203
1621785919730.811,-0.003,-0.084,-0.065,-0.8003556140662607,-6.268240732065841,-6.8278913854652945
1621785919735.488,-0.012,-0.08,-0.065,-0.7913816208183243,-6.249983297526936,-6.79756547724813
1621785919738.814,-0.015557104809650635,-0.08284568384772051,-0.065,-0.785,-6.237,-6.776
1621785919740.163,-0.017,-0.084,-0.065,-0.7797233443387066,-6.2387886968343365,-6.77430073800738
1621785919744.835,-0.021,-0.077,-0.058,-0.7614507995079951,-6.244982779827798,-6.7684163591635915
1621785919749.504,-0.037,-0.079,-0.056,-0.7431897132129216,-6.251172978571891,-6.762535670356703
1621785919753.899,-0.043594829390831064,-0.07523152606238225,-0.05411576303119112,-0.726,-6.257,-6.757
1621785919754.169,-0.044,-0.075,-0.054,-0.7256412934193883,-6.257699477832192,-6.759098433496578
1621785919758.833,-0.049,-0.061,-0.051,-0.7194453345441572,-6.269781597638893,-6.79534479291668
1621785919763.493,-0.051,-0.063,-0.049,-0.7132548892420458,-6.28185296597801,-6.831558897934031
1621785919768.15,-0.049,-0.059,-0.037,-0.7070683358739013,-6.293916745045893,-6.8677502351376765
1621785919768.954,-0.05020931452247338,-0.0584817223475114,-0.037863796087480986,-0.706,-6.296,-6.874
1621785919772.805,-0.056,-0.056,-0.042,-0.706,-6.300870266844346,-6.896813355218253
1621785919777.456,-0.052,-0.054,-0.037,-0.706,-6.306752689569994,-6.924367861669971
1621785919782.105,-0.054,-0.052,-0.037,-0.706,-6.312632333344168,-6.951909350927942
1621785919783.977,-0.054,-0.05361177088807147,-0.03417940094587493,-0.706,-6.315,-6.963
1621785919786.751,-0.054,-0.056,-0.03,-0.7132160828570032,-6.325916638168287,-6.963
1621785919791.394,-0.051,-0.054,-0.026,-0.7252945429674141,-6.344189180386601,-6.963
1621785919796.033,-0.049,-0.044,-0.024,-0.7373622062631296,-6.36244538896217,-6.963
1621785919798.969,-0.042036479444122754,-0.03830257409064589,-0.025266094646523136,-0.745,-6.374,-6.963
1621785919800.671,-0.038,-0.035,-0.026,-0.74727498205078,-6.374,-6.95958752692383
1621785919805.304,-0.033,-0.037,-0.024,-0.7534681156582469,-6.374,-6.95029782651263
1621785919809.935,-0.026,-0.031,-0.023,-0.7596586384700738,-6.374,-6.941012042294889
1621785919813.931,-0.02341028481012658,-0.03272647679324894,-0.021273523206751056,-0.765,-6.374,-6.933
1621785919814.564,-0.023,-0.033,-0.021,-0.7658479121022858,-6.371498659298257,-6.933
1621785919819.189,-0.023,-0.03,-0.019,-0.7720426081553906,-6.353224305941597,-6.933
1621785919823.811,-0.021,-0.028,-0.017,-0.7782333802033943,-6.334961528399987,-6.933
1621785919828.432,-0.017,-0.028,-0.014,-0.7844225172492725,-6.316703574114647,-6.933
1621785919828.863,-0.0171867992384176,-0.0278132007615824,-0.014,-0.785,-6.315,-6.933
1621785919833.048,-0.019,-0.026,-0.014,-0.7987612307087388,-6.309664012582326,-6.916430354860906
1621785919837.662,-0.021,-0.026,-0.01,-0.8139329434123005,-6.303781103574822,-6.898162374258658
1621785919842.273,-0.024,-0.024,-0.003,-0.829094219994102,-6.297902241226777,-6.879906959598938
1621785919843.765,-0.024647694753577108,-0.024647694753577108,-0.004295389507154213,-0.834,-6.296,-6.874
1621785919846.88,-0.026,-0.026,-0.007,-0.8379795948519272,-6.299979594851927,-6.870020405148073
1621785919851.485,-0.03,-0.019,-0.003,-0.8438630573248407,-6.305863057324841,-6.8641369426751595
1621785919856.088,-0.033,-0.017,0.0,-0.8497434007485718,-6.311743400748572,-6.858256599251429
1621785919858.637,-0.03410850408748275,-0.018108504087482748,0.0011085040874827478,-0.853,-6.315,-6.855
1621785919860.687,-0.035,-0.019,0.002,-0.8557623073506916,-6.320524614701384,-6.860386499333849
1621785919865.284,-0.033,-0.017,0.007,-0.8619563629784365,-6.332912725956874,-6.872464907807951
1621785919869.877,-0.035,-0.014,0.005,-0.8681451551885784,-6.345290310377157,-6.884533052617728
1621785919873.48,-0.029505292271687678,-0.010860167012392959,0.005,-0.873,-6.355,-6.894
1621785919874.467,-0.028,-0.01,0.005,-0.8755989286302951,-6.353667216087029,-6.897931712543267
1621785919879.055,-0.024,-0.005,0.007,-0.8876788363276743,-6.347472391626834,-6.9162064447008404
1621785919883.64,-0.019,-0.014,0.005,-0.8997510301631779,-6.341281522993242,-6.934469507169936
1621785919888.221,-0.012,-0.014,0.007,-0.9118129388495138,-6.335095928795121,-6.952717010054393
1621785919888.292,-0.011968976545842218,-0.013937953091684436,0.006968976545842218,-0.912,-6.335,-6.953
1621785919892.801,-0.01,-0.01,0.005,-0.9238971805163273,-6.3231028194836725,-6.928900583056671
1621785919897.377,-0.007,-0.012,0.007,-0.9359708636836629,-6.311029136316337,-6.904443635102324
1621785919901.949,-0.009,-0.016,0.007,-0.948034240126852,-6.298965759873148,-6.880007564871248
1621785919903.073,-0.008508198472467018,-0.017229503818832453,0.006508198472467019,-0.951,-6.296,-6.874
1621785919906.52,-0.007,-0.021,0.005,-0.9601135551142006,-6.282212826878517,-6.846659334657398
1621785919911.087,-0.012,-0.019,0.005,-0.9721879344587885,-6.263946458126449,-6.810436196623634
1621785919915.651,-0.021,-0.012,0.01,-0.9842545680238332,-6.24569180734856,-6.7742362959285005
1621785919917.824,-0.02338172963716151,-0.011047308145135395,0.01,-0.99,-6.237,-6.757
1621785919920.213,-0.026,-0.01,0.01,-0.9932453856486625,-6.230671497985108,-6.750671497985108
1621785919924.772,-0.031,-0.012,0.017,-0.9994389811114244,-6.2185939868327225,-6.738593986832722
1621785919929.327,-0.042,-0.016,0.017,-1.0056269381933964,-6.206527470522877,-6.726527470522877
1621785919932.546,-0.0504841010241836,-0.01105094106922623,0.0212420505120918,-1.01,-6.198,-6.718
1621785919933.88,-0.054,-0.009,0.023,-1.015357307852098,-6.198,-6.7197252347320315
1621785919938.43,-0.059,-0.003,0.021,-1.033630394682177,-6.198,-6.725609788117989
1621785919942.977,-0.068,0.005,0.023,-1.0518917158288326,-6.198,-6.731490552555048
1621785919947.237,-0.06987502686438857,0.003124973135611433,0.02581254029658285,-1.069,-6.198,-6.737
1621785919947.521,-0.07,0.003,0.026,-1.06975530798821,-6.198,-6.73775530798821
1621785919952.062,-0.072,0.0,0.017,-1.0818350402158166,-6.198,-6.7498350402158165
1621785919956.601,-0.079,-0.003,0.024,-1.0939095768596694,-6.198,-6.7619095768596695
1621785919961.136,-0.08,0.005,0.021,-1.1059730728880452,-6.198,-6.773973072888045
1621785919961.898,-0.08117691105963476,0.005336260302752788,0.021,-1.108,-6.198,-6.776
1621785919965.668,-0.087,0.007,0.021,-1.1031031777822284,-6.208051371920689,-6.781154549702918
1621785919970.198,-0.087,0.012,0.026,-1.097219190199613,-6.220129030642901,-6.787348220842513
1621785919974.725,-0.087,0.019,0.028,-1.0913390079444556,-6.232198878429802,-6.793537886374257
1621785919976.526,-0.089388858901004,0.01621299794882867,0.027203713699665334,-1.089,-6.237,-6.796
1621785919979.248,-0.093,0.012,0.026,-1.085270778286899,-6.229728017659454,-6.803271982340546
1621785919983.769,-0.098,0.017,0.03,-1.0790772601090337,-6.217650657212616,-6.815349342787385
1621785919988.287,-0.101,0.023,0.03,-1.0728877554433258,-6.205581123114486,-6.827418876885514
1621785919991.125,-0.10225712431730925,0.02928562158654626,0.03314281079327313,-1.069,-6.198,-6.835
1621785919992.802,-0.103,0.033,0.035,-1.0757913028906576,-6.198,-6.837302136573104
1621785919997.314,-0.101,0.031,0.035,-1.0940632593213238,-6.198,-6.843496020108923
1621785920001.824,-0.112,0.056,0.037,-1.1123273062421448,-6.198,-6.849687222454965
1621785920005.694,-0.11457658341008832,0.04655252749634285,0.037,-1.128,-6.198,-6.855
1621785920006.33,-0.115,0.045,0.037,-1.128,-6.200581243806997,-6.855
1621785920010.834,-0.115,0.042,0.037,-1.128,-6.218861008011017,-6.855
1621785920015.334,-0.113,0.049,0.04,-1.128,-6.237124918126396,-6.855
1621785920019.832,-0.106,0.049,0.04,-1.128,-6.255380901197453,-6.855
1621785920020.231,-0.10591122942358885,0.049,0.03973368827076656,-1.128,-6.257,-6.855
1621785920024.326,-0.105,0.049,0.037,-1.1390072018711404,-6.257,-6.866007201871141
1621785920028.818,-0.108,0.056,0.037,-1.1510821147924415,-6.257,-6.878082114792441
1621785920033.307,-0.106,0.056,0.037,-1.163147840279998,-6.257,-6.890147840279998
1621785920034.74,-0.10280544217687075,0.056,0.037,-1.167,-6.257,-6.894
1621785920037.793,-0.096,0.056,0.037,-1.1752233669443226,-6.252782888746501,-6.881559521802179
1621785920042.276,-0.098,0.054,0.038,-1.187298334064007,-6.246590597915894,-6.8632922638518865
1621785920046.756,-0.098,0.056,0.037,-1.1993660675142481,-6.24040201665936,-6.845035949145112
1621785920049.219,-0.098,0.056,0.03479990185922251,-1.206,-6.237,-6.835
1621785920051.234,-0.098,0.056,0.033,-1.2033502931783233,-6.237,-6.826771963027425
1621785920055.708,-0.098,0.058,0.038,-1.1974665506345157,-6.237,-6.808501394075601
1621785920060.179,-0.103,0.063,0.038,-1.1915869818685683,-6.237,-6.790243785802396
1621785920063.667,-0.10534149139579349,0.057536520076481835,0.042682982791587,-1.187,-6.237,-6.776
1621785920064.648,-0.106,0.056,0.044,-1.1882927052289354,-6.2356392576537525,-6.777360742346247
1621785920069.114,-0.108,0.068,0.042,-1.194178085207261,-6.229444120834462,-6.7835558791655375
1621785920073.576,-0.108,0.068,0.044,-1.2000579958005961,-6.22325474126253,-6.78974525873747
1621785920078.037,-0.113,0.061,0.042,-1.2059369412083445,-6.217066377675426,-6.795933622324574
1621785920078.085,-0.11298926321555738,0.06102147356888524,0.04203221035332786,-1.206,-6.217,-6.796
1621785920082.494,-0.112,0.063,0.045,-1.212128134649971,-6.223128134649971,-6.807949862567444
1621785920086.948,-0.115,0.077,0.042,-1.2183190471342766,-6.229319047134276,-6.820022141911839
1621785920091.399,-0.11,0.063,0.04,-1.2245055482031966,-6.2355055482031965,-6.832085818996234
1621785920092.474,-0.1107251770130084,0.0651755310390252,0.0404834513420056,-1.226,-6.237,-6.835
1621785920095.847,-0.113,0.072,0.042,-1.216837924701561,-6.241698500153046,-6.835
1621785920100.292,-0.11,0.068,0.042,-1.204763085399449,-6.2478907254361795,-6.835
1621785920104.735,-0.112,0.075,0.038,-1.1926935516784003,-6.254080229908513,-6.835
1621785920106.831,-0.11105586715055538,0.07688826569888925,0.0413044649730562,-1.187,-6.257,-6.835
1621785920109.175,-0.11,0.079,0.045,-1.1933802716104078,-6.247347794230409,-6.828619728389592
1621785920113.611,-0.113,0.082,0.037,-1.2054550070714127,-6.229080886738119,-6.816544992928588
1621785920118.045,-0.115,0.077,0.044,-1.2175237616507915,-6.210823027246239,-6.804476238349209
1621785920121.159,-0.11359449035812673,0.07910826446280991,0.041188980716253445,-1.226,-6.198,-6.796
1621785920122.476,-0.113,0.08,0.04,-1.2269211986681465,-6.196157602663708,-6.796
1621785920126.904,-0.122,0.087,0.035,-1.2300180995475114,-6.1899638009049776,-6.796
1621785920131.329,-0.131,0.082,0.035,-1.2331129514214976,-6.183774097157005,-6.796
1621785920135.457,-0.133800574204947,0.08013295053003534,0.033132950530035336,-1.236,-6.178,-6.796
1621785920135.751,-0.134,0.08,0.033,-1.2357939696772648,-6.179627639549608,-6.796
1621785920140.171,-0.138,0.079,0.033,-1.2326959854888941,-6.204101714637735,-6.796
1621785920144.587,-0.136,0.084,0.028,-1.229600739245012,-6.228554159964406,-6.796
1621785920149.0,-0.136,0.082,0.028,-1.2265075464594954,-6.252990382969985,-6.796
1621785920149.724,-0.13517916643604364,0.08232833342558256,0.027671666574417445,-1.226,-6.257,-6.796
1621785920153.411,-0.131,0.084,0.026,-1.2285894235056072,-6.251821152988786,-6.806098751671868
1621785920157.818,-0.131,0.08,0.028,-1.2316848657361363,-6.245630268527727,-6.818170976370932
1621785920162.223,-0.129,0.075,0.021,-1.2347785932302204,-6.239442813539559,-6.83023651359786
1621785920163.962,-0.12781487438300704,0.0777652931063169,0.01941983251067606,-1.236,-6.237,-6.835
1621785920166.625,-0.126,0.082,0.017,-1.2395617653124356,-6.2259397813982265,-6.831438234687564
1621785920171.024,-0.131,0.077,0.023,-1.2454451433285212,-6.207670344400907,-6.825554856671479
1621785920175.419,-0.131,0.082,0.021,-1.2513232968997043,-6.189417130679865,-6.819676703100296
1621785920178.168,-0.1328768752083565,0.07574374930547838,0.01662062451383487,-1.255,-6.178,-6.816
1621785920179.813,-0.134,0.072,0.014,-1.2527954987687908,-6.173474971156992,-6.813679472388201
1621785920184.203,-0.141,0.077,0.01,-1.246912575551461,-6.161399497184578,-6.807486921633117
1621785920188.59,-0.147,0.08,0.005,-1.2410332512527336,-6.149331410466138,-6.801298159213404
1621785920192.346,-0.14785652246534156,0.06800868548521798,0.005,-1.236,-6.139,-6.796
1621785920192.975,-0.148,0.066,0.005,-1.2377346646415133,-6.139889571611032,-6.7968895716110325
1621785920197.356,-0.155,0.068,0.002,-1.2498133694639098,-6.146083779212262,-6.803083779212262
1621785920201.734,-0.162,0.07,-0.003,-1.2618839966861126,-6.152273844454417,-6.809273844454417
1621785920206.111,-0.168,0.07,-0.01,-1.2739526045082674,-6.158462874106804,-6.815462874106804
1621785920206.491,-0.16869514714915956,0.06956553303177529,-0.010173786787289887,-1.275,-6.159,-6.816
1621785920210.483,-0.176,0.065,-0.012,-1.280373129939985,-6.170029056192601,-6.843714038637818
1621785920214.854,-0.18,0.065,-0.019,-1.2862565938532315,-6.1821056400145284,-6.874060326190352
1621785920219.22,-0.182,0.068,-0.024,-1.2921331569207355,-6.194168058942562,-6.904371019906951
1621785920220.607,-0.182,0.06355054545454546,-0.027496000000000003,-1.294,-6.198,-6.914
1621785920223.584,-0.182,0.054,-0.035,-1.2754015980033624,-6.198,-6.945067785153474
1621785920227.945,-0.182,0.051,-0.044,-1.2481567845815207,-6.198,-6.99057900757405
1621785920232.304,-0.178,0.042,-0.054,-1.2209256980432257,-6.198,-7.036067299859611
1621785920234.693,-0.17690279179280188,0.044743020517995294,-0.05619441641439624,-1.206,-6.198,-7.061
1621785920236.659,-0.176,0.047,-0.058,-1.1977478504056003,-6.208909621497681,-7.049950511560041
1621785920241.012,-0.173,0.042,-0.072,-1.1794746478139275,-6.233067414754469,-7.02548300300509
1621785920245.361,-0.169,0.035,-0.073,-1.1612178429363025,-6.25720352967743,-7.001037450711321
1621785920248.748,-0.16822083684358327,0.027987531592249367,-0.07845414209491716,-1.147,-6.276,-6.982
1621785920249.708,-0.168,0.026,-0.08,-1.1430298039761846,-6.271961352320601,-6.994115943038195
1621785920254.052,-0.155,0.021,-0.089,-1.1250639601685177,-6.253685752585216,-7.048942742244351
1621785920258.392,-0.15,0.023,-0.099,-1.107114271787194,-6.235426586818007,-7.103720239545977
1621785920262.73,-0.145,0.024,-0.108,-1.0891736708331883,-6.217176665157898,-7.158470004526305
1621785920262.772,-0.14496125253435457,0.023970939400765938,-0.1081065555305249,-1.089,-6.217,-7.159
1621785920267.065,-0.141,0.021,-0.119,-1.040843985487022,-6.199209879988836,-7.189059168294725
1621785920271.397,-0.136,0.026,-0.122,-0.9922497906782026,-6.181257884454368,-7.219391850404689
1621785920275.726,-0.134,0.021,-0.138,-0.9436884593915713,-6.163318029584147,-7.249704018978509
1621785920276.768,-0.13038774473847542,0.021,-0.1387224510523049,-0.932,-6.159,-7.257
1621785920280.053,-0.119,0.021,-0.141,-0.8466184707363121,-6.182050660792951,-7.261704216488357
1621785920284.376,-0.112,0.038,-0.145,-0.7342549821690791,-6.212385707293196,-7.267895042304734
1621785920288.698,-0.096,0.042,-0.145,-0.6219168764422068,-6.2427139011257955,-7.2740844696175095
1621785920290.734,-0.09132514855925553,0.045272396008521135,-0.1431300594237022,-0.569,-6.257,-7.277
1621785920293.053,-0.086,0.049,-0.141,-0.5272323037521599,-6.251137867193285,-7.2481289959269315
1621785920298.049,-0.086,0.058,-0.131,-0.43725081769933344,-6.2385088866946425,-7.185931266971118
1621785920303.045,-0.072,0.077,-0.126,-0.34727372870896067,-6.225880523327573,-7.123736577388299
1621785920306.558,-0.06215731874145007,0.08543658393589994,-0.11967256204807505,-0.284,-6.217,-7.08
1621785920308.042,-0.058,0.089,-0.117,-0.2515494350923363,-6.199901402059984,-7.061062843141704
1621785920313.038,-0.052,0.108,-0.11,-0.14229172527489148,-6.142332183855891,-6.997303386421041
1621785920318.034,-0.049,0.122,-0.099,-0.03303935447766837,-6.08476577884659,-6.933547045389234
1621785920322.7,-0.03779280688037529,0.13881078967943708,-0.08499100860046913,0.069,-6.031,-6.874
1621785920323.03,-0.037,0.14,-0.084,0.07640362448189272,-6.0277890357910024,-6.869193779687169
1621785920328.025,-0.037,0.145,-0.066,0.18843820530662875,-5.979199452394639,-6.79646414848879
1621785920333.021,-0.044,0.166,-0.047,0.3005001663994191,-5.930597994130638,-6.723716742807007
1621785920338.016,-0.045,0.19,-0.03,0.412540223277766,-5.882006035760748,-6.650983556711948
1621785920338.839,-0.04615337993059289,0.19263629698421234,-0.02703416589276113,0.431,-5.874,-6.639
1621785920343.011,-0.052,0.206,-0.012,0.4819240753346948,-5.8944213297027455,-6.590919400953029
1621785920348.007,-0.054,0.218,0.007,0.5429089932682853,-5.918877210498449,-6.5333397322441575
1621785920353.001,-0.07,0.237,0.026,0.6038670902352319,-5.943322335678088,-6.475785386884502
1621785920354.978,-0.07118762221353149,0.24135461478294876,0.03312573328118889,0.628,-5.953,-6.453
1621785920357.995,-0.073,0.248,0.044,0.6132286626420347,-6.024425960389149,-6.480485906223049
1621785920362.99,-0.086,0.253,0.051,0.5887743180064455,-6.142673550905542,-6.525989560165222
1621785920367.985,-0.099,0.258,0.058,0.5643187780854251,-6.260926921156552,-6.5714954382461075
1621785920371.114,-0.10589335484817368,0.26176001173536745,0.06426668622561245,0.549,-6.335,-6.6
1621785920372.978,-0.11,0.264,0.068,0.4822178689789804,-6.374630226540155,-6.655459209152403
1621785920377.973,-0.119,0.258,0.065,0.3032662489974426,-6.480824699989407,-6.8040695510055835
1621785920382.967,-0.131,0.255,0.058,0.12434086953889928,-6.5870036016404105,-6.952658101420983
1621785920387.247,-0.14299872891713516,0.2592852603275483,0.048572427279393794,-0.029,-6.678,-7.08
1621785920387.961,-0.145,0.26,0.047,-0.06329743310328127,-6.697560600556968,-7.099560600556968
1621785920392.954,-0.152,0.271,0.031,-0.30319179077370145,-6.8343777697057755,-7.236377769705776
1621785920397.947,-0.15,0.269,0.003,-0.5430744188158373,-6.97118824918271,-7.37318824918271
1621785920402.941,-0.134,0.274,-0.019,-0.7830039653711103,-7.1080254873471365,-7.510025487347137
1621785920403.378,-0.13154938392333268,0.2747876980246431,-0.022238314101310386,-0.804,-7.12,-7.522
1621785920407.934,-0.106,0.283,-0.056,-0.8731990676978494,-7.216878694776989,-7.618878694776989
1621785920412.926,-0.066,0.269,-0.084,-0.9490169509481936,-7.3230237313274715,-7.725023731327472
1621785920417.92,-0.012,0.264,-0.11,-1.0248644983578767,-7.429210297701028,-7.831210297701028
1621785920419.509,0.0051892605633802845,0.25890688575899845,-0.12177782668231611,-1.049,-7.463,-7.865
1621785920422.912,0.042,0.248,-0.147,-1.073895592419931,-7.41953820306351,-7.82153820306351
1621785920427.904,0.098,0.236,-0.178,-1.1104147242235272,-7.35578446449113,-7.75778446449113
1621785920432.897,0.136,0.22,-0.215,-1.1469410001816311,-7.292018253920203,-7.694018253920203
1621785920435.639,0.1541260331588986,0.20462033550154057,-0.23092893823054728,-1.167,-7.257,-7.659
1621785920437.889,0.169,0.192,-0.244,-1.1561184208534536,-7.200918015167799,-7.570133770303205
1621785920442.881,0.188,0.175,-0.276,-1.131974917122054,-7.076486111321355,-7.37296182316344
1621785920447.873,0.204,0.154,-0.309,-1.107832594117558,-6.952060292759723,-7.175799518626724
1621785920451.767,0.20243956366482416,0.13293410947512596,-0.3277252360221103,-1.089,-6.855,-7.022
1621785920452.864,0.202,0.127,-0.333,-1.0769608059828024,-6.8350026946833,-6.988603139760204
1621785920457.856,0.209,0.105,-0.36,-1.022172156957733,-6.743997820031488,-6.83661880828388
1621785920462.847,0.194,0.084,-0.372,-0.9673942261111784,-6.653010748455856,-6.6846642091558675
1621785920467.838,0.175,0.07,-0.391,-0.912616295264624,-6.562023676880223,-6.5327096100278546
1621785920467.894,0.17458382237871672,0.06979753521126761,-0.3911912167449139,-0.912,-6.561,-6.531
1621785920472.83,0.138,0.052,-0.408,-0.8670044510385757,-6.497945013020045,-6.495187216132743
1621785920477.821,0.105,0.035,-0.415,-0.8215081602373887,-6.434188306183008,-6.4589758826379216
1621785920482.811,0.077,0.019,-0.429,-0.7760207715133531,-6.370444074365651,-6.422771634469811
1621785920484.02,0.07070190285183192,0.016093185931614733,-0.4333602211025779,-0.765,-6.355,-6.414
1621785920487.802,0.051,0.007,-0.447,-0.7143390261627908,-6.3273240976259695,-6.443786776283915
1621785920492.792,0.021,-0.005,-0.457,-0.6474963662790698,-6.290808200096899,-6.483087784641473
1621785920497.782,-0.007,-0.017,-0.464,-0.5806537063953489,-6.25429230256783,-6.522388792999031
1621785920500.145,-0.015995793181039965,-0.030256958372058898,-0.46826116519101896,-0.549,-6.237,-6.541
1621785920502.773,-0.026,-0.045,-0.473,-0.4707543009449964,-6.237,-6.569853101526533
1621785920507.762,-0.037,-0.059,-0.482,-0.32220814150714805,-6.237,-6.62462949781924
1621785920512.752,-0.044,-0.066,-0.487,-0.1736329052580567,-6.237,-6.679416616186091
1621785920516.266,-0.039070306766475854,-0.07726787024805519,-0.4855915162189931,-0.069,-6.237,-6.718
1621785920517.742,-0.037,-0.082,-0.485,-0.017821618428824584,-6.235168930891908,-6.723310100413467
1621785920522.731,-0.033,-0.091,-0.483,0.1551858633589289,-6.228979038878035,-6.741260787253699
1621785920527.72,-0.031,-0.105,-0.478,0.32819334514668236,-6.222789146864161,-6.759211474093931
1621785920532.386,-0.031,-0.1078052253045648,-0.4714544742893488,0.49,-6.217,-6.776
1621785920532.71,-0.031,-0.108,-0.471,0.5020393347772746,-6.218185844326976,-6.774432273601623
1621785920537.698,-0.042,-0.103,-0.456,0.6874015418869182,-6.236443557548127,-6.75029495781773
1621785920542.688,-0.058,-0.105,-0.44,0.8728363297638702,-6.254708419793102,-6.726148190782
1621785920547.676,-0.079,-0.096,-0.415,1.0581985368735136,-6.272966133014252,-6.702010874998107
1621785920548.505,-0.08265500367017373,-0.0951693173476878,-0.4133386346953756,1.089,-6.276,-6.698
1621785920552.665,-0.101,-0.091,-0.405,1.2028305865244788,-6.311620455647116,-6.748591371788658
1621785920557.654,-0.119,-0.07,-0.38,1.3393404477702375,-6.354337827193407,-6.8092624212312165
1621785920562.641,-0.129,-0.075,-0.358,1.4757968674260786,-6.397038475521086,-6.869909718856035
1621785920564.622,-0.13257444933920706,-0.06665961820851689,-0.3496596182085169,1.53,-6.414,-6.894
1621785920567.629,-0.138,-0.054,-0.337,1.5501525385209762,-6.452252503674075,-6.946993712407012
1621785920572.618,-0.136,-0.044,-0.309,1.5835901095404754,-6.5157219671833095,-7.034922139902732
1621785920577.605,-0.145,-0.021,-0.291,1.6170145902458979,-6.579166583337121,-7.122816144720694
1621785920580.736,-0.14688353649581434,-0.016605081509766487,-0.2759317080334851,1.638,-6.619,-7.178
1621785920582.592,-0.148,-0.014,-0.267,1.6164590417310665,-6.637085189562687,-7.2040334575870535
1621785920587.58,-0.14,-0.003,-0.241,1.5585659453889746,-6.685690623390005,-7.274000515198352
1621785920592.567,-0.131,0.002,-0.225,1.5006870170015456,-6.7342841621965635,-7.3439504500409125
1621785920596.848,-0.11468996915846674,0.012301072110442063,-0.21727419591716846,1.451,-6.776,-7.404
1621785920597.554,-0.112,0.014,-0.216,1.4342591717052326,-6.76999609037596,-7.406585625312543
1621785920602.542,-0.091,0.005,-0.202,1.315990892697489,-6.727580503401979,-7.424852191965571
1621785920607.528,-0.063,0.012,-0.195,1.1977689230349593,-6.685181524753376,-7.443111606128109
1621785920612.514,-0.049,0.017,-0.194,1.0795527420405813,-6.642784622145444,-7.461370126229334
1621785920612.959,-0.046501150438145594,0.017356978508836347,-0.19239359671023645,1.069,-6.639,-7.463
1621785920617.501,-0.021,0.021,-0.176,1.0303749981056876,-6.558930653007411,-7.3826487186870144
1621785920622.487,-0.007,0.021,-0.176,0.9879734493157744,-6.471032551866277,-7.294441117189749
1621785920627.474,0.0,0.037,-0.161,0.9455635958597906,-6.383117235212997,-7.206216239562338
1621785920629.069,0.0,0.037,-0.15876069924591127,0.932,-6.355,-7.178
1621785920632.46,0.0,0.037,-0.154,0.9235796174482404,-6.307424838582558,-7.1017955379065745
1621785920637.445,-0.009,0.038,-0.138,0.9112003395071084,-6.237481918215162,-6.989763072539331
1621785920642.431,-0.023,0.044,-0.122,0.8988192427778957,-6.16752872169511,-6.877714147139955
1621785920645.177,-0.03621803848602066,0.04565225481075258,-0.11043421632473192,0.892,-6.129,-6.816
1621785920647.417,-0.047,0.047,-0.101,0.8811518872214643,-6.1235759436107315,-6.794164696073973
1621785920652.402,-0.073,0.052,-0.094,0.8570093678944974,-6.111504683947248,-6.745570137941488
1621785920657.387,-0.099,0.051,-0.075,0.8328680309231469,-6.099434015461573,-6.696977959678642
1621785920661.283,-0.11541206719232087,0.05334458102747441,-0.06405862187178608,0.814,-6.09,-6.659
1621785920662.372,-0.12,0.054,-0.061,0.7987147275538978,-6.099942190484854,-6.666913172018557
1621785920667.357,-0.143,0.058,-0.049,0.72875402528882,-6.145447603020104,-6.703131765669062
1621785920672.342,-0.157,0.052,-0.037,0.6587898966008672,-6.1909552442463385,-6.739352133175657
1621785920677.326,-0.161,0.056,-0.031,0.5888429000272901,-6.236451742017648,-6.775563631401801
1621785920677.386,-0.16092770022042616,0.055891550330639236,-0.030939750183688466,0.588,-6.237,-6.776
1621785920682.31,-0.155,0.047,-0.026,0.5250005458680819,-6.260854162244125,-6.800159984836998
1621785920687.295,-0.155,0.037,-0.03,0.4612233206974981,-6.285002820318423,-6.824618241091736
1621785920692.279,-0.155,0.037,-0.028,0.39745546626232,-6.30914793025019,-6.849072903714936
1621785920693.487,-0.1564542960713236,0.03603046928578427,-0.0287271480356618,0.382,-6.315,-6.855
1621785920697.263,-0.161,0.033,-0.031,0.3775442235666955,-6.347363007778738,-6.864146067415731
1621785920702.247,-0.157,0.023,-0.031,0.3716626332469029,-6.390081926943548,-6.876218805440568
1621785920707.23,-0.157,0.012,-0.033,0.3657824834341688,-6.432790383478142,-6.888288586635127
1621785920709.588,-0.1579461670340436,0.009634582414891011,-0.033,0.363,-6.453,-6.894
1621785920712.214,-0.159,0.007,-0.033,0.36609924786946896,-6.4673544111849095,-6.8972623661783885
1621785920717.198,-0.155,0.0,-0.035,0.3719808176386741,-6.494595365905438,-6.903453492251236
1621785920722.18,-0.145,0.0,-0.038,0.37786008249173564,-6.521825645224881,-6.909642192096563
1621785920725.688,-0.14359230957629193,-0.011261523389664463,-0.04222307127112417,0.382,-6.541,-6.914
1621785920727.164,-0.143,-0.016,-0.044,0.3838337326741682,-6.531097843559492,-6.906756755937035
1621785920732.146,-0.134,-0.021,-0.049,0.3900228079221134,-6.497676837220588,-6.882309908707652
1621785920737.129,-0.126,-0.028,-0.052,0.39621309635740504,-6.464249279670013,-6.857858269388251
1621785920741.787,-0.126,-0.029869580128362157,-0.05854353044926755,0.402,-6.433,-6.835
1621785920742.112,-0.126,-0.03,-0.059,0.4041803455232144,-6.4322126530055055,-6.831043076643056
1621785920747.094,-0.129,-0.037,-0.059,0.4376079418768676,-6.420141576544465,-6.770378179556796
1621785920752.076,-0.134,-0.042,-0.07,0.4710355382305207,-6.408070500083423,-6.7097132824705366
1621785920757.058,-0.141,-0.037,-0.068,0.5044647727100365,-6.395998832076931,-6.649045412489193
1621785920757.883,-0.14249029697147897,-0.036668822895226896,-0.06866235420954621,0.51,-6.394,-6.639
1621785920762.04,-0.15,-0.035,-0.072,0.5252374979144231,-6.388834746469687,-6.595870133021887
1621785920767.022,-0.164,-0.037,-0.073,0.5434988699965114,-6.38264445084864,-6.544181164586146
1621785920772.004,-0.185,-0.04,-0.079,0.5617602420785996,-6.376454155227593,-6.492492196150405
1621785920773.979,-0.19253369602509435,-0.04079302063422046,-0.07939651031711023,0.569,-6.374,-6.472
1621785920776.985,-0.204,-0.042,-0.08,0.5873059605261162,-6.396041870837569,-6.472
1621785920781.967,-0.222,-0.04,-0.075,0.6176439310041416,-6.43257126386213,-6.472
1621785920786.947,-0.232,-0.038,-0.075,0.6479700077370026,-6.469086335846595,-6.472
1621785920790.072,-0.24329301048916774,-0.03486305264189785,-0.07374522105675914,0.667,-6.492,-6.472
1621785920791.928,-0.25,-0.033,-0.073,0.6691912101582294,-6.520255078356114,-6.48676183685544
1621785920796.909,-0.26,-0.033,-0.068,0.6750719086123459,-6.596085137369722,-6.526379173809488
1621785920801.89,-0.262,-0.038,-0.066,0.6809526070664624,-6.67191519638333,-6.565996510763536
1621785920806.165,-0.262,-0.04400897102799157,-0.06514157556742978,0.686,-6.737,-6.6
1621785920806.87,-0.262,-0.045,-0.065,0.6817055110463706,-6.745588977907259,-6.6077125515901916
1621785920811.851,-0.26,-0.054,-0.066,0.651367504248604,-6.8062649915027915,-6.662197135226997
1621785920816.831,-0.251,-0.054,-0.059,0.6210354454964797,-6.866929109007041,-6.716671036659383
1621785920821.811,-0.243,-0.059,-0.065,0.5907033867443554,-6.927593226511289,-6.771144938091769
1621785920822.255,-0.2420196097656633,-0.0596238846945779,-0.0650891263849397,0.588,-6.933,-6.776
1621785920826.791,-0.232,-0.066,-0.066,0.588,-6.969088071501191,-6.781638761172061
1621785920831.77,-0.225,-0.077,-0.068,0.588,-7.008699488626879,-6.7878280450979505
1621785920836.749,-0.215,-0.075,-0.068,0.588,-7.048310905752568,-6.794017329023839
1621785920838.344,-0.21051612903225805,-0.075,-0.06960138248847926,0.588,-7.061,-6.796
1621785920841.729,-0.201,-0.075,-0.073,0.5840017757406508,-7.0774137627489075,-6.76296204164643
1621785920846.708,-0.183,-0.084,-0.068,0.578120795896066,-7.101556732637203,-6.714366576614862
1621785920851.688,-0.168,-0.087,-0.068,0.5722386625789218,-7.1257044378339005,-6.665761580257406
1621785920854.43,-0.15533138793526238,-0.08920323688082393,-0.06634757233938206,0.569,-7.139,-6.639
1621785920856.666,-0.145,-0.091,-0.065,0.5580176522372654,-7.139,-6.59395847246676
1621785920861.645,-0.131,-0.105,-0.07,0.53356367251533,-7.139,-6.493666201202113
1621785920866.624,-0.12,-0.101,-0.066,0.5091096927933945,-7.139,-6.393373929937466
1621785920870.515,-0.10358621873467386,-0.10412643452672879,-0.066,0.49,-7.139,-6.315
1621785920871.602,-0.099,-0.105,-0.066,0.49270366266450116,-7.128388124041833,-6.286543950456126
1621785920876.58,-0.091,-0.117,-0.066,0.5050835597516735,-7.079797027974682,-6.156245533613637
1621785920881.559,-0.077,-0.12,-0.063,0.5174658854601478,-7.03119639956892,-6.025921555531944
1621785920886.536,-0.07,-0.127,-0.066,0.5298427467706927,-6.982617218925031,-5.895655090238461
1621785920886.599,-0.06994919077979403,-0.12705080922020598,-0.06591108386463954,0.53,-6.982,-5.894
1621785920891.514,-0.066,-0.131,-0.059,0.5177747582249078,-6.931265246633368,-5.723152246193086
1621785920896.492,-0.066,-0.143,-0.066,0.505392229796408,-6.879877753655093,-5.5501064114048
1621785920901.469,-0.075,-0.155,-0.058,0.4930121305054124,-6.828500341597461,-5.377094523813138
1621785920902.68,-0.07670312959874423,-0.1593794761110566,-0.058,0.49,-6.816,-5.335
1621785920906.446,-0.082,-0.173,-0.058,0.47618161666464226,-6.797497418923843,-5.2338213287987365
1621785920911.424,-0.089,-0.185,-0.052,0.4579165553261266,-6.773040811368881,-5.100083930523502
1621785920916.401,-0.094,-0.195,-0.049,0.43965597291388314,-6.748590201020284,-4.966379327098263
1621785920918.76,-0.094,-0.19926601589326007,-0.04236397527715099,0.431,-6.737,-4.903
1621785920921.378,-0.094,-0.204,-0.035,0.4135774656442184,-6.700363829625693,-4.867992103864551
1621785920926.354,-0.105,-0.216,-0.028,0.38046116467997876,-6.630726748158834,-4.8014500037962184
1621785920931.331,-0.106,-0.222,-0.019,0.34733836458886946,-6.561076000303697,-4.734894844734644
1621785920934.838,-0.1207966251348965,-0.22904601196899835,-0.016886196409300502,0.324,-6.512,-4.688
1621785920936.308,-0.127,-0.232,-0.016,0.302415770609319,-6.501207885304659,-4.669982655974728
1621785920941.283,-0.133,-0.239,-0.009,0.2293799283154122,-6.464689964157706,-4.609016296093797
1621785920946.26,-0.147,-0.227,-0.007,0.15631182795698925,-6.428155913978495,-4.5480230089301985
1621785920950.913,-0.1516754489255225,-0.23541580806594053,-0.00045437150426847275,0.088,-6.394,-4.491
1621785920951.236,-0.152,-0.236,0.0,0.0801220093876745,-6.3967532773313485,-4.486478194163843
1621785920956.211,-0.157,-0.243,0.002,-0.04121571903814314,-6.4391595752760855,-4.416832814327596
1621785920961.188,-0.152,-0.257,0.003,-0.16260703923683376,-6.481584602998587,-4.347156673907429
1621785920966.163,-0.14,-0.274,0.005,-0.2839507223040817,-6.523992982029743,-4.277507876228524
1621785920966.985,-0.1365293771167722,-0.2782969616649487,0.004173661218279095,-0.304,-6.531,-4.266
1621785920971.137,-0.119,-0.3,0.0,-0.4282482873851295,-6.538749373433584,-4.276074185463659
1621785920976.113,-0.089,-0.333,-0.007,-0.577162117414749,-6.548037138300296,-4.288148279790385
1621785920981.088,-0.054,-0.38,-0.019,-0.7260394167236273,-6.557322624743677,-4.30021941216678
1621785920983.058,-0.03340316089133209,-0.40020074604888584,-0.026525768135859426,-0.785,-6.561,-4.305
1621785920986.062,-0.002,-0.431,-0.038,-0.8601406435147206,-6.540812961443806,-4.29771023607693
1621785920991.038,0.054,-0.485,-0.063,-0.984613708868836,-6.507372436423298,-4.285634490930635
1621785920996.012,0.119,-0.536,-0.098,-1.1090318111384558,-6.473946677604594,-4.273564078023881
1621785920999.129,0.16912071842182747,-0.584241191481009,-0.11616876042791247,-1.187,-6.453,-4.266
1621785921000.987,0.199,-0.613,-0.127,-1.0463789257767986,-6.370200091164628,-4.303468115171314
1621785921005.96,0.272,-0.675,-0.159,-0.6700406442300388,-6.148606168806503,-4.403742459925549
1621785921010.934,0.342,-0.74,-0.199,-0.2936099825267797,-5.926957851553597,-4.504041419129377
1621785921015.197,0.37027761692103844,-0.7759896942631398,-0.24870005398243117,0.029,-5.737,-4.59
1621785921015.909,0.375,-0.782,-0.257,0.1776046130002735,-5.648785395204667,-4.8597833895523745
1621785921020.882,0.374,-0.766,-0.316,1.2156965083416902,-5.032553742364846,-6.744381347433677
1621785921025.855,0.419,-0.618,-0.264,2.2537374418816665,-4.416352341447109,-8.628886787005804
1621785921030.829,0.504,-0.393,-0.075,3.292033184428845,-3.799999680918954,-10.513854818123804
1621785921031.265,0.4887518287593893,-0.37415886886936034,-0.06430875349796258,3.383,-3.746,-10.679
1621785921035.802,0.33,-0.178,0.047,2.2833934705292274,-3.1836273824360886,-10.928409855001975
1621785921040.775,-0.257,0.047,-0.021,1.0781693315499896,-2.5672386691795603,-11.201775617837493
1621785921045.748,-0.862,0.361,-0.134,-0.12711397695838533,-1.9508196948049974,-11.475154801349667
1621785921047.328,-0.9452344248613089,0.4315268790809563,-0.11906863370808582,-0.51,-1.755,-11.562
1621785921050.721,-1.124,0.583,-0.087,-0.24896503411491183,-3.4948107192243985,-11.642675855152188
1621785921055.693,-1.028,0.635,-0.04,0.13355317823331858,-6.044313173370614,-11.76089750330512
1621785921060.666,-0.681,0.602,-0.087,0.5161277371708177,-8.594191180269576,-11.879136566018813
1621785921063.394,-0.41763049349373926,0.589380211146575,-0.12431068008838694,0.726,-9.993,-11.944
1621785921065.638,-0.201,0.579,-0.155,0.5025892037335441,-9.746395837767171,-12.081064409716944
1621785921070.61,0.295,0.503,-0.227,0.007541409504119634,-9.199954714055517,-12.384780411054697
1621785921075.582,0.693,0.335,-0.323,-0.48748207716396585,-8.65354042139187,-12.688481499498344
1621785921079.454,0.8993785907193714,0.20883648416400688,-0.41256052050085934,-0.873,-8.228,-12.925
1621785921080.554,0.958,0.173,-0.438,-0.9179972634811561,-7.989521352448424,-12.745010946075377
1621785921085.526,1.107,0.026,-0.525,-1.1214088663210544,-6.911470818067105,-11.931364534715783
1621785921090.497,1.159,-0.119,-0.574,-1.3247905042796115,-5.8335790929960325,-11.117837982881555
1621785921095.468,1.101,-0.223,-0.602,-1.528162153944388,-4.755740304361707,-10.30435138422245
1621785921095.513,1.0996176282838201,-0.22331622882396268,-0.6017470169408299,-1.53,-4.746,-10.297
1621785921100.44,0.948,-0.258,-0.574,-1.1927806142618216,-4.82731313668846,-9.617038072069333
1621785921105.411,0.731,-0.225,-0.476,-0.8525534742283716,-4.909351528052304,-8.931011372966399
1621785921110.381,0.473,-0.157,-0.346,-0.5123764634331762,-4.991377831838224,-8.245085753383002
1621785921111.57,0.4136943285047876,-0.14480407561993616,-0.3199342008347655,-0.431,-5.011,-8.081
1621785921115.353,0.225,-0.106,-0.237,-0.8977750642478064,-5.32296879609495,-8.295890892778393
1621785921120.323,0.017,-0.138,-0.168,-1.5110141725338726,-5.7328267362114325,-8.578209957269506
1621785921125.293,-0.099,-0.19,-0.122,-2.124253280819939,-6.142684676327915,-8.860529021760618
1621785921127.625,-0.10650611463091204,-0.2054813614262561,-0.09009901281862384,-2.412,-6.335,-8.993
1621785921130.264,-0.115,-0.223,-0.054,-2.3927677813768877,-6.460749121766504,-9.312057575619326
1621785921135.233,-0.052,-0.29,0.031,-2.3565541311191205,-6.697530681144213,-9.912832747844336
1621785921140.204,0.038,-0.37,0.113,-2.3203244673570875,-6.934416944203659,-10.513873579999087
1621785921143.679,0.0953431926497322,-0.4189515059205031,0.14237090355230186,-2.295,-7.1,-10.934
1621785921145.173,0.12,-0.44,0.155,-2.2292886256140405,-7.086317886636351,-10.83543293842106
1621785921150.144,0.185,-0.489,0.197,-2.0106694599485957,-7.040798032028957,-10.507504189922892
1621785921155.113,0.213,-0.511,0.227,-1.7921361915045702,-6.99529606253707,-10.179704287256856
1621785921159.732,0.19626821598781508,-0.5063522822188375,0.2623226551368349,-1.589,-6.953,-9.875
1621785921160.082,0.195,-0.506,0.265,-1.5528386591431047,-6.939521285494837,-9.851684877336538
1621785921165.052,0.159,-0.499,0.311,-1.0394938782338894,-6.748178055940015,-9.520704436569376
1621785921170.02,0.103,-0.494,0.361,-0.5263508342332204,-6.556910021445193,-9.189854066221539
1621785921174.989,0.056,-0.483,0.412,-0.013106921778277991,-6.365604389420371,-8.85893866066404
1621785921175.784,0.04672136785731833,-0.483,0.4175991745688596,0.069,-6.335,-8.806
1621785921179.958,-0.002,-0.483,0.447,0.14545940889247197,-6.235654781643115,-8.591965668304406
1621785921184.926,-0.051,-0.476,0.461,0.23646207085380508,-6.117413227666145,-8.337220121385435
1621785921189.894,-0.079,-0.466,0.482,0.32746473281513816,-5.999171673689174,-8.082474574466467
1621785921191.834,-0.07821918144745246,-0.4597534515796197,0.4929314597356655,0.363,-5.953,-7.983
1621785921194.863,-0.077,-0.45,0.51,0.35186519827809126,-5.83995345370469,-7.979225490941726
1621785921199.83,-0.07,-0.445,0.541,0.33360634915805965,-5.654579714333521,-7.973036050562054
1621785921204.798,-0.052,-0.435,0.578,0.3153439101930302,-5.469169528908901,-7.966845393285773
1621785921207.884,-0.03398633839500712,-0.4281672318050027,0.5953925008599931,0.304,-5.354,-7.963
1621785921209.766,-0.023,-0.424,0.606,0.2717462420886076,-5.2965296677215195,-7.877850079113924
1621785921214.733,0.002,-0.408,0.623,0.18662878833982474,-5.144865841041869,-7.653140001217137
1621785921219.701,-0.003,-0.387,0.637,0.10149041504381695,-4.993164739532619,-7.428374695715677
1621785921223.931,-0.043877267141803886,-0.36060009830425166,0.6565870238387811,0.029,-4.864,-7.237
1621785921224.668,-0.051,-0.356,0.66,0.029918620395867884,-4.890134750262441,-7.200071460086111
1621785921229.635,-0.119,-0.312,0.682,0.03610919076815409,-5.066256477353984,-6.951210531120205
1621785921234.602,-0.197,-0.262,0.719,0.042299761140440297,-5.242378204445526,-6.7023496021543005
1621785921239.569,-0.274,-0.209,0.75,0.0484903315127265,-5.4184999315370685,-6.453488673188395
1621785921239.978,-0.2776234021632252,-0.20512954768928218,0.7517293510324484,0.049,-5.433,-6.433
1621785921244.535,-0.318,-0.162,0.771,-0.16542597382836277,-5.519338405356056,-6.594600502130249
1621785921249.502,-0.332,-0.122,0.787,-0.39915200852099825,-5.613447961046866,-6.770746348143639
1621785921254.469,-0.311,-0.077,0.792,-0.6328780432136336,-5.707557516737675,-6.94689219415703
1621785921256.023,-0.300045827801544,-0.05884737178541574,0.7882442838176723,-0.706,-5.737,-7.002
1621785921259.434,-0.276,-0.019,0.78,-0.8165497481779035,-5.70978775429467,-7.108297834786446
1621785921264.401,-0.227,0.007,0.764,-0.9775162581214528,-5.670165228770104,-7.263073325116781
1621785921269.366,-0.169,0.045,0.74,-1.1384273824196223,-5.63055633663517,-7.417795560018868
1621785921272.068,-0.1407056191927634,0.05588245415662947,0.7236763187650558,-1.226,-5.609,-7.502
1621785921274.332,-0.117,0.065,0.71,-1.2176736622633468,-5.5439416661593715,-7.459098192000974
1621785921279.298,-0.051,0.086,0.688,-1.1994092347963718,-5.401231478663176,-7.364989955560967
1621785921284.263,0.002,0.099,0.672,-1.1811492968892676,-5.258556370609362,-7.27090485176843
1621785921288.11,0.03452425180598555,0.10442070863433092,0.6572866479925303,-1.167,-5.148,-7.198
1621785921289.231,0.044,0.106,0.653,-1.178740069825131,-5.104625011484396,-7.12903587725477
1621785921294.164,0.058,0.119,0.637,-1.2304106973325575,-4.913722154166539,-6.825509616268031
1621785921299.097,0.056,0.12,0.627,-1.2820787676476895,-4.722828744678896,-6.521998376871957
1621785921304.03,0.04,0.124,0.616,-1.333749395155116,-4.531925887361038,-6.218472115885217
1621785921304.054,0.03980595020048513,0.12401455373496362,0.6160194049799514,-1.334,-4.531,-6.217
1621785921308.962,0.0,0.127,0.62,-1.445809962308093,-4.443215318849018,-5.981367434805258
1621785921313.893,-0.061,0.124,0.618,-1.558148300799804,-4.355015796892716,-5.744621349554132
1621785921318.825,-0.145,0.117,0.62,-1.6705033248552081,-4.266803174700457,-5.507840100511752
1621785921319.988,-0.1671713040895138,0.11487721556589763,0.62,-1.697,-4.246,-5.452
1621785921323.756,-0.239,0.108,0.62,-1.810553133765577,-4.317916984718199,-5.493872718076056
1621785921328.686,-0.328,0.105,0.611,-1.9591198326205914,-4.412009227326375,-5.548656688278843
1621785921333.617,-0.407,0.098,0.614,-2.1077159608221825,-4.506120108520715,-5.603451510553179
1621785921335.916,-0.4391765375854214,0.09287040705159949,0.6102693869466178,-2.177,-4.55,-5.629
1621785921338.547,-0.476,0.087,0.606,-2.2693624837102337,-4.679704024530471,-5.765147918742813
1621785921343.476,-0.517,0.077,0.599,-2.442388945956305,-4.9226839402069755,-6.0201994480643926
1621785921348.406,-0.536,0.072,0.579,-2.615449689536221,-5.165711996933691,-6.275301510157148
1621785921351.84,-0.5311220213029477,0.0573660639088432,0.5622755016101065,-2.736,-5.335,-6.453
1621785921353.334,-0.529,0.051,0.555,-2.7415354339159768,-5.407711208218338,-6.540347270775836
1621785921358.263,-0.496,0.037,0.529,-2.7597990187059187,-5.647614228764183,-6.828540447715425
1621785921363.191,-0.44,0.017,0.497,-2.7780589849739346,-5.887469717877952,-7.116676525605643
1621785921367.763,-0.3620520291363163,-0.003414944750012385,0.48122481542044493,-2.795,-6.11,-7.384
1621785921368.118,-0.356,-0.005,0.48,-2.7838503772774676,-6.118518311760015,-7.3844459849089015
1621785921373.046,-0.26,-0.017,0.45,-2.6290669284093,-6.236772866695295,-7.390637322863628
1621785921377.973,-0.157,-0.028,0.421,-2.4743141525059813,-6.35500398748543,-7.396827433899761
1621785921382.899,-0.056,-0.038,0.398,-2.319592049567511,-6.473211674130422,-7.4030163180173
1621785921383.682,-0.04328705217779099,-0.04086041325999703,0.3954574104355582,-2.295,-6.492,-7.404
1621785921387.826,0.024,-0.056,0.382,-2.169739275851488,-6.440958208039276,-7.1256138999693155
1621785921392.751,0.093,-0.045,0.372,-2.0208713255599875,-6.380296839521326,-6.794761844123965
1621785921397.677,0.148,-0.035,0.353,-1.871973857011353,-6.319623442773858,-6.463844185332924
1621785921399.595,0.16357725672929163,-0.030716254399444805,0.3440430773806573,-1.814,-6.296,-6.335
1621785921402.602,0.188,-0.024,0.33,-1.76032621371141,-6.205094749278832,-6.107075400478733
1621785921407.526,0.204,-0.012,0.319,-1.6724401276621863,-6.056245427484196,-5.733868992819001
1621785921412.451,0.199,0.005,0.311,-1.5845322531148347,-5.907359203338857,-5.36057006076229
1621785921415.506,0.18907071658814778,0.018032184478056035,0.3128617406397223,-1.53,-5.815,-5.129
1621785921417.374,0.183,0.026,0.314,-1.5046340654786574,-5.758631256619239,-5.043742275636598
1621785921422.297,0.155,0.047,0.312,-1.4377795275590552,-5.6100656167979,-4.819036745406824
1621785921427.221,0.126,0.072,0.314,-1.3709150435142976,-5.461477874476217,-4.594297785145278
1621785921431.412,0.08853419969247557,0.08988140469222757,0.3174059818461386,-1.314,-5.335,-4.403
1621785921432.143,0.082,0.093,0.318,-1.3054501796296865,-5.330954923695765,-4.380016611907759
1621785921437.065,0.04,0.106,0.319,-1.2478802468756718,-5.303717536156232,-4.225258728160408
1621785921441.988,-0.005,0.127,0.33,-1.1902960358645254,-5.276473393312249,-4.070462462001412
1621785921446.909,-0.058,0.147,0.346,-1.1327375257162158,-5.249241410016274,-3.9157352841833757
1621785921447.314,-0.06252671528501265,0.14913990177109687,0.34772838219973207,-1.128,-5.247,-3.903
1621785921451.83,-0.113,0.173,0.367,-1.1001650928186466,-5.338741581832419,-3.880845686120964
1621785921456.751,-0.168,0.201,0.386,-1.0698353064013388,-5.438706081962934,-3.856705652033719
1621785921461.671,-0.22,0.225,0.4,-1.0395115389930445,-5.538650743931089,-3.832570408586301
1621785921463.214,-0.23317070992707248,0.22876305997916357,0.40470382497395446,-1.03,-5.57,-3.825
1621785921466.592,-0.262,0.237,0.415,-1.1279769281577856,-5.66372630220734,-3.9603824365217126
1621785921471.511,-0.293,0.243,0.424,-1.2706510499070676,-5.800210657286371,-4.157526504969201
1621785921476.43,-0.309,0.246,0.426,-1.4133251716563495,-5.936695012365401,-4.354670573416691
1621785921479.108,-0.3106328586314693,0.24218999652657172,0.4249114275790205,-1.491,-6.011,-4.462
1621785921481.35,-0.312,0.239,0.424,-1.5961172223075741,-6.076045690582271,-4.572761100015363
1621785921486.268,-0.307,0.225,0.415,-1.8266792133968353,-6.21871559379321,-4.81570225841143
1621785921491.186,-0.281,0.208,0.394,-2.0572412044860964,-6.361385497004148,-5.058643416807497
1621785921494.999,-0.2538638800635425,0.1917183280381255,0.3730664217633042,-2.236,-6.472,-5.247
1621785921496.104,-0.246,0.187,0.367,-2.2775976023976026,-6.501354829785599,-5.28651076615692
1621785921501.021,-0.188,0.162,0.342,-2.4627004995004995,-6.631979282256205,-5.4623275647429494
1621785921505.939,-0.126,0.131,0.311,-2.64784015984016,-6.762629678014294,-5.638179282256205
1621785921510.855,-0.054,0.098,0.274,-2.832906293706294,-6.893228187197418,-5.8139611619150084
1621785921510.884,-0.05360995232419547,0.0977931565355582,0.27375178784266985,-2.834,-6.894,-5.815
1621785921515.771,0.012,0.063,0.232,-2.8432317980568196,-6.88784546796212,-5.9387060939613825
1621785921520.687,0.072,0.031,0.202,-2.8525184786619113,-6.881654347558726,-6.06314761406961
1621785921525.603,0.129,-0.002,0.176,-2.8618051592670026,-6.875463227155331,-6.187589134177838
1621785921526.765,0.140585403418124,-0.0088566673290938,0.17103482710651827,-2.864,-6.874,-6.217
1621785921530.517,0.178,-0.031,0.155,-2.7295221362776605,-6.892670916052838,-6.2401613895339
1621785921535.433,0.216,-0.066,0.141,-2.553333297451906,-6.917132986821264,-6.270506743145366
1621785921540.346,0.253,-0.084,0.147,-2.3772582078764857,-6.941579264635778,-6.300832505497548
1621785921542.641,0.27027781641168286,-0.08866968011126565,0.15166968011126564,-2.295,-6.953,-6.315
1621785921545.261,0.29,-0.094,0.157,-2.112086165253911,-6.987007445810193,-6.268115948494685
1621785921550.174,0.346,-0.084,0.185,-1.7690651969909081,-7.050782102364506,-6.180193606448933
1621785921555.087,0.41,-0.068,0.215,-1.4260612740950418,-7.1145535898343155,-6.092275633432303
1621785921558.511,0.46226967799642216,-0.0519706320810972,0.24008944543828264,-1.187,-7.159,-6.031
1621785921560.0,0.485,-0.045,0.251,-1.058168371821105,-7.173731657410114,-5.955558900906167
1621785921564.913,0.571,0.0,0.288,-0.6330810320158773,-7.222339605224696,-5.706636671333405
1621785921569.824,0.675,0.044,0.332,-0.20818380282773585,-7.270925814243296,-5.457825766550255
1621785921574.38,0.7899852911945936,0.10983835221625919,0.38021963824289406,0.186,-7.316,-5.227
1621785921574.737,0.799,0.115,0.384,0.17408811623647474,-7.289496621569623,-5.232967200751105
1621785921579.647,0.942,0.201,0.438,0.010342460482369031,-6.925170275969279,-5.314994797678965
1621785921584.558,1.077,0.302,0.545,-0.15344390574256211,-6.560753351495283,-5.3970427883209435
1621785921589.469,1.178,0.412,0.731,-0.31722212987332815,-6.196354542796017,-5.4790867002200985
1621785921590.242,1.1732772114763064,0.4216030033315101,0.7615406991198846,-0.343,-6.139,-5.492
1621785921594.379,1.148,0.473,0.925,-0.043778769917635296,-4.473587329689785,-7.520547763836502
1621785921599.289,0.942,0.503,0.956,0.31136654607035646,-2.4969110461088446,-9.928228650604265
1621785921604.198,0.482,0.628,0.843,0.6664235701639598,-0.5207261796628435,-12.335310969132477
1621785921606.1,0.20921619336549457,0.6713974237827622,0.8422250460038793,0.804,0.245,-13.268
1621785921609.107,-0.222,0.74,0.841,1.7041948079943339,-0.6940698734333138,-14.197967419086627
1621785921614.015,-0.78,0.555,1.154,3.173553059464786,-2.2268826101684476,-15.715922520247592
1621785921618.924,-0.819,0.168,1.513,4.643276768392203,-3.760076586702799,-17.234255165830074
1621785921621.956,-0.5848657414316272,0.06730373576083172,1.606900810824255,5.551,-4.707,-18.172
1621785921623.832,-0.44,0.005,1.665,4.391363109817151,-5.314101930156969,-17.8771489748448
1621785921628.74,0.145,0.066,1.618,1.3575030885592367,-6.902411417656392,-17.10575514888242
1621785921633.647,0.764,0.106,1.47,-1.6757532695595918,-8.490404870835066,-16.33451481122048
1621785921637.805,1.230045574406687,0.06956370963729538,1.268329369620379,-4.246,-9.836,-15.681
1621785921638.554,1.314,0.063,1.232,-4.208000924299843,-9.677008842468497,-15.571587238500168
1621785921643.46,1.752,-0.079,0.974,-3.9591119327109716,-8.635637489601628,-14.854947915703853
1621785921648.366,2.089,-0.176,0.791,-3.7102229411221,-7.594266136734757,-14.138308592907538
1621785921653.272,2.307,-0.154,0.7,-3.4613339495332287,-6.552894783867886,-13.421669270111224
1621785921653.653,2.311351002936638,-0.1447541187596436,0.6964259618734756,-3.442,-6.472,-13.366
1621785921658.177,2.363,-0.035,0.654,-2.649607137903934,-6.10535768110582,-11.501092691045258
1621785921663.081,2.255,0.14,0.572,-1.7906327492949934,-5.707907909944062,-9.479484859692109
1621785921667.986,2.035,0.304,0.475,-0.9314873098793397,-5.310378993111738,-7.457474457953862
1621785921669.496,1.9469331872946332,0.3387956287961764,0.4592957781539381,-0.667,-5.188,-6.835
1621785921672.89,1.749,0.417,0.424,-0.3454397577364074,-5.146010787819011,-6.133394541363581
1621785921677.793,1.396,0.489,0.442,0.11912353593884839,-5.0853482924423625,-5.119773764024164
1621785921682.697,0.998,0.583,0.483,0.5837793582788804,-5.02467371470842,-4.105951100357538
1621785921685.338,0.775552108748693,0.6664852860628392,0.5066990489468705,0.834,-4.992,-3.56
1621785921687.6,0.585,0.738,0.527,0.5956959156297701,-4.839273941132029,-3.806590437423871
1621785921692.502,0.152,0.916,0.559,0.07932753596373565,-4.508340009559492,-4.340914072497957
1621785921697.405,-0.257,1.086,0.555,-0.4371694342939082,-4.177323665911159,-4.875370769539139
1621785921701.172,-0.5129624389757895,1.1874625884228356,0.5265597290026901,-0.834,-3.923,-5.286
1621785921702.306,-0.59,1.218,0.518,-0.9631929618949219,-4.025480669884497,-5.657537187533733
1621785921707.207,-0.824,1.272,0.466,-1.521665983006153,-4.4684822736595375,-7.2636114854966305
1621785921712.109,-0.942,1.272,0.412,-2.0802224621031042,-4.911550079417706,-8.869925794562587
1621785921717.004,-0.9629780280005978,1.223051267998605,0.3720418514274326,-2.638,-5.354,-10.474
1621785921717.009,-0.963,1.223,0.372,-2.6383715753424655,-5.354603850425768,-10.474832238059978
1621785921721.91,-0.909,1.145,0.337,-2.993562214611872,-5.931827347895841,-11.270372562631124
1621785921726.81,-0.796,1.04,0.281,-3.348699771689498,-6.5089645810193755,-12.065793996050845
1621785921731.709,-0.644,0.915,0.199,-3.7037488584474887,-7.085958040232013,-12.861017277551523
1621785921732.83,-0.5968579687032792,0.8845636399880396,0.17863281172131965,-3.785,-7.218,-13.043
1621785921736.608,-0.438,0.782,0.11,-3.785,-7.346707231258295,-12.876802907317675
1621785921741.507,-0.222,0.649,0.014,-3.785,-7.513617403783834,-12.661275114965587
1621785921746.405,-0.023,0.525,-0.061,-3.785,-7.6804859880867875,-12.445801024659731
1621785921748.651,0.04119399860432659,0.4805227295384309,-0.08988729937194696,-3.785,-7.757,-12.347
1621785921751.303,0.117,0.428,-0.124,-3.5828118990662863,-7.676527124006482,-11.901381449185894
1621785921756.201,0.23,0.356,-0.171,-3.209406975846902,-7.5279082490932945,-11.078404429354116
1621785921761.098,0.314,0.286,-0.195,-2.8360765028165753,-7.379319006096149,-10.255591496257427
1621785921764.47,0.35600269205842766,0.25226013260880403,-0.21221421805673263,-2.579,-7.277,-9.689
1621785921765.995,0.375,0.237,-0.22,-2.4816181105400443,-7.128516723001652,-9.498960688984582
1621785921770.891,0.408,0.192,-0.243,-2.169004630272723,-6.65185854516831,-8.888900125017363
1621785921775.788,0.436,0.159,-0.265,-1.8563287956660648,-6.175105292401723,-8.278717877482984
1621785921780.288,0.42312977556109727,0.1396946633416459,-0.28154743142144634,-1.569,-5.737,-7.718
1621785921780.683,0.422,0.138,-0.283,-1.5520859763441524,-5.716413359686236,-7.676826719372471
1621785921785.578,0.372,0.119,-0.278,-1.342500524999228,-5.46131969364751,-7.166639387295019
1621785921790.474,0.288,0.108,-0.272,-1.132852351687718,-5.206149686544578,-6.6562993730891575
1621785921795.368,0.188,0.119,-0.264,-0.9233087149871838,-4.951106914548655,-6.14621382909731
1621785921796.099,0.17470283348298912,0.11870118726928065,-0.2634023745385613,-0.892,-4.913,-6.07
1621785921800.262,0.099,0.117,-0.26,-0.8532890237687069,-4.8795558232559575,-5.896985636843812
1621785921805.156,0.009,0.122,-0.257,-0.8077784830653756,-4.840237192852399,-5.69358138349627
1621785921810.049,-0.07,0.127,-0.253,-0.7622770235833758,-4.800926408129855,-5.490217717648149
1621785921811.907,-0.1003777256623921,0.13117693727857893,-0.253,-0.745,-4.786,-5.413
1621785921814.942,-0.15,0.138,-0.253,-0.745,-4.770829237019758,-5.428170762980242
1621785921819.835,-0.22,0.143,-0.258,-0.745,-4.7463700276520475,-5.452629972347952
1621785921824.727,-0.262,0.14,-0.271,-0.745,-4.72191569987487,-5.47708430012513
1621785921827.711,-0.27541602634467616,0.14304909689651732,-0.2801472906895519,-0.745,-4.707,-5.492
1621785921829.62,-0.284,0.145,-0.286,-0.7402874824234745,-4.683316578333359,-5.5203959392431665
1621785921834.511,-0.304,0.141,-0.3,-0.7282151212200813,-4.622645224593229,-5.59313965418669
1621785921839.402,-0.326,0.138,-0.318,-0.716142157392957,-4.561970842282554,-5.66588700032449
1621785921843.511,-0.3335610243098887,0.1363197723755803,-0.3322819348075675,-0.706,-4.511,-5.727
1621785921844.293,-0.335,0.136,-0.335,-0.6943678468219258,-4.500803304022624,-5.72601002951676
1621785921849.183,-0.328,0.134,-0.353,-0.6216260334729327,-4.437038139980528,-5.719819236891314
1621785921854.073,-0.325,0.126,-0.368,-0.548887851767142,-4.373276159421409,-5.713628753341885
1621785921858.963,-0.328,0.134,-0.375,-0.47614967006135156,-4.309514178862291,-5.707438269792456
1621785921859.309,-0.32778757615100373,0.13513292719464698,-0.37613292719464697,-0.471,-4.305,-5.707
1621785921863.852,-0.325,0.15,-0.391,-0.3777931482283099,-4.344411539175066,-5.59135446169068
1621785921868.741,-0.346,0.154,-0.391,-0.27748859068703235,-4.386824268752705,-5.466902510667244
1621785921873.629,-0.374,0.155,-0.394,-0.17720406901242963,-4.429228526374374,-5.342475418959866
1621785921875.101,-0.37972220557386877,0.15560233742882829,-0.39369883128558586,-0.147,-4.442,-5.305
1621785921878.517,-0.393,0.157,-0.393,-0.1342359453274785,-4.548222895664543,-5.266924175892139
1621785921883.405,-0.412,0.171,-0.389,-0.1159719988867586,-4.700216077061043,-5.212441894984229
1621785921888.292,-0.429,0.18,-0.377,-0.09771170140392108,-4.852178891706352,-5.157970499103222
1621785921890.891,-0.43378663136334117,0.1890414147974222,-0.3722133686366588,-0.088,-4.933,-5.129
1621785921893.179,-0.438,0.197,-0.368,-0.10510380349878579,-4.958510757760901,-5.1787169881363
1621785921898.066,-0.419,0.201,-0.372,-0.14163852067253407,-5.013003217274288,-5.284915360937959
1621785921902.952,-0.377,0.201,-0.372,-0.17816593710847473,-5.067484787551623,-5.391092512103448
1621785921906.675,-0.34346509070918085,0.201,-0.3742864710880104,-0.206,-5.109,-5.472
1621785921907.837,-0.333,0.201,-0.375,-0.22256443853162755,-5.107601225190662,-5.474871169345483
1621785921912.723,-0.293,0.192,-0.375,-0.2922227928778058,-5.101718964156985,-5.4869452840988195
1621785921917.608,-0.237,0.182,-0.372,-0.36186722460281856,-5.0958378788113174,-5.499016985597822
1621785921922.457,-0.1833860034991252,0.17306433391652085,-0.3799428142964259,-0.431,-5.09,-5.511
1621785921922.492,-0.183,0.173,-0.38,-0.43134735050669143,-5.089586276785023,-5.50985175214667
1621785921927.377,-0.133,0.143,-0.398,-0.4799497021737449,-5.031696851551017,-5.349185379438385
1621785921932.261,-0.08,0.115,-0.41,-0.5285423377427091,-4.973818998994353,-5.188551125551172
1621785921937.145,-0.051,0.086,-0.421,-0.5771349733116732,-4.915941146437688,-5.027916871663959
1621785921938.237,-0.044961751912404375,0.07504169791510423,-0.42323638818059095,-0.588,-4.903,-4.992
1621785921942.028,-0.024,0.037,-0.431,-0.5644472372697724,-4.888820275499149,-4.76320173347779
1621785921946.91,-0.026,0.0,-0.431,-0.53411744312026,-4.870560501470361,-4.468569447453954
1621785921951.793,-0.042,-0.026,-0.433,-0.5037800650054172,-4.852296161584894,-4.173863488624052
1621785921954.011,-0.05926408961344202,-0.04053818072710907,-0.42981977296594487,-0.49,-4.844,-4.04
1621785921956.675,-0.08,-0.058,-0.426,-0.5033456358175682,-4.89214564820262,-3.935768894943803
1621785921961.557,-0.127,-0.084,-0.424,-0.5278012199275475,-4.980371489612038,-3.7447676874013065
1621785921966.438,-0.192,-0.117,-0.414,-0.5522531349660958,-5.068584094497941,-3.553795135771124
1621785921969.781,-0.22761426499274745,-0.1443955884559596,-0.40167198519481817,-0.569,-5.129,-3.423
1621785921971.319,-0.244,-0.157,-0.396,-0.6158336198485341,-5.183541653115272,-3.4477827905031826
1621785921976.2,-0.298,-0.188,-0.389,-0.764452306834549,-5.356620499001068,-3.526426845699949
1621785921981.079,-0.344,-0.218,-0.393,-0.9130189564651767,-5.52963874305007,-3.605043364462823
1621785921985.545,-0.37419991995197116,-0.24179387632579546,-0.38933940364218533,-1.049,-5.688,-3.677
1621785921985.959,-0.377,-0.244,-0.389,-1.060086512694208,-5.704997568040646,-3.6999348947441795
1621785921990.839,-0.4,-0.276,-0.403,-1.190751785244048,-5.905330343727249,-3.9702448069148195
1621785921995.717,-0.408,-0.309,-0.422,-1.3213582260637886,-6.105572920055145,-4.240433012686463
1621785922000.597,-0.394,-0.326,-0.435,-1.4520169617547285,-6.30589567359078,-4.510729401923881
1621785922001.306,-0.38847604745457276,-0.32861660910046553,-0.4384888121339541,-1.471,-6.335,-4.55
1621785922005.474,-0.356,-0.344,-0.459,-1.551431929829999,-6.568623006710161,-4.739438361046971
1621785922010.352,-0.309,-0.367,-0.476,-1.6455589114971563,-6.842024733065753,-4.96113217313146
1621785922015.23,-0.241,-0.384,-0.506,-1.7396858931643138,-7.115426459421346,-5.182825985215949
1621785922017.06,-0.21285622747296756,-0.3918802563075691,-0.51463075690829,-1.775,-7.218,-5.266
1621785922020.107,-0.166,-0.405,-0.529,-1.7351537507749535,-7.318389336639801,-5.372192188468692
1621785922024.984,-0.075,-0.433,-0.555,-1.671374209547427,-7.479076627402356,-5.542167761934284
1621785922029.86,0.024,-0.45,-0.576,-1.6076042467451952,-7.639739786112833,-5.712117808431494
1621785922032.812,0.09604230923292609,-0.46392414380132185,-0.5735784097736831,-1.569,-7.737,-5.815
1621785922034.736,0.143,-0.473,-0.572,-1.500710704985119,-7.691555245535715,-5.834179640997024
1621785922039.612,0.25,-0.518,-0.574,-1.3276522352430555,-7.576389322916667,-5.882784613715279
1621785922044.487,0.344,-0.538,-0.588,-1.154628425719246,-7.46124646577381,-5.931379851810516
1621785922048.562,0.41840888599479065,-0.5522129332799038,-0.5980326587858145,-1.01,-7.365,-5.972
1621785922049.361,0.433,-0.555,-0.6,-0.9452971502108658,-7.339118860084347,-5.948605479409577
1621785922054.236,0.503,-0.576,-0.593,-0.5505563910940214,-7.181222556437609,-5.805879604936741
1621785922059.11,0.557,-0.564,-0.586,-0.1558947066484745,-7.02335788265939,-5.663182321384272
1621785922063.983,0.597,-0.559,-0.571,0.23866813445795065,-6.86553274621682,-5.520520776482263
1621785922064.308,0.5988681626928472,-0.5579324784612303,-0.5699324784612302,0.265,-6.855,-5.511
1621785922068.857,0.625,-0.543,-0.555,0.6135101512214036,-6.820900333462583,-5.366509887553315
1621785922073.729,0.648,-0.527,-0.539,0.986785622334238,-6.7843775261729355,-5.211752229546336
1621785922078.603,0.653,-0.51,-0.529,1.3602107328421869,-6.747840077549438,-5.056932531989143
1621785922080.049,0.6446878508420208,-0.508218825180433,-0.534046661988773,1.471,-6.737,-5.011
1621785922083.474,0.625,-0.504,-0.546,1.883003118309597,-6.5876951193024915,-5.679171987961153
1621785922088.346,0.564,-0.454,-0.574,2.4690407707344315,-6.375322256352974,-6.629586986875174
1621785922093.218,0.499,-0.325,-0.564,3.0551077911197986,-6.162938750814484,-7.580049613701945
1621785922095.786,0.4694713490750489,-0.22797728981801774,-0.5175978342607911,3.364,-6.051,-8.081
1621785922098.088,0.443,-0.141,-0.476,3.042525225406974,-5.663532907090427,-9.010745433665948
1621785922102.958,0.225,-0.002,-0.473,2.3624129331615946,-4.843807213023169,-10.97771562252673
1621785922107.829,-0.223,0.178,-0.586,1.6821642638774652,-4.0239171464485795,-12.94508023091606
1621785922111.518,-0.5396380909409937,0.44918764726525295,-0.590545044367574,1.167,-3.403,-14.435
1621785922112.699,-0.641,0.536,-0.592,0.8024959713101393,-3.959743483458308,-14.438003741480758
1621785922117.568,-0.871,0.976,-0.546,-0.7004331889525408,-6.255317606694301,-14.450388819027216
1621785922122.438,-0.85,1.134,-0.627,-2.203588421591915,-8.551237032897086,-14.462775759551644
1621785922127.244,-0.5498726114649681,1.0342866242038216,-0.80371974522293,-3.687,-10.817,-14.475
1621785922127.306,-0.546,1.033,-0.806,-3.688159457193429,-10.819859205664068,-14.479523460547153
1621785922132.175,-0.042,0.848,-0.972,-3.7791996708381204,-11.044363133869515,-14.834704157997702
1621785922137.042,0.525,0.632,-1.127,-3.870198801353911,-11.268765751638046,-15.189724575350123
1621785922141.91,1.084,0.445,-1.236,-3.961216191038102,-11.493213396267429,-15.54481622830171
1621785922142.968,1.1761757624398075,0.38173786115569824,-1.241217495987159,-3.981,-11.542,-15.622
1621785922146.777,1.508,0.154,-1.26,-3.8884381649039432,-10.2422573731538,-15.085044433055335
1621785922151.644,1.747,-0.15,-1.314,-3.7701699824504185,-8.58154917765457,-14.398965133796146
1621785922156.511,1.827,-0.405,-1.37,-3.651901799996894,-6.920840982155337,-13.712885834536955
1621785922158.688,1.8077582174938525,-0.49539162944748333,-1.3717899332563859,-3.599,-6.178,-13.406
1621785922161.376,1.784,-0.607,-1.374,-3.2416868523668225,-6.084096257515263,-12.550432568472402
1621785922166.242,1.635,-0.742,-1.326,-2.594855939971104,-5.914105749662104,-11.001630163588063
1621785922171.108,1.424,-0.78,-1.236,-1.9480250275753854,-5.744115241808945,-9.452827758703723
1621785922174.403,1.2512481553982835,-0.7860971239271194,-1.1587697635898209,-1.51,-5.629,-8.404
1621785922175.972,1.169,-0.789,-1.122,-1.5081028342345701,-5.538934551556964,-8.33350531418982
1621785922180.836,0.845,-0.857,-1.011,-1.5022209118030954,-5.2596980234943125,-8.114945459630803
1621785922185.701,0.476,-0.955,-0.941,-1.4963378084405494,-4.980405432282926,-7.896341724159364
1621785922190.115,0.20375184460171658,-0.9677049139185865,-0.8566030718265321,-1.491,-4.727,-7.698
1621785922190.565,0.176,-0.969,-0.848,-1.3985635529996892,-4.771370640348151,-7.783962744793286
1621785922195.428,-0.01,-0.948,-0.679,-0.39951765620143,-5.250925054398508,-8.713041373950887
1621785922200.291,-0.087,-0.969,-0.501,0.5995282405968294,-5.730479468448865,-9.642120003108486
1621785922205.154,-0.068,-1.009,-0.351,1.5985741373950888,-6.210033882499223,-10.571198632266086
1621785922205.823,-0.05699322119005775,-1.0094127542053728,-0.3307750439367311,1.736,-6.276,-10.699
1621785922210.016,0.012,-1.012,-0.204,1.8590828721552046,-6.7525790169133195,-10.28009104899888
1621785922214.878,0.098,-0.979,-0.08,2.0017945062803135,-7.305160940803383,-9.794376181445095
1621785922219.739,0.161,-0.916,0.012,2.1444846412137792,-7.857659619450317,-9.308734485760478
1621785922221.528,0.17424669846849108,-0.8898745669093648,0.04217303540045192,2.197,-8.061,-9.13
1621785922224.601,0.197,-0.845,0.094,2.216180637838006,-7.844141359953974,-8.771048063317318
1621785922229.461,0.188,-0.752,0.171,2.2465142977095676,-7.5011852871204,-8.20337528572095
1621785922234.322,0.169,-0.651,0.258,2.2768555768064562,-7.158143070392312,-7.6355599197648925
1621785922237.229,0.15464412739877423,-0.6145121571385512,0.31661981312167187,2.295,-6.953,-7.296
1621785922239.182,0.145,-0.59,0.356,2.115599455634186,-6.676061295590637,-7.314288405008166
1621785922244.041,0.093,-0.564,0.414,1.669217528579205,-5.986986281981492,-7.359793358737071
1621785922248.901,0.037,-0.548,0.433,1.2227683179096351,-5.297807403375068,-7.405305171475231
1621785922252.926,-0.0069123071511131215,-0.5405431931252828,0.44874214784662547,0.853,-4.727,-7.443
1621785922253.759,-0.016,-0.539,0.452,0.8249432319840826,-4.720741590499285,-7.4175420630479385
1621785922258.618,-0.08,-0.511,0.475,0.6612897158490332,-4.684236647391656,-7.269047379220295
1621785922263.476,-0.119,-0.463,0.515,0.4976608686190388,-4.647737206988746,-7.1205750792762545
1621785922268.34,-0.131,-0.4,0.546,0.33383467014860424,-4.611193744948082,-6.971923708263383
1621785922268.632,-0.1303543701231781,-0.39712401236688427,0.5482890513814596,0.324,-4.609,-6.963
1621785922273.315,-0.12,-0.351,0.585,0.21556214192609657,-4.554926430022128,-7.048471126739216
1621785922278.307,-0.101,-0.307,0.611,0.09996707993573617,-4.4972838521931555,-7.139583588468883
1621785922283.298,-0.065,-0.264,0.625,-0.015611021855770124,-4.439649731728758,-7.230682682106156
1621785922284.74,-0.04969424478020634,-0.2541812136325852,0.6238448486626571,-0.049,-4.423,-7.257
1621785922288.291,-0.012,-0.23,0.621,-0.15910931443798448,-4.472549191497093,-7.112316360828488
1621785922293.283,-0.017,-0.197,0.62,-0.3138982558139535,-4.5422042151162785,-6.908923691860465
1621785922298.275,-0.035,-0.152,0.618,-0.46868719718992247,-4.611859238735465,-6.705531022892441
1621785922300.865,-0.03863108742421279,-0.1255449344807354,0.618,-0.549,-4.648,-6.6
1621785922303.268,-0.042,-0.101,0.618,-0.6323066406250001,-4.719682458212209,-6.50641042877907
1621785922308.26,-0.044,-0.056,0.614,-0.8053606770833335,-4.868589419815891,-6.3119955184108525
1621785922313.252,-0.024,-0.017,0.599,-0.9784147135416668,-5.017496381419574,-6.117580608042636
1621785922316.99,-0.01501423191666259,0.011454932263901797,0.5885166039027729,-1.108,-5.129,-5.972
1621785922318.244,-0.012,0.021,0.585,-1.1408154069767442,-5.125967296511628,-5.937707122093023
1621785922323.237,-0.005,0.075,0.565,-1.2714892199612404,-5.1138908066860465,-5.8011498909883725
1621785922328.229,-0.012,0.122,0.539,-1.4021310864825582,-5.101817269258721,-5.664626044694767
1621785922333.115,-0.01885008068065131,0.15135748863136278,0.5174711750036673,-1.53,-5.09,-5.531
1621785922333.222,-0.019,0.152,0.517,-1.530974895524196,-5.086418751135606,-5.530476076555024
1621785922338.214,-0.023,0.166,0.497,-1.5764878262976199,-4.919228393192417,-5.506016746411483
1621785922343.207,-0.026,0.182,0.489,-1.6220074344376476,-4.752013506147417,-5.481553827751196
1621785922348.199,-0.026,0.192,0.466,-1.6675181394222034,-4.584831324571498,-5.457095693779904
1621785922349.239,-0.028291778745048173,0.19054159534406026,0.463916564777229,-1.677,-4.55,-5.452
1621785922353.191,-0.037,0.185,0.456,-1.7154704662428095,-4.425032243415077,-5.3679530578262185
1621785922358.184,-0.054,0.187,0.445,-1.7640772479564033,-4.267137602179837,-5.261761171662125
1621785922363.177,-0.082,0.164,0.428,-1.8126816530426886,-4.10925068119891,-5.1555744777475025
1621785922365.367,-0.09735433070866142,0.15873565804274467,0.428,-1.834,-4.04,-5.109
1621785922368.169,-0.117,0.152,0.428,-1.8407756013381573,-4.046949334705802,-5.049409454897746
1621785922373.162,-0.157,0.15,0.428,-1.852849714657665,-4.059333040674528,-4.943219176215922
1621785922378.155,-0.213,0.122,0.428,-1.8649232376137206,-4.071716141142278,-4.83703408970497
1621785922381.495,-0.2517999608821085,0.10795173830130557,0.428668964842795,-1.873,-4.08,-4.766
1621785922383.148,-0.271,0.101,0.429,-1.879046472903421,-4.132266121707539,-4.7760432939751745
1621785922388.14,-0.337,0.079,0.438,-1.8973082500756888,-4.290122161671208,-4.806376415379957
1621785922393.133,-0.405,0.07,0.447,-1.9155744928852558,-4.448016802906449,-4.836716954283984
1621785922397.623,-0.4598555571854677,0.05381311427314067,0.4550934428634297,-1.932,-4.59,-4.864
1621785922398.126,-0.466,0.052,0.456,-1.9445373947798703,-4.618131169381699,-4.887858475140798
1621785922403.119,-0.511,0.031,0.454,-2.0690045115969236,-4.897408132986132,-5.124717540725489
1621785922408.112,-0.546,0.028,0.447,-2.1934777145279476,-5.176698752498032,-5.361588188094228
1621785922413.105,-0.552,0.023,0.44,-2.317944831345001,-5.455975716102465,-5.598447253678919
1621785922413.749,-0.5469683572162176,0.020419670367291046,0.43974196703672913,-2.334,-5.492,-5.629
1621785922418.097,-0.513,0.003,0.438,-2.334,-5.663748516320474,-5.96467802640344
1621785922423.091,-0.44,-0.005,0.422,-2.334,-5.861024480712166,-6.35024878883304
1621785922428.084,-0.339,-0.021,0.393,-2.334,-6.058252225519287,-6.735725307333616
1621785922429.875,-0.2963050325231085,-0.029610749743238615,0.38295412529955497,-2.334,-6.129,-6.874
1621785922433.076,-0.22,-0.045,0.365,-2.3788571817851523,-6.1698875196802705,-6.831326132372532
1621785922438.07,-0.099,-0.065,0.337,-2.4488441019740828,-6.233680907109119,-6.764745655201647
1621785922443.063,0.014,-0.084,0.298,-2.5188139154656657,-6.297458701707642,-6.698181452101247
1621785922446.002,0.07991327303837692,-0.09400469322903936,0.2738710339770227,-2.56,-6.335,-6.659
1621785922448.057,0.126,-0.101,0.257,-2.5624210215574665,-6.286324724476202,-6.490293024100763
1621785922453.05,0.23,-0.108,0.211,-2.568303727140608,-6.168051380646724,-6.080361329780792
1621785922458.042,0.318,-0.115,0.18,-2.574184994550079,-6.049806951677365,-5.670529853457672
1621785922462.129,0.3589190906868736,-0.10681618186262527,0.15872207284282572,-2.579,-5.953,-5.335
1621785922463.036,0.368,-0.105,0.154,-2.5768066669694356,-5.923755559592474,-5.2384933466551615
1621785922468.029,0.382,-0.106,0.126,-2.5647318225169173,-5.762757633558897,-4.7072001907443575
1621785922473.023,0.365,-0.094,0.101,-2.552655206866797,-5.601736091557291,-4.175829102139062
1621785922478.016,0.321,-0.075,0.08,-2.5405803624142784,-5.440738165523714,-3.644535946228258
1621785922478.256,0.31758730624419346,-0.07365414894137205,0.07942320668915946,-2.54,-5.433,-3.619
1621785922483.009,0.25,-0.047,0.068,-2.33753987284287,-5.372291432031487,-3.364672358462004
1621785922488.003,0.157,-0.007,0.058,-2.1248153042688465,-5.308505025734181,-3.0974506660611567
1621785922492.996,0.045,0.026,0.066,-1.9121219346049045,-5.244727974568574,-2.8302681653042687
1621785922494.384,0.013588088602024345,0.03962109432301599,0.06961375971835118,-1.853,-5.227,-2.756
1621785922497.989,-0.068,0.075,0.079,-1.6207584922797456,-5.367373115349682,-2.764717438692098
1621785922502.983,-0.19,0.126,0.105,-1.299039676052074,-5.56182876173176,-2.776793505903724
1621785922507.976,-0.297,0.159,0.134,-0.9773680442022402,-5.756255888586134,-2.788867801998183
1621785922510.512,-0.34271072319201995,0.17322111388196176,0.15279218620116378,-0.814,-5.855,-2.795
1621785922512.969,-0.387,0.187,0.171,-0.8871306770013322,-5.940166767591135,-2.9951952282911467
1621785922517.964,-0.436,0.211,0.19,-1.0358045294901297,-6.113309858302046,-3.4021898994792297
1621785922522.957,-0.454,0.222,0.199,-1.1844129829235799,-6.2863767863630855,-3.8090055407533003
1621785922526.639,-0.44367610385800205,0.2124135250110019,0.19531289423500073,-1.294,-6.414,-4.109
1621785922527.95,-0.44,0.209,0.194,-1.4143737002224948,-6.3812446987240605,-4.266843163964945
1621785922532.945,-0.393,0.208,0.162,-1.8730042228579213,-6.256445170957635,-4.868234436725242
1621785922537.938,-0.342,0.182,0.127,-2.33143300186169,-6.131700540344186,-5.4693611678699545
1621785922542.769,-0.2945885286783042,0.15781047381546134,0.08539401496259352,-2.775,-6.011,-6.051
1621785922542.931,-0.293,0.157,0.084,-2.7796256280646525,-6.011592000121073,-6.059257899993947
1621785922547.926,-0.241,0.122,0.037,-2.922371254313215,-6.029860963133362,-6.3140944518433315
1621785922552.919,-0.206,0.082,-0.002,-3.065054089230583,-6.0481218899449125,-6.568818905502754
1621785922557.913,-0.173,0.065,-0.037,-3.2077718082208366,-6.066387281312428,-6.823605635934379
1621785922558.901,-0.1664725983867025,0.06223079931557077,-0.04115380102664385,-3.236,-6.07,-6.874
1621785922562.907,-0.14,0.051,-0.058,-2.9583317743571116,-6.369772404607304,-6.68897063675854
1621785922567.9,-0.103,0.04,-0.056,-2.6122660249133483,-6.743387216394981,-6.458363317138143
1621785922572.895,-0.063,0.024,-0.054,-2.266047980141973,-7.11716644719914,-6.227654512706413
1621785922575.031,-0.03989863576353235,0.01672734829592685,-0.05613901520708034,-2.118,-7.277,-6.129
1621785922577.888,-0.009,0.007,-0.059,-1.9008797917581002,-7.422750351862222,-5.972800959486659
1621785922582.883,0.051,-0.012,-0.052,-1.5212626783903627,-7.677583047051168,-5.699699577765334
1621785922587.877,0.113,-0.016,-0.047,-1.141738335578189,-7.9323534664104,-5.426664936362123
1621785922591.163,0.16235947584588306,-0.0054699784862116164,-0.03646997848621161,-0.892,-8.1,-5.247
1621785922592.87,0.188,0.0,-0.031,-0.7986689266904776,-8.08137611235547,-5.191974877413887
1621785922597.865,0.271,0.017,-0.007,-0.5255767600944368,-8.026881530358981,-5.030968157878807
