time,gyro_x,gyro_y,gyro_z,acc_x,acc_y,acc_z
1621785278355.122,,,,1.589,-5.394,-7.983
1621785278373.786,,,,0.167,-5.894,-9.11
1621785278390.86,0.199,1.051,1.126,-0.16872016164320094,-6.1325143239556255,-9.834543512393502
1621785278392.756,0.20412353620319973,1.0180172356919017,1.108067623288801,-0.206,-6.159,-9.915
1621785278396.781,0.215,0.948,1.07,-0.12416082871109084,-6.232697008839247,-9.98034607299344
1621785278402.732,0.232,0.853,1.009,-0.0031593850517944444,-6.341660043563052,-10.076962021629562
1621785278408.712,0.244,0.791,0.944,0.1184327938606489,-6.451155041410226,-10.174049654281589
1621785278412.035,0.2473174635414551,0.7760714140634521,0.9202248446195719,0.186,-6.512,-10.228
1621785278414.722,0.25,0.764,0.901,0.3838884289276808,-6.540269775561097,-10.234724364089775
1621785278420.76,0.26,0.773,0.867,0.8285710224438902,-6.603795860349127,-10.24983493765586
1621785278426.828,0.278,0.791,0.826,1.2754471820448876,-6.667635311720698,-10.26502004987531
1621785278431.615,0.30234313175810973,0.8043494593512215,0.7828105726872246,1.628,-6.718,-10.277
1621785278432.924,0.309,0.808,0.771,1.6735568815416217,-6.764231243274968,-10.165355668590433
1621785278437.753,0.361,0.831,0.735,1.8416041698690628,-6.934766073699361,-9.753529254761672
1621785278443.368,0.424,0.857,0.719,2.0370093766157544,-7.133063791730132,-9.274657942175207
1621785278448.988,0.476,0.894,0.719,2.2325930045695284,-7.331542572071379,-8.79534938024902
1621785278449.086,0.47683512669212075,0.8946263450190907,0.7192435786185352,2.236,-7.335,-8.787
1621785278454.615,0.524,0.93,0.733,2.3283028905453964,-7.2754889258325735,-8.206159771008743
1621785278460.249,0.576,0.969,0.745,2.422358341824422,-7.214847911192149,-7.614291092400922
1621785278465.889,0.613,1.004,0.761,2.5165116104467207,-7.15414383010672,-7.021806872419155
1621785278467.296,0.6184824007610482,1.011725201072386,0.7639904004151172,2.54,-7.139,-6.874
1621785278471.535,0.635,1.035,0.773,2.5149528630771902,-6.920765223663296,-6.623992466640843
1621785278477.188,0.658,1.045,0.792,2.481550429428186,-6.629731056406695,-6.290586693736893
1621785278482.847,0.653,1.04,0.806,2.448113374383907,-6.3383952342153425,-5.956835348017151
1621785278485.574,0.6385610134436401,1.0424064977593932,0.818995087900724,2.432,-6.198,-5.796
1621785278488.513,0.623,1.045,0.833,2.3786544147980573,-6.075449331292834,-5.695396313793333
1621785278494.185,0.602,1.082,0.862,2.275698942045379,-5.8389300019961405,-5.5012340408543485
1621785278499.864,0.571,1.084,0.915,2.172619389180917,-5.602125623793999,-5.306837766983832
1621785278503.92,0.5360477887505367,1.0775802060970374,0.9442457277801631,2.099,-5.433,-5.168
1621785278505.55,0.522,1.075,0.956,2.0294995624270715,-5.367040985997666,-5.150647024504084
1621785278511.24,0.464,1.1,0.99,1.786908998090591,-5.136811724302535,-5.090076641561472
1621785278516.939,0.405,1.114,1.004,1.543933303277819,-4.906216956613981,-5.029410098652806
1621785278522.332,0.353953269428278,1.1187265491270113,1.000218760698391,1.314,-4.688,-4.972
1621785278522.644,0.351,1.119,1.0,1.311855761354929,-4.6818711919042455,-4.979124950458425
1621785278528.355,0.304,1.126,1.002,1.272608476233255,-4.569691943879303,-5.109537189209185
1621785278534.073,0.265,1.131,0.998,1.2333125346791027,-4.457373622744207,-5.240111105239517
1621785278539.797,0.227,1.136,0.998,1.1939746479245383,-4.344935410996909,-5.370824398234999
1621785278540.812,0.2192067319982957,1.135645760545377,0.9978228802726885,1.187,-4.325,-5.394
1621785278545.527,0.183,1.134,0.997,1.1768316507180183,-4.3499124557408555,-5.403914140549932
1621785278551.263,0.133,1.138,0.99,1.1644619930764877,-4.380218116962605,-5.415974556750425
1621785278557.007,0.08,1.134,0.983,1.152074434338515,-4.410567635870638,-5.4280524265199475
1621785278559.36,0.05790200407608695,1.1335907778532608,0.983,1.147,-4.423,-5.433
1621785278562.757,0.026,1.133,0.983,1.2024727937994255,-4.503472046268246,-5.45799925246882
1621785278568.514,-0.024,1.129,0.979,1.296482314986033,-4.639847700358028,-5.500365385371995
1621785278574.277,-0.077,1.127,0.983,1.3905954938295892,-4.776373726246213,-5.542778232416624
1621785278577.976,-0.10906018028693554,1.1237939819713065,0.9906944432688645,1.451,-4.864,-5.57
1621785278580.046,-0.127,1.122,0.995,1.4846775862744843,-4.933570803224921,-5.621070287080714
1621785278585.822,-0.166,1.114,1.009,1.5786594232251825,-5.127717492715179,-5.763588796403978
1621785278591.604,-0.195,1.103,1.019,1.6727365965843013,-5.322061127154412,-5.906251878372904
1621785278596.66,-0.21247005230302007,1.090770963387886,1.0329760418424159,1.755,-5.492,-6.031
1621785278597.392,-0.215,1.089,1.035,1.7649576171874999,-5.516874518229167,-6.0524381640625
1621785278603.188,-0.225,1.086,1.052,1.8437818359374998,-5.7137805078124995,-6.2221420703125
1621785278608.99,-0.229,1.084,1.073,1.9226890625,-5.910893854166666,-6.3920246875
1621785278614.798,-0.227,1.073,1.089,2.001679296875,-6.108214557291666,-6.562086015625
1621785278615.41,-0.22531309689090834,1.072156548445454,1.0910031974420464,2.01,-6.129,-6.58
1621785278620.601,-0.211,1.065,1.108,2.01,-6.229371513283658,-6.8133706810231605
1621785278626.409,-0.182,1.052,1.127,2.01,-6.341666952756213,-7.074465311642545
1621785278632.224,-0.15,1.037,1.138,2.01,-6.454104006554052,-7.335889205321266
1621785278634.184,-0.13484520513465895,1.0306013088346337,1.1420412786307574,2.01,-6.492,-7.424
1621785278638.044,-0.105,1.018,1.15,2.0282341125855274,-6.51801946402654,-7.502263269749119
1621785278643.87,-0.056,1.009,1.173,2.0557571273066557,-6.55729387829152,-7.620395759900477
1621785278649.702,-0.003,1.005,1.192,2.083306668567282,-6.596606145034211,-7.738642105535973
1621785278653.024,0.025451051729184965,1.001016852757914,1.205087483795425,2.099,-6.619,-7.806
1621785278655.54,0.047,0.998,1.215,2.10419167129516,-6.560294178431651,-7.82170813366228
1621785278661.385,0.096,1.004,1.236,2.1162520053216913,-6.423919632131647,-7.858198375075886
1621785278667.236,0.154,1.005,1.262,2.1283249331559437,-6.287402678928945,-7.894726720830804
1621785278671.925,0.18602868339864922,1.0041992829150337,1.2844200783790545,2.138,-6.178,-7.924
1621785278673.092,0.194,1.004,1.29,2.1356000308975744,-6.129754467274319,-7.89926185694423
1621785278678.955,0.216,0.993,1.316,2.1235424455430247,-5.887366084762347,-7.774975977135795
1621785278684.824,0.218,0.99,1.332,2.1114728101344045,-5.644735465265977,-7.650565889077708
1621785278690.699,0.209,0.981,1.342,2.099390622586127,-5.401852515577527,-7.526026417426232
1621785278690.889,0.2084508615320739,0.9807738841602657,1.3426137429935645,2.099,-5.394,-7.522
1621785278696.579,0.192,0.974,1.361,2.122326438698916,-5.25613476615128,-7.401779123628665
1621785278702.466,0.175,0.977,1.365,2.146459549624687,-5.11350189260281,-7.277400782703535
1621785278708.359,0.157,0.974,1.375,2.1706166805671394,-4.970727054596779,-7.152898646307821
1621785278709.916,0.15145781437497413,0.9763752224107254,1.3760556544047668,2.177,-4.933,-7.12
1621785278714.259,0.136,0.983,1.379,2.168127907720245,-4.926175313630957,-7.041743596301648
1621785278720.164,0.108,0.979,1.382,2.156064874611558,-4.916896057393505,-6.9353414581122035
1621785278726.075,0.077,0.991,1.396,2.1439898717342096,-4.9076075936417,-6.828833740424824
1621785278729.007,0.05718151815181518,0.9964500825082508,1.4014500825082508,2.138,-4.903,-6.776
1621785278731.993,0.037,1.002,1.407,2.0935771510138537,-4.913755005544014,-6.766959560557205
1621785278737.916,-0.009,1.025,1.421,2.005454277812472,-4.935090016950665,-6.749025782853065
1621785278743.845,-0.049,1.023,1.428,1.9172442297643475,-4.956446133846526,-6.7310742643029196
1621785278748.163,-0.08173484412272765,1.0215451180389898,1.4265451180389899,1.853,-4.972,-6.718
1621785278749.781,-0.094,1.021,1.426,1.8093066046724342,-4.981934143831701,-6.729533709363924
1621785278755.722,-0.143,1.025,1.429,1.6488667251038531,-5.018411804311648,-6.771884891446574
1621785278761.67,-0.195,1.016,1.429,1.4882356416021953,-5.054932936976765,-6.814286545473024
1621785278767.381,-0.23912325733967524,1.0121631950139414,1.4309184024930295,1.334,-5.09,-6.855
1621785278767.624,-0.241,1.012,1.431,1.3291743066987465,-5.093578320881347,-6.8578349373179694
1621785278773.584,-0.283,1.007,1.433,1.2107774977839687,-5.181371254906926,-6.9273891984297835
1621785278779.55,-0.312,1.0,1.429,1.0922594402937824,-5.269254096492339,-6.997014689122452
1621785278785.522,-0.332,0.983,1.431,0.9736249841712042,-5.35722324933519,-7.0667085602127395
1621785278786.661,-0.3335241362411174,0.9812853467287429,1.4313810340602795,0.951,-5.374,-7.08
1621785278791.5,-0.34,0.974,1.433,0.9560029026477195,-5.452545571569196,-7.161047022893056
1621785278797.484,-0.337,0.97,1.429,0.9621893283525581,-5.549672455135162,-7.261267119311442
1621785278803.474,-0.33,0.965,1.431,0.9683823165652843,-5.646902370074963,-7.361593528357606
1621785278806.006,-0.32089045507779823,0.9636986364396855,1.4327351514137527,0.971,-5.688,-7.404
1621785278809.311,-0.309,0.962,1.435,0.9849418498712617,-5.700333174886116,-7.453153957879448
1621785278815.033,-0.295,0.97,1.435,1.0090797781738958,-5.721685957615369,-7.538255628177197
1621785278820.755,-0.278,0.965,1.433,1.03321770647653,-5.743038740344622,-7.623357298474946
1621785278824.496,-0.26165474869869443,0.9617309497397388,1.4316923798958956,1.049,-5.757,-7.679
1621785278826.477,-0.253,0.96,1.431,1.071069000118829,-5.757,-7.687356223345964
1621785278832.198,-0.239,0.955,1.436,1.1348036414528841,-5.757,-7.711488757443325
1621785278837.92,-0.222,0.951,1.436,1.1985491622545847,-5.757,-7.735625410950765
1621785278842.987,-0.20429246651309615,0.9403754799078576,1.4351146233256549,1.255,-5.757,-7.757
1621785278843.643,-0.202,0.939,1.435,1.272062682350456,-5.755226332396002,-7.757
1621785278849.365,-0.187,0.935,1.442,1.4208896589963957,-5.739755752703077,-7.757
1621785278855.086,-0.171,0.939,1.45,1.5696912352964474,-5.724287813378748,-7.757
1621785278860.808,-0.157,0.944,1.464,1.7185245620288592,-5.708816573593674,-7.757
1621785278861.48,-0.15429931305201178,0.943647736485045,1.46470452702991,1.736,-5.707,-7.757
1621785278866.53,-0.134,0.941,1.47,1.7627572597676875,-5.675055108236537,-7.781026927138331
1621785278872.253,-0.12,0.942,1.482,1.7930795670538544,-5.638853986272439,-7.8082551214361136
1621785278877.975,-0.11,0.944,1.487,1.8233979936642029,-5.6026574973600844,-7.835479831045406
1621785278879.976,-0.10860142485388849,0.9433007124269442,1.4911957254383346,1.834,-5.59,-7.845
1621785278883.698,-0.106,0.942,1.499,1.7945567949310277,-5.5662535806217415,-7.841176423998416
1621785278889.421,-0.094,0.946,1.508,1.733908177678041,-5.5297406375816776,-7.835297221305524
1621785278895.143,-0.091,0.951,1.517,1.6732673222889578,-5.493232367500496,-7.829418771038215
1621785278898.471,-0.0880924875218634,0.951,1.5292115524081737,1.638,-5.472,-7.826
1621785278900.866,-0.086,0.951,1.538,1.6113269098780423,-5.477049759780371,-7.818360619819439
1621785278906.589,-0.08,0.955,1.55,1.5475888284673458,-5.489116678105697,-7.800105538250357
1621785278912.311,-0.07,0.962,1.564,1.4838643419038064,-5.50118102264928,-7.78185435035109
1621785278916.968,-0.06430378396826074,0.9676962160317393,1.5721374514739133,1.432,-5.511,-7.767
1621785278918.034,-0.063,0.969,1.574,1.4261902072074517,-5.508687939602965,-7.771624120794069
1621785278923.59,-0.051,0.965,1.588,1.3959063628710318,-5.49663620563235,-7.795727588735302
1621785278929.143,-0.037,0.972,1.606,1.3656398175053635,-5.484591355946012,-7.819817288107976
1621785278934.693,-0.03,0.983,1.623,1.3353892404203895,-5.472552860983625,-7.843894278032751
1621785278934.948,-0.029264788732394364,0.9833676056338028,1.6237352112676056,1.334,-5.472,-7.845
1621785278940.24,-0.014,0.991,1.639,1.2616363983212515,-5.443054559328501,-7.897279010192402
1621785278945.784,-0.003,0.998,1.658,1.1858275467378863,-5.412731018695155,-7.952047037662833
1621785278951.324,0.005,0.998,1.677,1.1100721098817246,-5.38242884395269,-8.006776475718102
1621785278952.865,0.008895609239992946,0.9952174219714336,1.6795043202257098,1.089,-5.374,-8.022
1621785278956.862,0.019,0.988,1.686,0.9309859391424242,-5.4090894024818095,-7.965007658389418
1621785278962.396,0.033,0.97,1.691,0.7122158000354935,-5.457670607347139,-7.8861018797864935
1621785278967.927,0.063,0.948,1.695,0.4935614787107695,-5.506226093129292,-7.807237874216756
1621785278970.749,0.07984910994301869,0.9408518927514467,1.6990846327134592,0.382,-5.531,-7.767
1621785278973.454,0.096,0.934,1.703,0.36714867193697515,-5.498266460595782,-7.72684079656427
1621785278978.979,0.124,0.923,1.705,0.3368160407035588,-5.43141086522417,-7.64481888557595
1621785278984.501,0.143,0.909,1.723,0.30649949394096887,-5.364590721339279,-7.562840468309763
1621785278988.599,0.15488073962664778,0.8948916216933558,1.7252276386799965,0.284,-5.315,-7.502
1621785278990.02,0.159,0.89,1.726,0.27467077681874225,-5.280633374434855,-7.47616522811344
1621785278995.536,0.176,0.874,1.726,0.23845511713933415,-5.147223551171393,-7.375875709001233
1621785279001.048,0.183,0.859,1.728,0.20226350184956843,-5.013902301685163,-7.275652774352651
1621785279006.419,0.18982320882626613,0.8482778147015818,1.73287372059019,0.167,-4.884,-7.178
1621785279006.558,0.19,0.848,1.733,0.1657714674024958,-4.882004612660105,-7.174705654627075
1621785279012.064,0.187,0.838,1.747,0.11716468294825859,-4.803057287591121,-7.044365168924948
1621785279017.567,0.178,0.82,1.751,0.06858376233817938,-4.724151970676661,-6.9140940378622515
1621785279023.067,0.147,0.787,1.752,0.020028705572258138,-4.645288661916725,-6.783892261438985
1621785279024.203,0.14079930703624732,0.7787324093816631,1.753446828358209,0.01,-4.629,-6.757
1621785279028.563,0.117,0.747,1.759,-0.148105653151278,-4.614378944301057,-6.737422654233619
1621785279033.994,0.084,0.705,1.754,-0.3450405461660145,-4.596167096827908,-6.713037299142453
1621785279039.421,0.042,0.654,1.737,-0.5418337912469126,-4.5779683484583575,-6.6886694835289875
1621785279041.797,0.021402449457427173,0.6329642037012022,1.7251673645819263,-0.628,-4.57,-6.678
1621785279044.843,-0.005,0.606,1.71,-0.7337936959553696,-4.636469065550907,-6.768481450488145
1621785279050.262,-0.044,0.572,1.689,-0.9220108228730823,-4.7547239051603905,-6.929456624825662
1621785279055.676,-0.077,0.532,1.665,-1.1100583542538354,-4.872872189679219,-7.0902867503486755
1621785279059.302,-0.09308592445507469,0.5112223475788619,1.6448925944311568,-1.236,-4.952,-7.198
1621785279061.086,-0.101,0.501,1.635,-1.28309645713327,-4.99909645713327,-7.276153556848051
1621785279066.492,-0.113,0.464,1.604,-1.4258167048822772,-5.141816704882277,-7.5129886751300266
1621785279071.893,-0.108,0.424,1.566,-1.5684080448520776,-5.284408044852078,-7.749609879201387
1621785279076.764,-0.0863396362978377,0.3815817877499321,1.5344119696010132,-1.697,-5.413,-7.963
1621785279077.29,-0.084,0.377,1.531,-1.7079344864319355,-5.422786667414218,-7.978102881812066
1621785279082.683,-0.059,0.339,1.491,-1.8200193148688046,-5.5231056851311955,-8.132916180758018
1621785279088.072,-0.035,0.314,1.443,-1.9320178851760486,-5.623347499439336,-8.28761033864095
1621785279093.457,-0.005,0.269,1.391,-2.043935271361292,-5.723516651715632,-8.44219236375869
1621785279094.182,-0.0010934210526315786,0.2649587114337568,1.382109165154265,-2.059,-5.737,-8.463
1621785279098.838,0.024,0.239,1.325,-2.0852612129046766,-5.8104242075089925,-8.539371894671762
1621785279104.214,0.058,0.222,1.264,-2.115584644784173,-5.895206047661871,-8.627557385341726
1621785279109.586,0.089,0.201,1.197,-2.1458832902428058,-5.979918587005396,-8.715670793053057
1621785279111.557,0.09781011276827938,0.2046708803201164,1.1727721898872319,-2.157,-6.011,-8.748
1621785279114.955,0.113,0.211,1.131,-2.04170117209512,-6.003352628761411,-8.807610278372591
1621785279120.319,0.136,0.232,1.061,-1.8597031443705623,-5.991281331004171,-8.901704496788009
1621785279125.678,0.154,0.264,0.997,-1.6778790713400202,-5.979221571058267,-8.995708779443254
1621785279128.887,0.15699571519737443,0.2867674355000456,0.9634479897894065,-1.569,-5.972,-9.052
1621785279131.034,0.159,0.302,0.941,-1.559289750849377,-5.9696346828992075,-9.052
1621785279136.385,0.168,0.351,0.876,-1.535088108720272,-5.963739411098528,-9.052
1621785279141.711,0.175,0.377,0.794,-1.5110001981879955,-5.957871843148358,-9.052
1621785279146.133,0.18330909674755722,0.40192729024267165,0.7374981421166108,-1.491,-5.953,-9.052
1621785279147.033,0.185,0.407,0.726,-1.4879075422330927,-5.9730223536772655,-9.013947045105512
1621785279152.349,0.19,0.449,0.674,-1.469638885728912,-6.091304163585689,-8.78914967863034
1621785279157.662,0.202,0.48,0.63,-1.4513811358853308,-6.209515357488198,-8.564486519538137
1621785279162.969,0.222,0.487,0.586,-1.4331443603890563,-6.32759075137933,-8.340081451567032
1621785279163.302,0.22350683544303798,0.486246582278481,0.5830491139240506,-1.432,-6.335,-8.326
1621785279168.273,0.246,0.475,0.539,-1.503125313676286,-6.380578262233375,-8.038305363864492
1621785279173.572,0.262,0.456,0.494,-1.5789455058743014,-6.4291650792745525,-7.7316204231778265
1621785279178.866,0.281,0.456,0.454,-1.6546923405954146,-6.4777048876468575,-7.425232205999772
1621785279180.425,0.284536643898837,0.4424428650544582,0.4484003138268414,-1.677,-6.492,-7.335
1621785279184.156,0.293,0.41,0.435,-1.6726296561092444,-6.419233774218918,-7.155160348895403
1621785279189.441,0.291,0.374,0.415,-1.6664390505469364,-6.316160191606492,-6.900416930006434
1621785279194.722,0.281,0.328,0.403,-1.6602530206620434,-6.213162794023021,-6.6458618002430825
1621785279197.499,0.2709993059090278,0.3022087362917033,0.3903675443061404,-1.657,-6.159,-6.512
1621785279199.998,0.262,0.279,0.379,-1.635423642777252,-6.128763744300095,-6.412631334423126
1621785279205.27,0.239,0.225,0.361,-1.5899058762797902,-6.064976942269638,-6.203001892798761
1621785279210.537,0.211,0.183,0.349,-1.5444302675729158,-6.001249218503542,-5.993566606441251
1621785279214.525,0.18447515427086716,0.14889662691968636,0.34369503085417347,-1.51,-5.953,-5.835
1621785279215.799,0.176,0.138,0.342,-1.4952922501797268,-5.953,-5.813688770668584
1621785279221.057,0.14,0.113,0.339,-1.4346012940330697,-5.953,-5.725748813803019
1621785279226.311,0.098,0.087,0.33,-1.3739526096333574,-5.953,-5.637870107836089
1621785279231.505,0.05644148837209302,0.07017869767441862,0.32307358139534886,-1.314,-5.953,-5.551
1621785279231.56,0.056,0.07,0.323,-1.31374585507915,-5.953573455206021,-5.5523717309189475
1621785279236.804,0.021,0.072,0.319,-1.2895919667829647,-6.008074536489721,-5.682740794671434
1621785279242.044,-0.012,0.065,0.307,-1.2654560710475478,-6.0625350191747645,-5.813012744730544
1621785279247.28,-0.035,0.063,0.3,-1.2413381678728987,-6.116954903261151,-5.943187581096278
1621785279248.439,-0.03965088177661659,0.0649932350471214,0.30088588224316504,-1.236,-6.129,-5.972
1621785279252.513,-0.056,0.072,0.304,-1.1766774473250672,-6.2471628081736466,-6.114036518396485
1621785279257.743,-0.068,0.075,0.309,-1.1005218936963497,-6.398854764588572,-6.296376441515651
1621785279262.968,-0.073,0.084,0.314,-1.0244374403884504,-6.550405098413249,-6.478546128500824
1621785279265.333,-0.07254693419391048,0.084,0.31490613161217906,-0.99,-6.619,-6.561
1621785279268.188,-0.072,0.084,0.316,-0.9667804687160311,-6.680523283621027,-6.6357431627462065
1621785279273.403,-0.061,0.084,0.321,-0.9243662043277243,-6.792905604591504,-6.772273751032653
1621785279278.614,-0.052,0.094,0.335,-0.8819856950302187,-6.905198486890734,-6.908695682420975
1621785279282.178,-0.04857837989874367,0.10152756422276392,0.3507394524657791,-0.853,-6.982,-7.002
1621785279283.822,-0.047,0.105,0.358,-0.8366565274891365,-7.014686945021727,-7.002
1621785279289.023,-0.037,0.106,0.38,-0.7849539740440931,-7.118092051911814,-7.002
1621785279294.221,-0.042,0.105,0.401,-0.7332805446961881,-7.221438910607624,-7.002
1621785279298.977,-0.04383169573597856,0.09858906492407503,0.4284754360396784,-0.686,-7.316,-7.002
1621785279299.414,-0.044,0.098,0.431,-0.6875392351192212,-7.320330729318487,-7.004556695621757
1621785279304.603,-0.042,0.098,0.464,-0.7058157173672244,-7.371752696321344,-7.034914242406576
1621785279309.787,-0.044,0.087,0.496,-0.7240750014574711,-7.423126275287122,-7.065243222759867
1621785279314.966,-0.038,0.077,0.52,-0.7423162274820732,-7.474449046813969,-7.095542208360054
1621785279315.728,-0.0365276218332783,0.07670552436665566,0.5230919941501156,-0.745,-7.482,-7.1
1621785279320.141,-0.028,0.075,0.541,-0.8564824038349117,-7.412257453525079,-7.2114824038349115
1621785279325.312,-0.003,0.079,0.559,-0.987108499941541,-7.330538758330411,-7.342108499941541
1621785279330.478,0.03,0.073,0.572,-1.1176112475154918,-7.248897229042441,-7.472611247515491
1621785279332.433,0.04250125360707697,0.07186352239935664,0.5761670845356923,-1.167,-7.218,-7.522
1621785279335.639,0.063,0.07,0.583,-1.2690100259443298,-7.121764126467614,-7.518150565058705
1621785279340.796,0.099,0.061,0.592,-1.4331070313530627,-6.9669556307989975,-7.51195822523196
1621785279345.948,0.141,0.066,0.592,-1.5970486639403134,-6.8122937132638555,-7.505771748530554
1621785279349.089,0.15808470074931236,0.05989832116095988,0.592610167883904,-1.697,-6.718,-7.502
1621785279351.096,0.169,0.056,0.593,-1.7372337066760737,-6.662301084751742,-7.421411764705882
1621785279356.239,0.19,0.063,0.592,-1.8403435929094276,-6.519557368374636,-7.214882352941176
1621785279361.377,0.204,0.068,0.583,-1.9433506923009083,-6.37695594849634,-7.008558823529412
1621785279365.699,0.19642490372272145,0.0722083868207103,0.5813166452717158,-2.03,-6.257,-6.835
1621785279366.512,0.195,0.073,0.581,-2.0271036648288465,-6.242076510304567,-6.80755845151399
1621785279371.641,0.187,0.093,0.578,-2.0088306601409323,-6.1479240793702274,-6.634429474894596
1621785279376.767,0.166,0.11,0.574,-1.9905689624671994,-6.05382990830557,-6.461407627443465
1621785279381.887,0.147,0.131,0.572,-1.9723290090515082,-5.959847775451839,-6.28859179762361
1621785279382.26,0.14452078262944404,0.1320208542114054,0.5716354092102123,-1.971,-5.953,-6.276
1621785279387.003,0.113,0.145,0.567,-1.9485991425826004,-5.9472561904057955,-6.222582570773893
1621785279392.115,0.091,0.169,0.56,-1.9244548303644025,-5.941065341119078,-6.1650076724074205
1621785279397.222,0.066,0.199,0.567,-1.9003347327962157,-5.934880700716978,-6.107490516667898
1621785279398.775,0.059304851210410486,0.2063037986795522,0.5654783752750933,-1.893,-5.933,-6.09
1621785279402.325,0.044,0.223,0.562,-1.9246891316916965,-5.954126087794464,-6.100563043897232
1621785279407.423,0.031,0.227,0.559,-1.970197174328792,-5.984464782885861,-6.115732391442931
1621785279412.516,0.026,0.244,0.545,-2.0156594517664153,-6.0147729678442765,-6.130886483922138
1621785279415.243,0.028679188255613126,0.25846761658031087,0.538034110535406,-2.04,-6.031,-6.139
1621785279417.605,0.031,0.271,0.532,-2.0074915627183656,-6.0494118582834036,-6.147486715927506
1621785279422.69,0.042,0.29,0.52,-1.9375085413538307,-6.089048259764202,-6.165756619735062
1621785279427.769,0.049,0.318,0.504,-1.867606161074025,-6.128638988418251,-6.184005471224038
1621785279431.664,0.05590749025833454,0.340257468610189,0.5001625054120363,-1.814,-6.159,-6.198
1621785279432.844,0.058,0.347,0.499,-1.7864709829416676,-6.1688729720863655,-6.18596506322319
1621785279437.915,0.059,0.375,0.497,-1.6681582965525468,-6.211304485267804,-6.1342419778122395
1621785279442.981,0.058,0.403,0.497,-1.5499652272456161,-6.25369309912919,-6.082571185733031
1621785279448.037,0.058998842480949165,0.43496295939037327,0.497,-1.432,-6.296,-6.031
1621785279448.043,0.059,0.435,0.497,-1.4320211725653793,-6.295933252590499,-6.0309648320100475
1621785279453.101,0.059,0.471,0.499,-1.4502983896290316,-6.238313551338986,-6.000606064683981
1621785279458.153,0.061,0.506,0.489,-1.4685535519370805,-6.180763378639035,-5.970283930680782
1621785279463.202,0.07,0.548,0.473,-1.4867972457722156,-6.1232493607858975,-5.939980846005472
1621785279464.365,0.06953875199690178,0.5523818560294331,0.4693100159752142,-1.491,-6.11,-5.933
1621785279468.245,0.068,0.567,0.457,-1.4496994802677943,-6.096233160089265,-5.887266091143998
1621785279473.426,0.072,0.592,0.445,-1.3945532945736434,-6.077851098191215,-5.826200258397932
1621785279478.603,0.068,0.62,0.443,-1.339448687455955,-6.059482895818652,-5.765180467465351
1621785279480.994,0.06337913461992167,0.6334005096022272,0.43930330769593734,-1.314,-6.051,-5.737
1621785279483.777,0.058,0.649,0.435,-1.3204973402700648,-6.051,-5.725504705676039
1621785279488.948,0.054,0.681,0.422,-1.3325687145612908,-6.051,-5.704147658853101
1621785279494.116,0.044,0.707,0.405,-1.344633249546969,-6.051,-5.682802712339978
1621785279497.7,0.039142749101909624,0.7215717526942711,0.39181603327661185,-1.353,-6.051,-5.668
1621785279499.281,0.037,0.728,0.386,-1.3660845522027496,-6.049103688086558,-5.71635595379277
1621785279504.442,0.033,0.752,0.367,-1.4087952299380684,-6.0429137347915844,-5.8741997628146
1621785279509.601,0.031,0.768,0.34,-1.451491764395836,-6.03672583124698,-6.031991303202003
1621785279514.375,0.03933306501254794,0.7744812727875373,0.32055618163738814,-1.491,-6.031,-6.178
1621785279514.757,0.04,0.775,0.319,-1.5015839421412436,-6.026040929495642,-6.19737710882258
1621785279519.91,0.061,0.78,0.284,-1.6443217586480063,-5.959161605492474,-6.458701874834961
1621785279525.06,0.086,0.789,0.25,-1.7869851832291759,-5.892317137575918,-6.719890443916322
1621785279530.207,0.113,0.775,0.215,-1.9295606900800986,-5.825513863216266,-6.980918052988294
1621785279531.017,0.11583455149501662,0.771063122923588,0.2083860465116279,-1.952,-5.815,-7.022
1621785279535.351,0.131,0.75,0.173,-2.100216022343084,-5.799865265324122,-7.12168049389975
1621785279540.492,0.154,0.721,0.141,-2.276026341320006,-5.78191280317507,-7.23991912391592
1621785279545.63,0.173,0.691,0.096,-2.4517364692047625,-5.7639705718065555,-7.358090371894752
1621785279547.626,0.17883083725574098,0.6808932154233823,0.08161726810250558,-2.52,-5.757,-7.404
1621785279550.765,0.188,0.665,0.059,-2.5237863705972434,-5.740150650842266,-7.452276225114854
1621785279555.897,0.195,0.62,0.024,-2.529977029096478,-5.712602220520674,-7.531207120980092
1621785279561.026,0.194,0.583,-0.003,-2.5361638591117917,-5.6850708269525265,-7.6100892036753445
1621785279564.206,0.18655550792970424,0.5625276468066867,-0.016027861123017576,-2.54,-5.668,-7.659
1621785279566.152,0.182,0.55,-0.024,-2.4776714370020656,-5.692225818825612,-7.6901642814989675
1621785279571.274,0.161,0.513,-0.031,-2.31362791383889,-5.755986131602243,-7.772186043080555
1621785279576.394,0.119,0.476,-0.038,-2.1496391265860133,-5.819725169666568,-7.854180436706994
1621785279580.754,0.07724982107924996,0.4478825325635765,-0.027775466386755092,-2.01,-5.874,-7.924
1621785279581.511,0.07,0.443,-0.026,-1.9538440558200039,-5.9072809922242255,-7.953201090973598
1621785279586.625,0.026,0.408,-0.005,-1.5745152706738017,-6.13209135795169,-8.150452059249623
1621785279591.735,-0.007,0.375,0.024,-1.1954762291931527,-6.356730006208792,-8.347552360819561
1621785279596.843,-0.033,0.333,0.061,-0.8166001685243771,-6.581272063388818,-8.544567912367324
1621785279597.269,-0.03508632233381157,0.3299956958393114,0.06467192730750837,-0.785,-6.6,-8.561
1621785279601.948,-0.058,0.297,0.105,-0.5817632335081016,-6.764065434402678,-8.7503281050979
1621785279607.05,-0.068,0.258,0.138,-0.360148730708848,-6.942966527444533,-8.956776252258656
1621785279612.149,-0.065,0.195,0.166,-0.13867208744334847,-7.121756331644894,-9.163095974406824
1621785279613.753,-0.053354412187410175,0.18083644725495832,0.1710359298649037,-0.069,-7.178,-9.228
1621785279617.245,-0.028,0.15,0.182,-0.13968368255475752,-7.178,-9.292528046536475
1621785279622.337,0.038,0.101,0.182,-0.24274428681664392,-7.178,-9.386613402979759
1621785279627.427,0.136,0.065,0.171,-0.3457703003502107,-7.178,-9.480667181100493
1621785279630.205,0.20098852946822807,0.053531435976195044,0.16226204645805337,-0.402,-7.178,-9.532
1621785279632.514,0.255,0.044,0.155,-0.4419605421731562,-7.093857731621312,-9.387072681555102
1621785279637.589,0.375,0.009,0.138,-0.5298002112749401,-6.908899555132344,-9.068499233756379
1621785279642.666,0.487,0.003,0.11,-0.61766945886834,-6.723879097171594,-8.749818511850739
1621785279646.614,0.5616964345859596,0.007668527161622479,0.08821353991242843,-0.686,-6.58,-8.502
1621785279647.74,0.583,0.009,0.082,-0.6684657084923664,-6.528772364026717,-8.373896529103055
1621785279652.81,0.649,0.026,0.058,-0.5895119722089694,-6.298103605081107,-7.797069820491413
1621785279657.878,0.698,0.049,0.047,-0.5105924528864504,-6.067534813334923,-7.22049309697042
1621785279662.943,0.716,0.075,0.031,-0.4317147542938931,-5.837088203721374,-6.644221910782443
1621785279662.989,0.7159183752231173,0.07529929084856964,0.031,-0.431,-5.835,-6.639
1621785279668.004,0.707,0.108,0.031,-0.33189262827694377,-5.612238539099261,-6.217716961684966
1621785279673.062,0.677,0.15,0.026,-0.23193125700201658,-5.387557562177907,-5.792803764284114
1621785279678.118,0.616,0.173,0.03,-0.13201330943311673,-5.162974187766077,-5.368075151243558
1621785279679.333,0.5941130333929348,0.18141806407964045,0.03168361281592809,-0.108,-5.109,-5.266
1621785279683.17,0.525,0.208,0.037,-0.03884527194899273,-5.0676012512347715,-5.102286766246595
1621785279688.219,0.422,0.241,0.04,0.052156823420241236,-5.013123806387883,-4.886853234352082
1621785279693.265,0.298,0.271,0.056,0.14310171520938725,-4.958680605861047,-4.671555123177777
1621785279695.645,0.2356879721092388,0.2837456420685648,0.06496915552973077,0.186,-4.933,-4.57
1621785279698.307,0.166,0.298,0.075,0.21805273657212282,-5.030793553419027,-4.629362976406534
1621785279703.347,0.031,0.323,0.101,0.2787421517601356,-5.215958197717148,-4.7417622504537205
1621785279708.383,-0.091,0.349,0.131,0.33938453000554963,-5.400979331343462,-4.8540744101633395
1621785279711.922,-0.16903753819292888,0.3588425723846937,0.15068514476938746,0.382,-5.531,-4.933
1621785279713.417,-0.202,0.363,0.159,0.34233646952731644,-5.594130352446081,-5.072880664312016
1621785279718.447,-0.279,0.374,0.178,0.20887448711204631,-5.806554760652288,-5.543558653340347
1621785279723.473,-0.316,0.375,0.197,0.07552262718869768,-6.018803892688059,-6.013848275343804
1621785279728.166,-0.33187982895184415,0.3740658924145974,0.2007364303416104,-0.049,-6.217,-6.453
1621785279728.497,-0.333,0.374,0.201,-0.06241119089554261,-6.228818994716163,-6.47920999864517
1621785279733.518,-0.314,0.361,0.199,-0.2658142528112722,-6.4080737479113035,-6.876728311430249
1621785279738.539,-0.279,0.353,0.197,-0.46921731472700173,-6.587328501106445,-7.274246624215328
1621785279743.553,-0.229,0.328,0.197,-0.6723335591383282,-6.766330488190399,-7.671204398681299
1621785279744.384,-0.21772463344536996,0.3253469725753812,0.19384952993326515,-0.706,-6.796,-7.737
1621785279748.565,-0.161,0.312,0.178,-0.8351595016140223,-6.801166380064561,-7.851176999426796
1621785279753.574,-0.079,0.291,0.155,-0.989902012248469,-6.807356080489939,-7.987969378827647
1621785279758.58,-0.005,0.269,0.136,-1.1445540169547772,-6.813542160678191,-8.124681750988023
1621785279760.569,0.023227454616435682,0.25508505758344724,0.12685589498340816,-1.206,-6.816,-8.179
1621785279763.583,0.066,0.234,0.113,-1.198721768707483,-6.722502721088436,-8.085689342403628
1621785279768.583,0.124,0.19,0.086,-1.1866473922902494,-6.567393424036282,-7.930889644746788
1621785279773.579,0.159,0.168,0.065,-1.174582448979592,-6.412405306122449,-7.776210884353742
1621785279776.719,0.17220624908317442,0.14661845386533667,0.05179375091682558,-1.167,-6.315,-7.679
1621785279778.572,0.18,0.134,0.044,-1.1264166830760842,-6.264299595570972,-7.573000515003256
1621785279783.562,0.176,0.113,0.033,-1.0171304624426303,-6.127769217952408,-7.287556052045623
1621785279788.549,0.157,0.093,0.024,-0.9079084051560914,-5.991318999076023,-7.002279177206562
1621785279792.837,0.12516114649681528,0.08525541401273885,0.01711592356687898,-0.814,-5.874,-6.757
1621785279793.532,0.12,0.084,0.016,-0.8008636563709494,-5.869765257645898,-6.7464131441147455
1621785279798.513,0.072,0.084,0.014,-0.7067267815132428,-5.83941850193519,-6.670546254837975
1621785279803.49,0.017,0.082,0.016,-0.6126637322607573,-5.809095545268271,-6.594738863170676
1621785279808.464,-0.03,0.082,0.012,-0.5186560522121879,-5.778790437884192,-6.51897609471048
1621785279808.922,-0.033501203280781884,0.08135504150090861,0.012460684642208144,-0.51,-5.776,-6.512
1621785279813.435,-0.068,0.075,0.017,-0.5265855346198883,-5.87523209696306,-6.638780951077451
1621785279818.403,-0.103,0.068,0.023,-0.5448435299663914,-5.984470611493833,-6.7783463053363135
1621785279823.367,-0.127,0.054,0.019,-0.5630862721839499,-6.093617865778548,-6.917795063643414
1621785279824.976,-0.13154193738924985,0.04848479031305375,0.016080183106910808,-0.569,-6.129,-6.963
1621785279828.327,-0.141,0.037,0.01,-0.6057012063569236,-6.192392992798323,-7.116269242456471
1621785279833.286,-0.136,0.016,0.005,-0.6600163177246345,-6.286210003342551,-7.343096554134128
1621785279838.282,-0.115,-0.01,-0.007,-0.7147378832538211,-6.380729071074782,-7.571621273815674
1621785279841.045,-0.09775949678116862,-0.021122905302471864,-0.015898324241977492,-0.745,-6.433,-7.698
1621785279843.25,-0.084,-0.03,-0.023,-0.7477498021068014,-6.458573159593254,-7.7316850758083175
1621785279848.215,-0.038,-0.063,-0.037,-0.7539414236132254,-6.516155239602996,-7.807532439262011
1621785279853.178,0.01,-0.086,-0.056,-0.7601303050599769,-6.573711837057784,-7.883346236984717
1621785279857.083,0.053319135316131576,-0.10647813669489856,-0.06860193027378372,-0.765,-6.619,-7.943
1621785279858.136,0.065,-0.112,-0.072,-0.7443431765836397,-6.610645170146886,-7.912672625493815
1621785279863.092,0.117,-0.147,-0.086,-0.6471176919205015,-6.571321486859566,-7.769930751513857
1621785279868.044,0.159,-0.161,-0.103,-0.5499736276139778,-6.5320307347355895,-7.627308415063833
1621785279872.994,0.19,-0.175,-0.119,-0.4528678787693904,-6.492755479629658,-7.484742331569073
1621785279873.089,0.19034651266103955,-0.17532726195764844,-0.11905775211017325,-0.451,-6.492,-7.482
1621785279877.94,0.208,-0.192,-0.122,-0.3140352464654184,-6.396640947649981,-7.2259882766526555
1621785279882.884,0.206,-0.199,-0.133,-0.17443721818876579,-6.299448528849828,-6.965054489873902
1621785279887.824,0.19,-0.199,-0.133,-0.03495637753152464,-6.202337699656095,-6.704339747802828
1621785279889.062,0.18348007120957374,-0.1979969340322421,-0.1314954010483632,0.0,-6.178,-6.639
1621785279892.761,0.164,-0.195,-0.127,0.09326976202872807,-6.139253606321399,-6.50257557195798
1621785279897.695,0.131,-0.183,-0.124,0.21768279685155129,-6.087569584392515,-6.320598297142507
1621785279902.626,0.082,-0.171,-0.119,0.3420158034975958,-6.035918807999755,-6.138738078466203
1621785279905.005,0.058345999504582614,-0.16424171414416647,-0.11127624473619023,0.402,-6.011,-6.051
1621785279907.554,0.033,-0.157,-0.103,0.42875946899938616,-6.031510251688152,-6.051
1621785279912.479,-0.01,-0.136,-0.089,0.4804612952731737,-6.071137998772253,-6.051
1621785279917.4,-0.047,-0.113,-0.079,0.5321195518723143,-6.110732351135666,-6.051
1621785279920.913,-0.0748585256887565,-0.09442764954082898,-0.0661422189128816,0.569,-6.139,-6.051
1621785279922.318,-0.086,-0.087,-0.061,0.5603601826036336,-6.156279634792733,-6.086440883605503
1621785279927.234,-0.112,-0.056,-0.047,0.5301320812524893,-6.216735837495022,-6.210437789147952
1621785279932.146,-0.131,-0.037,-0.037,0.49992649897362046,-6.277147002052759,-6.3343423205367815
1621785279936.85,-0.12721546771421557,-0.013346673213847287,-0.03132320157132335,0.471,-6.335,-6.453
1621785279937.118,-0.127,-0.012,-0.031,0.4695031123512817,-6.339120645774561,-6.458768904084386
1621785279942.05,-0.134,0.012,-0.019,0.44193690972648103,-6.4150051361462035,-6.565007190604685
1621785279946.978,-0.127,0.037,-0.012,0.4143939040843861,-6.490825769655341,-6.6711560775174785
1621785279951.903,-0.115,0.047,-0.012,0.3868672727830247,-6.566601327732124,-6.777241858824973
1621785279952.774,-0.11110744047619048,0.051600297619047615,-0.009876785714285715,0.382,-6.58,-6.796
1621785279956.825,-0.093,0.073,0.0,0.37206040917887756,-6.604976407704359,-6.838561837618653
1621785279961.745,-0.079,0.084,0.005,0.3599882960095844,-6.635311461309249,-6.890255245292293
1621785279966.661,-0.061,0.096,0.012,0.3479269652566584,-6.665619420637115,-6.941902482106104
1621785279968.669,-0.05323593998410175,0.10253815580286169,0.014860443163751987,0.343,-6.678,-6.963
1621785279971.575,-0.042,0.112,0.019,0.3250492436483388,-6.6529055753043105,-6.957504870504594
1621785279976.486,-0.026,0.108,0.026,0.2947125709801025,-6.610496145145653,-6.9482181339735005
1621785279981.393,-0.023,0.108,0.037,0.26440153578628256,-6.568122555129803,-6.938939245648862
1621785279984.534,-0.018517644716539744,0.11376302822159176,0.040201682345328754,0.245,-6.541,-6.933
1621785279986.298,-0.016,0.117,0.042,0.2384264524485013,-6.524621839151351,-6.917735999753299
1621785279991.2,-0.016,0.115,0.047,0.22016134205008017,-6.4791138522264715,-6.875323794251881
1621785279996.099,-0.014,0.126,0.052,0.20190623843591957,-6.433630797458986,-6.832934824842729
1621785280000.368,-0.021849019901241957,0.12861633996708066,0.053744226644720436,0.186,-6.394,-6.796
1621785280000.994,-0.023,0.129,0.054,0.18758423182674783,-6.391663258055547,-6.79754462603108
1621785280005.887,-0.026,0.136,0.059,0.19996768513083507,-6.3733976644320185,-6.8096184930025645
1621785280010.777,-0.031,0.131,0.061,0.21234372393339307,-6.3551430071982455,-6.821685130835058
1621785280015.665,-0.04,0.14,0.068,0.22471420185980415,-6.336896552256789,-6.833746346813309
1621785280016.173,-0.039791952011997,0.14031207198200452,0.068,0.226,-6.335,-6.835
1621785280020.549,-0.038,0.143,0.068,0.226,-6.340549054208848,-6.870513946936628
1621785280025.43,-0.042,0.141,0.072,0.226,-6.346738336274419,-6.91012535215628
1621785280030.308,-0.037,0.157,0.075,0.226,-6.352924212872667,-6.949714962385065
1621785280031.945,-0.033362268803945744,0.15633859432799013,0.07433859432799013,0.226,-6.355,-6.963
1621785280035.258,-0.026,0.155,0.073,0.221831413387399,-6.363128743894572,-6.999683562190889
1621785280040.16,-0.024,0.161,0.075,0.2156636254723067,-6.375155930329003,-7.053960095843701
1621785280045.06,-0.012,0.161,0.08,0.20949798789666083,-6.387178923601511,-7.108217706509385
1621785280047.84,-0.0068896479505335595,0.16270345068315548,0.08,0.206,-6.394,-7.139
1621785280049.956,-0.003,0.164,0.08,0.206,-6.401896977746205,-7.141676941608883
1621785280054.85,0.005,0.157,0.084,0.206,-6.420161984772906,-7.1478684694145445
1621785280059.741,0.017,0.157,0.08,0.206,-6.438415146788566,-7.154055981962226
1621785280063.649,0.02179706308376205,0.15540097897207933,0.08559657359772238,0.206,-6.453,-7.159
1621785280064.629,0.023,0.155,0.087,0.2035781494144402,-6.4554218505855605,-7.159
1621785280069.515,0.033,0.155,0.094,0.19150328748897724,-6.467496712511023,-7.159
1621785280074.397,0.044,0.152,0.094,0.17943807917820512,-6.479561920821795,-7.159
1621785280079.278,0.051,0.145,0.099,0.1673752842711057,-6.491624715728895,-7.159
1621785280079.43,0.0510311373648378,0.14484431317581095,0.09918682418902684,0.167,-6.492,-7.159
1621785280084.155,0.052,0.14,0.105,0.12560171120342242,-6.480300483600967,-7.164699764399528
1621785280089.029,0.065,0.129,0.11,0.0828986297972596,-6.468232221464443,-7.170579174158348
1621785280093.901,0.072,0.126,0.11,0.04021479942959885,-6.4561693998388,-7.176455933411867
1621785280095.181,0.07331443040513437,0.12731443040513438,0.11078865824308062,0.029,-6.453,-7.178
1621785280098.77,0.077,0.131,0.113,0.002289172904307857,-6.444096390968102,-7.160192781936205
1621785280103.636,0.093,0.119,0.112,-0.03392424760070814,-6.4320252507997635,-7.136050501599527
1621785280108.5,0.099,0.113,0.11,-0.07012313258999285,-6.419958955803335,-7.111917911606671
1621785280110.902,0.1054239365175029,0.1115175531113455,0.10901170207423032,-0.088,-6.414,-7.1
1621785280113.361,0.112,0.11,0.108,-0.09113408221053614,-6.401620375268382,-7.076964495752559
1621785280118.219,0.119,0.119,0.105,-0.09732569934965926,-6.377163487568846,-7.031456109780004
1621785280123.074,0.129,0.108,0.103,-0.10351358247502879,-6.3527213492236365,-6.9859751688085385
1621785280126.594,0.13045064895864775,0.10654935104135224,0.1000987020827045,-0.108,-6.335,-6.953
1621785280127.927,0.131,0.106,0.099,-0.10629800498753117,-6.3299791147132165,-6.937937344139651
1621785280132.776,0.127,0.106,0.099,-0.10010692019950124,-6.311715414588528,-6.883146243765586
1621785280137.623,0.127,0.101,0.103,-0.0939180174563591,-6.293458151496259,-6.828374454488778
1621785280142.258,0.11551771584093544,0.10482742805302152,0.09917257194697848,-0.088,-6.276,-6.776
1621785280142.467,0.115,0.105,0.099,-0.08826729535199612,-6.276,-6.775224843479211
1621785280147.309,0.106,0.099,0.099,-0.09446036628206529,-6.276,-6.75726493778201
1621785280152.147,0.091,0.098,0.099,-0.10064812877640555,-6.276,-6.7393204265484234
1621785280156.983,0.084,0.094,0.099,-0.106833393183344,-6.276,-6.721383159768302
1621785280157.895,0.08173530006061831,0.09381127500505153,0.099,-0.108,-6.276,-6.718
1621785280161.816,0.072,0.093,0.099,-0.108,-6.285797891311829,-6.732571222976566
1621785280166.646,0.063,0.091,0.091,-0.108,-6.297867722053625,-6.750521227669493
1621785280171.474,0.056,0.087,0.094,-0.108,-6.3099326721521765,-6.768463973969903
1621785280173.502,0.053898172984462776,0.08784073080621488,0.09273890379067766,-0.108,-6.315,-6.776
1621785280176.298,0.051,0.089,0.091,-0.11500017239217653,-6.322179663991976,-6.790179836384152
1621785280181.121,0.049,0.087,0.084,-0.12707459879638916,-6.33456369107322,-6.814638289869609
1621785280185.94,0.054,0.086,0.079,-0.13913863465396187,-6.346937061183551,-6.839075695837513
1621785280189.08,0.054,0.08143692666362576,0.07443692666362577,-0.147,-6.355,-6.855
1621785280190.757,0.054,0.079,0.072,-0.14484292174349955,-6.346479540886824,-6.855
1621785280195.57,0.054,0.075,0.063,-0.1386521165682703,-6.3220258604446675,-6.855
1621785280200.381,0.058,0.073,0.061,-0.1324638236402462,-6.297582103378972,-6.855
1621785280204.629,0.058883332487180785,0.07035000253845763,0.052166675128192105,-0.127,-6.276,-6.855
1621785280205.19,0.059,0.07,0.051,-0.127,-6.272458109872136,-6.847916219744271
1621785280209.995,0.051,0.073,0.045,-0.127,-6.242122391205196,-6.787244782410393
1621785280214.798,0.045,0.066,0.035,-0.127,-6.211800544170612,-6.726601088341224
1621785280219.598,0.038,0.063,0.033,-0.127,-6.181498733938317,-6.665997467876633
1621785280220.152,0.036036432096880885,0.063,0.03242248002849438,-0.127,-6.178,-6.659
1621785280224.396,0.021,0.063,0.028,-0.11631558210272494,-6.16457598777009,-6.6321519755401805
1621785280229.19,-0.003,0.07,0.031,-0.10424636333548723,-6.149412097524073,-6.601824195048147
1621785280233.982,-0.023,0.063,0.026,-0.0921820617484358,-6.1342543852736755,-6.571508770547352
1621785280235.643,-0.03132463295269168,0.06230628058727569,0.025306280587275694,-0.088,-6.129,-6.561
1621785280238.771,-0.047,0.061,0.024,-0.09204623547246084,-6.1389132769075285,-6.588716712986357
1621785280243.557,-0.07,0.059,0.023,-0.0982371778676099,-6.154081085775644,-6.631124668393128
1621785280248.341,-0.094,0.059,0.023,-0.10442590955027792,-6.16924347839818,-6.673517480419404
1621785280251.104,-0.10209224168752234,0.05610991368302773,0.023,-0.108,-6.178,-6.698
1621785280253.121,-0.108,0.054,0.023,-0.12342051817405333,-6.193420518174054,-6.726227389199963
1621785280257.899,-0.126,0.052,0.019,-0.15994672740501725,-6.229946727405017,-6.7930889247413875
1621785280262.675,-0.127,0.049,0.016,-0.1964598715636962,-6.266459871563696,-6.859926544557275
1621785280266.539,-0.1326681162386166,0.03766376752276681,0.007092960196459636,-0.226,-6.296,-6.914
1621785280267.447,-0.134,0.035,0.005,-0.2282987716934781,-6.301776400665664,-6.9261422299706785
1621785280272.217,-0.126,0.028,0.003,-0.24037551311514385,-6.332123084238054,-6.98993219747999
1621785280276.983,-0.122,0.016,0.0,-0.2524417465726286,-6.362443363182503,-7.053666661383628
1621785280281.747,-0.112,0.012,-0.012,-0.26450365322133296,-6.392752769633093,-7.1173782708613995
1621785280281.943,-0.11121762986513513,0.01150587149376955,-0.012082354751038409,-0.265,-6.394,-7.12
1621785280286.508,-0.093,0.0,-0.014,-0.2474836138456653,-6.388062241981581,-7.108124483963163
1621785280291.267,-0.082,-0.012,-0.021,-0.22922246744998412,-6.3818720228644015,-7.095744045728803
1621785280296.023,-0.079,-0.023,-0.024,-0.2109734995236583,-6.375685932041918,-7.083371864083836
1621785280297.319,-0.07709107252927881,-0.02245459215122252,-0.026999743168276146,-0.206,-6.374,-7.08
1621785280300.776,-0.072,-0.021,-0.035,-0.1794196350446251,-6.378505146602605,-7.042607283198371
1621785280305.526,-0.075,-0.024,-0.035,-0.1428953338530315,-6.384695706126605,-6.99122563914918
1621785280310.274,-0.072,-0.028,-0.04,-0.10638605087738835,-6.390883720190273,-6.939865122420732
1621785280312.665,-0.0699843589215888,-0.031527371887219595,-0.04,-0.088,-6.394,-6.914
1621785280315.019,-0.068,-0.035,-0.04,-0.07893305919479773,-6.388006598450799,-6.9169198622932
1621785280319.761,-0.07,-0.035,-0.042,-0.060668467693092344,-6.375933393898824,-6.922801679895445
1621785280324.5,-0.066,-0.04,-0.04,-0.04241516049854962,-6.363867648465144,-6.928679863568264
1621785280327.983,-0.07114672988713086,-0.03852950574653404,-0.0436762356336649,-0.029,-6.355,-6.933
1621785280329.237,-0.073,-0.038,-0.045,-0.02662115163515585,-6.3517188298415945,-6.93866001852325
1621785280333.971,-0.068,-0.037,-0.04,-0.01764200625958099,-6.339333801737354,-6.960024192003066
1621785280338.702,-0.068,-0.044,-0.045,-0.008668417858967808,-6.326956438426163,-6.981375143714869
1621785280343.272,-0.06510022720231333,-0.04206681813487556,-0.04403340906743777,0.0,-6.315,-7.002
1621785280343.43,-0.065,-0.042,-0.044,-0.00010349847231775791,-6.315206996944636,-7.002807288084078
1621785280348.156,-0.063,-0.038,-0.042,-0.0032001343720506133,-6.321400268744101,-7.026961048101994
1621785280352.878,-0.058,-0.04,-0.044,-0.006294050837425815,-6.327588101674852,-7.0510935965319215
1621785280357.598,-0.054,-0.045,-0.044,-0.009386687568985651,-6.333773375137971,-7.075216163038088
1621785280358.534,-0.05261122897800776,-0.045,-0.04360320827943079,-0.01,-6.335,-7.08
1621785280362.316,-0.047,-0.045,-0.042,-0.01968265085343377,-6.335,-7.094648112829554
1621785280367.03,-0.04,-0.051,-0.045,-0.03175174292811924,-6.335,-7.112906482891257
1621785280371.742,-0.031,-0.052,-0.044,-0.04381520955204744,-6.335,-7.131156342655662
1621785280373.767,-0.025839278307756116,-0.054580360846121945,-0.04443006014102032,-0.049,-6.335,-7.139
1621785280376.451,-0.019,-0.058,-0.045,-0.0525304696908872,-6.335,-7.13211558410277
1621785280381.157,-0.009,-0.066,-0.056,-0.05872107587314332,-6.335,-7.120043902047371
1621785280385.861,0.0,-0.058,-0.056,-0.06490911280610197,-6.335,-7.107977230028101
1621785280388.971,0.0013233598254636123,-0.061308399563659036,-0.05467664017453639,-0.069,-6.335,-7.1
1621785280390.561,0.002,-0.063,-0.054,-0.06690420414139302,-6.332904204141393,-7.091826396151433
1621785280395.259,0.009,-0.068,-0.058,-0.06071206538702879,-6.326712065387029,-7.067677055009412
1621785280399.955,0.016,-0.072,-0.059,-0.05452250092513636,-6.3205225009251365,-7.043537753608032
1621785280404.145,0.020465084816318035,-0.072,-0.06703715266937246,-0.049,-6.315,-7.022
1621785280404.647,0.021,-0.072,-0.068,-0.05029249814629743,-6.312415003707406,-7.0184207743641
1621785280409.337,0.021,-0.08,-0.066,-0.06236880621554531,-6.28826238756891,-6.984978690480029
1621785280414.023,0.024,-0.086,-0.063,-0.07443505593346014,-6.26412988813308,-6.951564460491957
1621785280418.708,0.024,-0.089,-0.066,-0.08649879106354169,-6.240002417872916,-6.918157193977884
1621785280419.291,0.02312814895947426,-0.08962275074323267,-0.06624910029729307,-0.088,-6.237,-6.914
1621785280423.389,0.017,-0.094,-0.068,-0.09342194944682225,-6.237,-6.903156101106355
1621785280428.067,0.016,-0.091,-0.07,-0.09961140272954858,-6.237,-6.890777194540902
1621785280432.743,0.005,-0.101,-0.068,-0.10579827182427522,-6.237,-6.87840345635145
1621785280434.407,0.0032195287602528604,-0.10278047123974714,-0.068,-0.108,-6.237,-6.874
1621785280437.416,0.0,-0.106,-0.068,-0.10401164954291724,-6.2330116495429175,-6.874
1621785280442.086,-0.007,-0.101,-0.068,-0.09782185907289054,-6.22682185907289,-6.874
1621785280446.754,-0.01,-0.11,-0.072,-0.09163465739017879,-6.220634657390178,-6.874
1621785280449.496,-0.011175633242620893,-0.11117563324262089,-0.072,-0.088,-6.217,-6.874
1621785280451.419,-0.012,-0.112,-0.072,-0.08557374710183699,-6.219553950419119,-6.876553950419119
1621785280456.081,-0.017,-0.105,-0.075,-0.07969110041020153,-6.225746210094525,-6.882746210094525
1621785280460.74,-0.024,-0.103,-0.072,-0.07381245845290789,-6.231934254260097,-6.888934254260097
1621785280464.554,-0.024,-0.10545693315858454,-0.0760948885976409,-0.069,-6.237,-6.894
1621785280465.397,-0.024,-0.106,-0.077,-0.06787822230885435,-6.237,-6.895121777691146
1621785280470.051,-0.031,-0.106,-0.075,-0.06168521676981304,-6.237,-6.901314783230187
1621785280474.701,-0.026,-0.113,-0.072,-0.055497734028556116,-6.237,-6.907502265971444
1621785280479.35,-0.026,-0.12,-0.072,-0.04931122589867291,-6.237,-6.913688774101327
1621785280479.584,-0.026100704299379794,-0.11959718280248081,-0.072,-0.049,-6.237,-6.914
1621785280483.995,-0.028,-0.112,-0.072,-0.054881127530759716,-6.214063602630037,-6.90811887246924
1621785280488.638,-0.033,-0.122,-0.073,-0.06107115422173036,-6.1899224985352514,-6.9019288457782695
1621785280493.278,-0.035,-0.117,-0.07,-0.06725760041663954,-6.165795358375106,-6.89574239958336
1621785280494.585,-0.03584552203443374,-0.11643631864371085,-0.07084552203443374,-0.069,-6.159,-6.894
1621785280497.915,-0.038,-0.115,-0.073,-0.069,-6.152327354260089,-6.889551569506726
1621785280502.55,-0.047,-0.119,-0.073,-0.069,-6.1430399510803095,-6.883359967386873
1621785280507.182,-0.054,-0.122,-0.073,-0.069,-6.133758907460252,-6.877172604973501
1621785280509.557,-0.05656526554506619,-0.122,-0.07146084067296028,-0.069,-6.129,-6.874
1621785280511.811,-0.059,-0.122,-0.07,-0.06296644393981474,-6.126134060871411,-6.877016778030092
1621785280516.437,-0.066,-0.126,-0.07,-0.050584355753050925,-6.120252568982699,-6.883207822123475
1621785280521.06,-0.082,-0.117,-0.072,-0.03821010929408113,-6.114374801914689,-6.88939494535296
1621785280524.501,-0.0887018544935806,-0.11402139800285307,-0.06902139800285306,-0.029,-6.11,-6.894
1621785280525.681,-0.091,-0.113,-0.068,-0.033667807097957046,-6.113876653352541,-6.898667807097957
1621785280530.299,-0.105,-0.108,-0.072,-0.05193725445259298,-6.129049584206391,-6.916937254452593
1621785280534.914,-0.106,-0.103,-0.068,-0.07019414614981666,-6.144212087480356,-6.935194146149817
1621785280539.415,-0.1147836950767602,-0.09812016940179989,-0.06995193223928005,-0.088,-6.159,-6.953
1621785280539.526,-0.115,-0.098,-0.07,-0.08829040988043103,-6.159431891617051,-6.953804211976578
1621785280544.136,-0.119,-0.101,-0.068,-0.10036928603060571,-6.177395348455772,-6.98725340746937
1621785280548.743,-0.119,-0.091,-0.068,-0.11243984647935837,-6.195346438353917,-7.020679574865915
1621785280553.347,-0.12,-0.099,-0.066,-0.12450273089602913,-6.2132861126146075,-7.054084485558234
1621785280554.3,-0.11896423644274647,-0.09837854186564789,-0.06641430542290142,-0.127,-6.217,-7.061
1621785280557.948,-0.115,-0.096,-0.068,-0.1513083116968482,-6.217,-7.061
1621785280562.547,-0.11,-0.101,-0.065,-0.18195480987281035,-6.217,-7.061
1621785280567.143,-0.106,-0.101,-0.068,-0.2125801590692477,-6.217,-7.061
1621785280569.157,-0.10293003349460365,-0.09968430006911586,-0.068,-0.226,-6.217,-7.061
1621785280571.735,-0.099,-0.098,-0.068,-0.23278082191780822,-6.217,-7.0542191780821915
1621785280576.326,-0.101,-0.103,-0.068,-0.24485530821917809,-6.217,-7.042144691780822
1621785280580.914,-0.094,-0.099,-0.066,-0.2569227311643836,-6.217,-7.030077268835616
1621785280583.985,-0.09333019169329074,-0.10502827476038339,-0.06867923322683707,-0.265,-6.217,-7.022
1621785280585.499,-0.093,-0.108,-0.07,-0.26295400554309095,-6.211066616074963,-7.023943694734064
1621785280590.08,-0.096,-0.105,-0.065,-0.25676290088425496,-6.193112412564339,-7.029825244159958
1621785280594.659,-0.098,-0.099,-0.063,-0.2505747657384189,-6.175166820641414,-7.035703972548502
1621785280598.784,-0.10250608064860252,-0.099,-0.056691487091956476,-0.245,-6.159,-7.041
1621785280599.236,-0.103,-0.099,-0.056,-0.24861252355605515,-6.160193969649883,-7.0398060303501175
1621785280603.811,-0.103,-0.112,-0.054,-0.2851649419777168,-6.1722748537045,-7.0277251462955
1621785280608.381,-0.106,-0.113,-0.051,-0.3216783482659437,-6.184342843918405,-7.015657156081595
1621785280612.949,-0.103,-0.115,-0.047,-0.35817419909412507,-6.196405031903991,-7.003594968096009
1621785280613.553,-0.10339685595123516,-0.11433857341460807,-0.04660314404876484,-0.363,-6.198,-7.002
1621785280617.515,-0.106,-0.11,-0.044,-0.3576249772286902,-6.218962588808108,-6.99662497722869
1621785280622.077,-0.106,-0.115,-0.047,-0.351435818028253,-6.243100309689813,-6.990435818028253
1621785280626.637,-0.106,-0.106,-0.044,-0.34524930858022956,-6.2672276965371045,-6.98424930858023
1621785280628.295,-0.10345382967327263,-0.10818243170862346,-0.03999887520085699,-0.343,-6.276,-6.982
1621785280631.195,-0.099,-0.112,-0.033,-0.33531311287726695,-6.29157087391528,-7.0129446481607465
1621785280635.749,-0.094,-0.108,-0.037,-0.3232427782110206,-6.3160210390084455,-7.061535482586405
1621785280640.301,-0.084,-0.106,-0.035,-0.31117762033549584,-6.340460717781944,-7.110105477110952
1621785280643.009,-0.084,-0.10540471206998336,-0.03380942413996673,-0.304,-6.355,-7.139
1621785280644.85,-0.084,-0.105,-0.033,-0.304,-6.3672862510390695,-7.158683075644223
1621785280649.396,-0.077,-0.099,-0.038,-0.304,-6.397623075644223,-7.207283906899418
1621785280653.939,-0.066,-0.096,-0.031,-0.304,-6.427940349127183,-7.255853416458853
1621785280657.694,-0.05442290322580645,-0.10013467741935485,-0.034307741935483874,-0.304,-6.453,-7.296
1621785280658.48,-0.052,-0.101,-0.035,-0.309790822020488,-6.455091130174066,-7.293908869825935
1621785280663.018,-0.044,-0.096,-0.035,-0.34322971599900054,-6.467166286332972,-7.2818337136670275
1621785280667.553,-0.026,-0.101,-0.037,-0.3766452236195552,-6.479232997418173,-7.269767002581827
1621785280672.085,-0.009,-0.106,-0.04,-0.4100391438327642,-6.491291913050721,-7.257708086949279
1621785280672.351,-0.00817758016707087,-0.10570627863109673,-0.04,-0.412,-6.492,-7.257
1621785280676.615,0.005,-0.101,-0.04,-0.42919799385806795,-6.5033681654316045,-7.168386607917752
1621785280681.142,0.023,-0.103,-0.033,-0.44745750717671406,-6.515438013218506,-7.074303691835236
1621785280685.666,0.037,-0.103,-0.037,-0.46570421924026967,-6.527499399158822,-6.980286734762
1621785280686.979,0.04135536119209588,-0.10387107223841917,-0.036419285174387216,-0.471,-6.531,-6.953
1621785280690.188,0.052,-0.106,-0.035,-0.5011140190979481,-6.500885980902051,-6.875406943492148
1621785280694.706,0.061,-0.101,-0.038,-0.5435128350920615,-6.458487164907939,-6.766160359215346
1621785280699.222,0.065,-0.089,-0.038,-0.5858910313226416,-6.416108968677358,-6.656966904694215
1621785280701.578,0.065,-0.08430185004868548,-0.039044033322514334,-0.608,-6.394,-6.6
1621785280703.735,0.065,-0.08,-0.04,-0.5964498667694524,-6.388224933384726,-6.566534229357644
1621785280708.245,0.056,-0.07,-0.037,-0.5723025590320256,-6.376151279516013,-6.496568953092792
1621785280712.753,0.045,-0.065,-0.031,-0.5481670158033216,-6.364083507901661,-6.426637763737829
1621785280716.146,0.03445580664390614,-0.058221589985368236,-0.03024684333170758,-0.53,-6.355,-6.374
1621785280717.258,0.031,-0.056,-0.03,-0.5202108797850907,-6.357982622565481,-6.3635225822699795
1621785280721.76,0.012,-0.038,-0.024,-0.48058159838818004,-6.370057169241102,-6.321106867024849
1621785280726.259,0.0,-0.031,-0.017,-0.44097810611148425,-6.3821238582941575,-6.278718754197448
1621785280730.687,-0.016738816503800217,-0.019184364820846907,-0.014046091205211726,-0.402,-6.394,-6.237
1621785280730.756,-0.017,-0.019,-0.014,-0.4023285327321366,-6.394185692413816,-6.23765230412033
1621785280735.25,-0.035,-0.01,-0.01,-0.4236970910375692,-6.406263573195148,-6.280079731480391
1621785280739.74,-0.047,-0.003,-0.002,-0.4450470750542591,-6.418330955465451,-6.322470279455557
1621785280744.229,-0.063,0.005,0.0,-0.46639241549876337,-6.4303957131079965,-6.364851607584501
1621785280745.198,-0.06364814109193838,0.00651232921452289,0.0006481410919383811,-0.471,-6.433,-6.374
1621785280748.714,-0.066,0.012,0.003,-0.518593862755016,-6.442470207384926,-6.412123655370089
1621785280753.197,-0.075,0.016,0.003,-0.5792742201989547,-6.454544360141629,-6.4607298600573255
1621785280757.677,-0.08,0.014,0.007,-0.6399149215983814,-6.46661062215478,-6.509304299443601
1621785280759.678,-0.08,0.01623470389355437,0.007,-0.667,-6.472,-6.531
1621785280762.154,-0.08,0.019,0.007,-0.6956081008039997,-6.455212012701844,-6.531
1621785280766.629,-0.087,0.028,0.005,-0.7473097256942098,-6.424872137017769,-6.531
1621785280771.1,-0.089,0.03,0.005,-0.7989690392541045,-6.394557090737112,-6.531
1621785280774.132,-0.09510603660202131,0.025929308931985796,0.0016077574433214967,-0.834,-6.374,-6.531
1621785280775.569,-0.098,0.024,0.0,-0.8378854773188896,-6.35835846310088,-6.529107075152336
1621785280780.035,-0.112,0.031,0.0,-0.8499604265402844,-6.309749052132701,-6.523224407582938
1621785280784.498,-0.122,0.042,-0.005,-0.8620281144211239,-6.261168872714962,-6.517345277589708
1621785280788.556,-0.13837357705779335,0.035632497810858144,-0.005,-0.873,-6.217,-6.512
1621785280788.959,-0.14,0.035,-0.005,-0.8719080317471085,-6.217,-6.512531984533459
1621785280793.417,-0.162,0.031,-0.009,-0.8598309025540142,-6.217,-6.518415714140351
1621785280797.872,-0.182,0.033,-0.009,-0.8477617101380456,-6.217,-6.524295577112234
1621785280802.325,-0.197,0.026,-0.007,-0.8356984703049214,-6.217,-6.530172540107858
1621785280802.952,-0.19995933710146518,0.025013554299511603,-0.007986445700488395,-0.834,-6.217,-6.531
1621785280806.774,-0.218,0.019,-0.014,-0.8260198124107931,-6.217,-6.601491657037993
1621785280811.22,-0.234,0.021,-0.019,-0.8167366954394073,-6.217,-6.683492523618568
1621785280815.665,-0.241,0.021,-0.021,-0.8074556174811391,-6.217,-6.765475378916604
1621785280817.32,-0.24211803188565145,0.02286338647608576,-0.024354095656954372,-0.804,-6.217,-6.796
1621785280820.106,-0.244,0.026,-0.03,-0.804,-6.2247715725669135,-6.832137812436151
1621785280824.545,-0.243,0.023,-0.033,-0.804,-6.237154600558469,-6.889718892596881
1621785280828.98,-0.244,0.024,-0.04,-0.804,-6.249526731594361,-6.947249301913778
1621785280831.659,-0.23977078515581984,0.023395826450831405,-0.04664590904085453,-0.804,-6.257,-6.982
1621785280833.414,-0.237,0.023,-0.051,-0.794432656543252,-6.264114178467838,-6.989236836717284
1621785280837.844,-0.234,0.017,-0.065,-0.770284729568333,-6.282070329295342,-7.007502576352159
1621785280842.271,-0.222,0.024,-0.073,-0.7461527725644088,-6.300014605016209,-7.025756236137179
1621785280845.968,-0.2144807172413793,0.023164524137931033,-0.07884833103448276,-0.726,-6.315,-7.041
1621785280846.696,-0.213,0.023,-0.08,-0.7199836886829551,-6.313011558124028,-7.037023116248055
1621785280851.118,-0.208,0.019,-0.084,-0.6834419614615214,-6.300934207601689,-7.0128684152033784
1621785280855.538,-0.202,0.026,-0.096,-0.6469143570366064,-6.288861524783285,-6.988723049566571
1621785280859.954,-0.201,0.031,-0.105,-0.6104210508318088,-6.276800177817292,-6.964600355634586
1621785280860.247,-0.20073449858952377,0.031,-0.10553100282095249,-0.608,-6.276,-6.963
1621785280864.368,-0.197,0.031,-0.113,-0.5626014698828206,-6.264722658123758,-6.920493096004934
1621785280868.779,-0.199,0.035,-0.115,-0.514004951003906,-6.252650911395874,-6.874991896799836
1621785280873.187,-0.204,0.038,-0.12,-0.4654433975193586,-6.240587850339204,-6.829523435893922
1621785280874.498,-0.2066780074250568,0.035917105336066936,-0.1191073308583144,-0.451,-6.237,-6.816
1621785280877.593,-0.213,0.031,-0.117,-0.41900770828683753,-6.228512249137324,-6.80729461449982
1621785280881.995,-0.218,0.037,-0.124,-0.3735038026403887,-6.216439784373981,-6.794912599357929
1621785280886.395,-0.232,0.042,-0.12,-0.3280226098302117,-6.204373345465158,-6.782536764579649
1621785280888.719,-0.23675685730149917,0.04464269850083287,-0.12369977790116601,-0.304,-6.198,-6.776
1621785280890.792,-0.241,0.047,-0.127,-0.2596018507370268,-6.209391630403,-6.796154423020692
1621785280895.187,-0.237,0.054,-0.12,-0.1654721271435697,-6.233543335798689,-6.838884363336143
1621785280899.578,-0.236,0.059,-0.117,-0.07143129396790451,-6.257672233784551,-6.881573952080359
1621785280902.913,-0.23144076093002558,0.06963822449660696,-0.11168088775169652,0.0,-6.276,-6.914
1621785280903.967,-0.23,0.073,-0.11,0.019717764870128753,-6.27161000706665,-6.922035919267826
1621785280908.354,-0.218,0.086,-0.108,0.10179062031403506,-6.253337182647064,-6.955484479222323
1621785280912.737,-0.218,0.093,-0.101,0.1837903962495045,-6.235080628759544,-6.988903255829987
1621785280917.078,-0.20908225590726703,0.10290860454748105,-0.09802741863575569,0.265,-6.217,-7.022
1621785280917.118,-0.209,0.103,-0.098,0.26641630827158574,-6.217113304661726,-7.021694077413338
1621785280921.496,-0.199,0.117,-0.093,0.4212861633590687,-6.229502893068725,-6.988242188714441
1621785280925.871,-0.183,0.127,-0.079,0.5760437501079503,-6.241883500008636,-6.954814549976683
1621785280930.243,-0.164,0.143,-0.059,0.7306890685182307,-6.254255125481458,-6.921411161200062
1621785280931.213,-0.1617804469273743,0.14854888268156424,-0.05522675977653631,0.765,-6.257,-6.914
1621785280934.613,-0.154,0.168,-0.042,0.8831009985635914,-6.247359102158073,-6.83349850301992
1621785280938.979,-0.136,0.18,-0.023,1.0347488880812694,-6.23497968260561,-6.730130349756849
1621785280943.344,-0.131,0.206,-0.002,1.1863628575878717,-6.222603032033643,-6.62678531748092
1621785280945.32,-0.1323593461344679,0.21551542294127526,0.006156076806807367,1.255,-6.217,-6.58
1621785280947.705,-0.134,0.227,0.016,1.293941004517672,-6.21104431695612,-6.5335762142220695
1621785280952.462,-0.145,0.239,0.04,1.371607759766144,-6.199165872035766,-6.440985258945459
1621785280957.495,-0.166,0.251,0.065,1.4537868721764549,-6.186597301902425,-6.343014866111207
1621785280960.938,-0.18241756002910503,0.26673349502789234,0.07457691001697793,1.51,-6.178,-6.276
1621785280962.528,-0.19,0.274,0.079,1.5138371956009427,-6.193447172034564,-6.295284367635507
1621785280967.526,-0.209,0.293,0.094,1.525897879025923,-6.241999154027433,-6.355897033053357
1621785280972.524,-0.237,0.316,0.113,1.5379591516103692,-6.29055350776482,-6.416512659375189
1621785280977.099,-0.2662926924579914,0.33339253614693243,0.11940777647518562,1.549,-6.335,-6.472
1621785280977.522,-0.269,0.335,0.12,1.5364321995464851,-6.346049191232049,-6.482028057445201
1621785280982.52,-0.298,0.367,0.127,1.3878825396825396,-6.476649100529101,-6.600558306878307
1621785280987.517,-0.33,0.386,0.129,1.2393619047619047,-6.607223492063492,-6.719065396825397
1621785280992.514,-0.346,0.414,0.119,1.0908485260770975,-6.737791504157218,-6.837566696900983
1621785280993.249,-0.3470297537619699,0.41753058432675394,0.11738181551690444,1.069,-6.757,-6.855
1621785280997.511,-0.353,0.438,0.108,0.8723824418710127,-6.831952196655882,-6.989597254558099
1621785281002.509,-0.34,0.436,0.084,0.6418070480452334,-6.919849393765307,-7.147440812747559
1621785281007.505,-0.314,0.433,0.063,0.4113330208931758,-7.0077079490823335,-7.30521497898588
1621785281009.398,-0.30225610709400036,0.4295904827047098,0.054286789134258356,0.324,-7.041,-7.365
1621785281012.502,-0.283,0.424,0.04,0.24842902084152577,-7.05984467164766,-7.33673299252851
1621785281017.498,-0.248,0.41,0.009,0.12679267370458877,-7.090176381620739,-7.291235427568892
1621785281022.495,-0.218,0.403,-0.016,0.005132550893856447,-7.120514020387792,-7.2457289694183125
1621785281025.54,-0.19971529101304794,0.39446713580608905,-0.03489419928651713,-0.069,-7.139,-7.218
1621785281027.491,-0.188,0.389,-0.047,-0.08797152578254953,-7.148546181763194,-7.1504517011946165
1621785281032.487,-0.169,0.377,-0.077,-0.13655534553152882,-7.172992817178286,-6.977468546801754
1621785281037.482,-0.161,0.375,-0.101,-0.18512729472251627,-7.197433479510056,-6.8045276576440346
1621785281041.685,-0.161,0.3665871774824081,-0.1203494917904613,-0.226,-7.218,-6.659
1621785281042.478,-0.161,0.365,-0.124,-0.2308139622812722,-7.214119356936526,-6.646965094296819
1621785281047.474,-0.154,0.353,-0.147,-0.26114429606327794,-7.189669393989806,-6.571139259841805
1621785281052.469,-0.15,0.339,-0.159,-0.2914672191890625,-7.165225404939429,-6.495331952027343
1621785281057.464,-0.148,0.321,-0.18,-0.3217916244460913,-7.140780221109784,-6.419520938884771
1621785281057.828,-0.14982071459993157,0.32027171416002737,-0.18138374309594799,-0.324,-7.139,-6.414
1621785281062.459,-0.173,0.311,-0.199,-0.324,-7.079899391996128,-6.4421158232251425
1621785281067.454,-0.173,0.291,-0.211,-0.324,-7.016153362170664,-6.4724416044042465
1621785281072.448,-0.164,0.29,-0.215,-0.324,-6.952422910553858,-6.502759974590883
1621785281073.97,-0.16034280127108286,0.28664756783182593,-0.21957149841114643,-0.324,-6.933,-6.512
1621785281077.442,-0.152,0.279,-0.23,-0.2521572132982424,-6.857070348186466,-6.5160868651117765
1621785281082.437,-0.15,0.278,-0.239,-0.14879574674047857,-6.747829037722721,-6.521966709017756
1621785281087.431,-0.147,0.276,-0.251,-0.04545953958314425,-6.638614423571407,-6.527845116011737
1621785281090.111,-0.14753666405944466,0.2749266718811107,-0.25582997653500195,0.01,-6.58,-6.531
1621785281092.425,-0.148,0.274,-0.26,0.08729475133523974,-6.570248528588504,-6.508485573358752
1621785281097.417,-0.15,0.276,-0.262,0.25404362035313877,-6.54921156552131,-6.45991493804185
1621785281102.411,-0.157,0.281,-0.265,0.4208577307733043,-6.528166371627857,-6.411325299199612
1621785281106.247,-0.16929018380915134,0.2879132283926476,-0.265,0.549,-6.512,-6.374
1621785281107.405,-0.173,0.29,-0.265,0.6039091253026635,-6.522551165254237,-6.383905175544794
1621785281112.398,-0.183,0.3,-0.262,0.8406678268765133,-6.568045974576271,-6.426614588377723
1621785281117.39,-0.197,0.314,-0.255,1.07738022094431,-6.61353188559322,-6.469315647699758
1621785281122.38,-0.20099745746137299,0.3249930080187757,-0.24600572071191082,1.314,-6.659,-6.512
1621785281122.383,-0.201,0.325,-0.246,1.31410602369532,-6.659026948508829,-6.512092451088683
1621785281127.377,-0.199,0.346,-0.236,1.4809302304468217,-6.701429390670157,-6.657560683320976
1621785281132.369,-0.183,0.363,-0.223,1.6476891918473573,-6.743815249133744,-6.802972022575617
1621785281137.362,-0.171,0.37,-0.211,1.8144889315922468,-6.786211472408419,-6.948418919941291
1621785281138.515,-0.16568737465146996,0.3739267230836961,-0.20730426062710952,1.853,-6.796,-6.982
1621785281142.353,-0.148,0.387,-0.195,1.9067665289568863,-6.849766528956886,-7.082395908052239
1621785281147.345,-0.126,0.394,-0.175,1.9766961910382712,-6.9196961910382715,-7.212972533708631
1621785281152.337,-0.089,0.391,-0.15,2.0466258531196564,-6.989625853119656,-7.343549159365022
1621785281154.648,-0.0695569248826291,0.39331465179968705,-0.14213018388106416,2.079,-7.022,-7.404
1621785281157.329,-0.047,0.396,-0.133,2.072517806062991,-7.074023761597021,-7.386049309097514
1621785281162.32,0.0,0.398,-0.115,2.060451197917455,-7.170866026970169,-7.352634086540644
1621785281167.312,0.037,0.408,-0.093,2.048382228746992,-7.267727241081833,-7.319212325760901
1621785281170.779,0.062007875556425174,0.3996640414811916,-0.07563341975248251,2.04,-7.335,-7.296
1621785281172.303,0.073,0.396,-0.068,2.022330396609143,-7.347094701786255,-7.254329972752044
1621785281177.293,0.105,0.403,-0.052,1.9644724947017862,-7.3866979715410235,-7.117884332425069
1621785281182.285,0.133,0.398,-0.031,1.9065919467151076,-7.426316742355435,-6.981385286103543
1621785281186.907,0.14689130753803256,0.38966521547718047,-0.017108692461967424,1.853,-7.463,-6.855
1621785281187.276,0.148,0.389,-0.016,1.8473964186243643,-7.460758567449746,-6.845348116977477
1621785281192.266,0.162,0.386,-0.003,1.7715941662630177,-7.430437666505207,-6.714782604746913
1621785281197.256,0.173,0.379,0.01,1.6957956224267376,-7.400118248970696,-6.5842234802615645
1621785281202.246,0.171,0.367,0.017,1.6199970785904578,-7.369798831436183,-6.453664355776217
1621785281203.036,0.171,0.363676207250844,0.018107930916385344,1.608,-7.365,-6.433
1621785281207.236,0.171,0.346,0.024,1.5084976986434109,-7.316290758236434,-6.333497698643411
1621785281212.226,0.168,0.346,0.031,1.3902852168120154,-7.25842234435562,-6.215285216812015
1621785281217.216,0.161,0.33,0.031,1.27207273498062,-7.200553930474806,-6.09707273498062
1621785281219.161,0.1555425006116956,0.3280508930756056,0.031,1.226,-7.178,-6.051
1621785281222.205,0.147,0.325,0.031,1.159354172975592,-7.135520365211072,-6.010219550602629
1621785281227.194,0.134,0.305,0.035,1.0501307007449578,-7.065902004724124,-5.943385924535159
1621785281232.182,0.115,0.288,0.028,0.940933953122161,-6.996300678335655,-5.876568651202229
1621785281235.285,0.10629239050648398,0.27307266943968683,0.02489013946660142,0.873,-6.953,-5.835
1621785281237.171,0.101,0.264,0.023,0.8465605464017446,-6.930070208383814,-5.815462881633148
1621785281242.16,0.091,0.25,0.017,0.7766200629997577,-6.869413859946692,-5.763781196995396
1621785281247.149,0.072,0.218,0.017,0.7066795795977707,-6.808757511509571,-5.712099512357645
1621785281251.406,0.06090504625324262,0.19751700846752485,0.005051588272722823,0.647,-6.757,-5.668
1621785281252.137,0.059,0.194,0.003,0.6425556430724488,-6.751648631454581,-5.653759917599479
1621785281257.126,0.049,0.169,0.002,0.6122214968418183,-6.715123843136067,-5.556566836819703
1621785281262.113,0.033,0.148,-0.005,0.5818992259803997,-6.678613353731501,-5.459411805692301
1621785281267.101,0.014,0.126,-0.017,0.551571017434375,-6.642095714869962,-5.3622377497387115
1621785281267.524,0.012813176055993344,0.12328725955655621,-0.01759341197200333,0.549,-6.639,-5.354
1621785281272.089,0.0,0.094,-0.024,0.5878081228886095,-6.639,-5.2678856251230854
1621785281277.076,-0.023,0.072,-0.037,0.6302004817378922,-6.639,-5.173817909136356
1621785281282.063,-0.045,0.049,-0.035,0.6725949159988487,-6.639,-5.07974558785657
1621785281283.64,-0.05163888209094024,0.03730292203024815,-0.035948411727277176,0.686,-6.639,-5.05
1621785281287.051,-0.066,0.012,-0.038,0.7420894988789917,-6.6597425316609105,-5.025235957098709
1621785281292.038,-0.093,-0.009,-0.044,0.8240920893170939,-6.690068017936133,-4.989031039810944
1621785281297.025,-0.115,-0.024,-0.047,0.9060906653335756,-6.720392019632794,-4.952827894928195
1621785281299.756,-0.1325284728002742,-0.03769411937521422,-0.04809552955001714,0.951,-6.737,-4.933
1621785281302.011,-0.147,-0.049,-0.049,0.9935480224276405,-6.7823472344294595,-4.974148416426731
1621785281306.998,-0.164,-0.061,-0.059,1.0876502803455068,-6.882640430368237,-5.0651552053341415
1621785281311.985,-0.173,-0.073,-0.054,1.1817525382633731,-6.982933626307016,-5.156161994241552
1621785281315.867,-0.18234469585659713,-0.08390214516602996,-0.059451072583014984,1.255,-7.061,-5.227
1621785281316.97,-0.185,-0.087,-0.061,1.2408955854941124,-7.096603376422629,-5.249183642232561
1621785281321.956,-0.195,-0.106,-0.058,1.1771385121311773,-7.25754356161062,-5.349461757618926
1621785281326.942,-0.202,-0.126,-0.065,1.1133845605952688,-7.418475866458545,-5.449734962947248
1621785281331.927,-0.208,-0.134,-0.066,1.0496399745404397,-7.579384530286269,-5.549993438101445
1621785281331.977,-0.20801003770259022,-0.134230867159575,-0.06607026391813152,1.049,-7.581,-5.551
1621785281336.913,-0.209,-0.157,-0.073,0.9258054688210506,-7.797356564707309,-5.686146239427654
1621785281341.898,-0.195,-0.168,-0.079,0.8013922757449905,-8.015853366477703,-5.822629369145421
1621785281346.883,-0.171,-0.188,-0.093,0.6769729893594447,-8.234360869433415,-5.959119183314639
1621785281348.084,-0.16256797923400923,-0.1935410422176511,-0.09757738270153786,0.647,-8.287,-5.992
1621785281351.868,-0.136,-0.211,-0.112,0.6286768922974325,-8.404455818606204,-6.067876458819606
1621785281356.853,-0.086,-0.227,-0.126,0.6045373003122253,-8.55919679287035,-6.167839128194247
1621785281361.837,-0.026,-0.248,-0.141,0.5804036193882809,-8.713899875716148,-6.267777319712632
1621785281364.192,0.0051725015913430955,-0.2569739019732654,-0.14714003819223423,0.569,-8.787,-6.315
1621785281366.823,0.04,-0.267,-0.154,0.6506847817848318,-8.799742825958434,-6.286246956811739
1621785281371.807,0.101,-0.286,-0.161,0.8054136613761426,-8.823880531174678,-6.2317823911955985
1621785281376.791,0.168,-0.302,-0.171,0.9601501205148029,-8.848019418800309,-6.177315157578789
1621785281380.297,0.2045813657294014,-0.3090348780248849,-0.17240697560497698,1.069,-8.865,-6.139
1621785281381.775,0.22,-0.312,-0.173,1.1247939388426493,-8.865,-6.097613377601917
1621785281386.758,0.267,-0.328,-0.169,1.312933718409363,-8.865,-5.9580557450614755
1621785281391.742,0.307,-0.337,-0.169,1.5011011506799472,-8.865,-5.818477600400237
1621785281396.401,0.33691212343864807,-0.3584993387215283,-0.16432623071271124,1.677,-8.865,-5.688
1621785281396.726,0.339,-0.36,-0.164,1.6793829709815338,-8.862637223687802,-5.683234058036932
1621785281401.709,0.358,-0.375,-0.162,1.7158968131235028,-8.826432820886017,-5.610206373752995
1621785281406.691,0.374,-0.394,-0.162,1.7524034991964583,-8.790235513508597,-5.537193001607083
1621785281411.675,0.375,-0.417,-0.164,1.7889262864246944,-8.754022241426362,-5.4641474271506105
1621785281412.504,0.37616460844849553,-0.42432039596197196,-0.165830098990493,1.795,-8.748,-5.452
1621785281416.657,0.382,-0.461,-0.175,1.9644651554207733,-8.639150235026534,-5.63926286580743
1621785281421.64,0.384,-0.492,-0.188,2.1677914632297193,-8.508550993176648,-5.863943078089462
1621785281426.623,0.377,-0.524,-0.195,2.3711277331311598,-8.377945352539804,-6.088634298711145
1621785281428.605,0.36665454367218897,-0.5251937064993628,-0.1898272718360945,2.452,-8.326,-6.178
1621785281431.604,0.351,-0.527,-0.182,2.6364360525956596,-8.093871392389707,-6.645796897038082
1621785281436.587,0.293,-0.496,-0.148,2.9428785659038175,-7.708187178670549,-7.423046544428773
1621785281441.568,0.162,-0.436,-0.119,3.2492159788889396,-7.322635242731699,-8.200029619181947
1621785281444.703,0.0512343887854132,-0.39320419566709147,-0.09697274776982649,3.442,-7.08,-8.689
1621785281446.549,-0.014,-0.368,-0.084,3.3014065694094814,-7.098004215826029,-8.95768711898335
1621785281451.531,-0.195,-0.278,-0.084,2.922016256710443,-7.146588456522399,-9.682737284280124
1621785281456.512,-0.323,-0.192,-0.096,2.542700312395742,-7.1951631736980985,-10.407645324679264
1621785281460.802,-0.32472257621801787,-0.11103891775316145,-0.11236447407116949,2.216,-7.237,-11.032
1621785281461.493,-0.325,-0.098,-0.115,2.1372708380735688,-7.295939552521805,-11.107380811528252
1621785281466.474,-0.211,0.01,-0.134,1.569669745923398,-7.720866651497914,-11.650841835419037
1621785281471.455,0.0,0.063,-0.166,1.0020964732650741,-8.145772923777018,-12.19427622298066
1621785281476.436,0.264,0.059,-0.223,0.4345232006067503,-8.570679196056124,-12.737710610542283
1621785281476.897,0.2935202431134203,0.05270728359964709,-0.2311435153416332,0.382,-8.61,-12.788
1621785281481.417,0.583,-0.009,-0.311,0.04046406844971706,-8.235602469772592,-12.416130285055448
1621785281486.396,0.92,-0.115,-0.407,-0.33575305308190606,-7.823186825856759,-12.006499142861477
1621785281491.377,1.232,-0.211,-0.487,-0.7121177541453646,-7.410609402733741,-11.59670731374304
1621785281492.99,1.3107087459554858,-0.23658844004314147,-0.5022235023041475,-0.834,-7.277,-11.464
1621785281496.357,1.475,-0.29,-0.534,-0.7662134805892258,-6.470675167255791,-10.706841315593852
1621785281501.336,1.595,-0.358,-0.578,-0.6659714186021815,-5.278289652138295,-9.587162234324985
1621785281506.316,1.587,-0.407,-0.625,-0.565709695526192,-4.085670267154148,-8.467263543547189
1621785281509.083,1.521989802921855,-0.43589342092361993,-0.6444474948524366,-0.51,-3.423,-7.845
1621785281511.296,1.47,-0.459,-0.66,-0.47355420681283666,-3.157289537971322,-7.550958091191867
1621785281516.275,1.255,-0.497,-0.674,-0.39155117214171914,-2.5594409984067976,-6.889363796373567
1621785281521.255,0.997,-0.504,-0.695,-0.30953205371367876,-1.9614751991502921,-6.227639739018284
1621785281525.173,0.7797173550475817,-0.4874676248405769,-0.6784676248405769,-0.245,-1.491,-5.707
1621785281526.232,0.721,-0.483,-0.674,-0.16754887115372943,-1.5651609364568793,-5.690220018814104
1621785281531.212,0.424,-0.419,-0.621,0.196723235419069,-1.9139584420707654,-5.611299553923651
1621785281536.191,0.14,-0.344,-0.564,0.5609239090853918,-2.262687549311161,-5.5323945651514235
1621785281541.168,-0.119,-0.257,-0.476,0.9249817169387632,-2.6112798598045757,-5.453520528615646
1621785281541.264,-0.12285483079941147,-0.2554195193722413,-0.47426532614026484,0.932,-2.618,-5.452
1621785281546.146,-0.319,-0.175,-0.386,0.9617425366904947,-3.409819165566331,-5.865967551488109
1621785281551.125,-0.464,-0.124,-0.271,0.9920755513059843,-4.2173582995644185,-6.288153591646557
1621785281556.103,-0.571,-0.112,-0.169,1.022402616521726,-5.0247390459712555,-6.7102568258738176
1621785281557.35,-0.590540166748406,-0.11901441883276116,-0.14470004904364886,1.03,-5.227,-6.816
1621785281561.081,-0.649,-0.14,-0.072,0.8706481998664319,-5.6614482120089855,-7.147924928662498
1621785281566.058,-0.684,-0.197,0.002,0.6580748588428147,-6.240996782223302,-7.590708700139639
1621785281571.035,-0.677,-0.267,0.086,0.4455119452370834,-6.820516923684051,-8.033470751624066
1621785281573.435,-0.6596426679744973,-0.30075036782736636,0.12698258950465915,0.343,-7.1,-8.247
1621785281576.013,-0.641,-0.337,0.171,0.19054950810712334,-7.254053546486913,-8.287877892147932
1621785281580.99,-0.557,-0.4,0.243,-0.10378288394971763,-7.55148091637821,-8.36679982692658
1621785281585.966,-0.469,-0.471,0.29,-0.39805752413918744,-7.848849927126981,-8.445706276188742
1621785281589.516,-0.4069443245364466,-0.5159368684391249,0.32352433042283923,-0.608,-8.061,-8.502
1621785281590.943,-0.382,-0.534,0.337,-0.6776689138917992,-7.980947311681016,-8.562971393431422
1621785281595.92,-0.295,-0.6,0.372,-0.9206459557539592,-7.701755857210101,-8.775614995672573
1621785281600.896,-0.225,-0.674,0.407,-1.1635872394053965,-7.422605490517621,-8.98822730378536
1621785281605.595,-0.16268753065829492,-0.7382007259884235,0.4211619248503875,-1.393,-7.159,-9.189
1621785281605.873,-0.159,-0.742,0.422,-1.3946949404761906,-7.142033299927114,-9.194257774538388
1621785281610.849,-0.108,-0.791,0.428,-1.4250252976190476,-6.838420235058309,-9.28834378036929
1621785281615.824,-0.068,-0.834,0.428,-1.4553482142857144,-6.5348816508746355,-9.382406705539358
1621785281620.8,-0.014,-0.869,0.422,-1.4856785714285716,-6.231268586005831,-9.476492711370263
1621785281621.673,-0.006104410971002405,-0.8726846082135322,0.422,-1.491,-6.178,-9.493
1621785281625.776,0.031,-0.89,0.422,-1.3782027759639186,-6.007783374588085,-9.292670088533203
1621785281630.751,0.07,-0.922,0.422,-1.2414231370822006,-5.8013760914792485,-9.0497469742297
1621785281635.726,0.101,-0.941,0.431,-1.104643498200483,-5.594968808370412,-8.806823859926197
1621785281637.75,0.11523909309515631,-0.9471024684693526,0.4326273249251607,-1.049,-5.511,-8.708
1621785281640.701,0.136,-0.956,0.435,-0.8437528668418415,-5.444358936192834,-8.371306581205669
1621785281645.676,0.143,-0.967,0.428,-0.4977177812542718,-5.332005862786494,-7.803660474794574
1621785281650.65,0.119,-0.96,0.436,-0.1517675997509076,-5.2196803566275305,-7.236153647534136
1621785281653.824,0.10560216900579056,-0.9485161448621061,0.45705373441947195,0.069,-5.148,-6.874
1621785281655.625,0.098,-0.942,0.469,0.18542292093871043,-5.118418045112782,-6.71914294827979
1621785281660.599,0.052,-0.902,0.525,0.5069629224576593,-5.036717794486216,-6.291454515075568
1621785281665.573,-0.012,-0.866,0.56,0.8284871420976685,-4.955021553884712,-5.863787073744968
1621785281669.897,-0.054605871667730385,-0.8199160979920467,0.5826071972114487,1.108,-4.884,-5.492
1621785281670.546,-0.061,-0.813,0.586,1.1281905109156374,-4.8645767284991575,-5.4844487489175515
1621785281675.521,-0.093,-0.764,0.609,1.2829844279355243,-4.715664980326026,-5.426555823952114
1621785281680.494,-0.106,-0.695,0.623,1.437709979794297,-4.566818999437887,-5.368688467556932
1621785281685.468,-0.11,-0.613,0.646,1.5924735122981328,-4.417936481169196,-5.310806906400498
1621785281685.967,-0.11020069713780746,-0.6057749030389317,0.6468027885512299,1.608,-4.403,-5.305
1621785281690.441,-0.112,-0.541,0.654,1.5698565589960194,-4.386573262633322,-5.329779315688717
1621785281695.414,-0.105,-0.469,0.656,1.527456455680817,-4.368313364125315,-5.357323908353338
1621785281700.387,-0.087,-0.391,0.658,1.485058433863077,-4.350054362028625,-5.384867148804279
1621785281702.036,-0.08003711340206185,-0.36613254786450666,0.6533580756013746,1.471,-4.344,-5.394
1621785281705.36,-0.066,-0.316,0.644,1.3208029932386234,-4.3278631315049765,-5.418205302742536
1621785281710.332,-0.033,-0.251,0.637,1.0961583073767378,-4.303727752032212,-5.454408371951683
1621785281715.305,0.005,-0.197,0.628,0.8714694978348402,-4.279587631998784,-5.490618552001823
1621785281718.104,0.017947805165471866,-0.17279323382107434,0.6195557792399097,0.745,-4.266,-5.511
1621785281720.277,0.028,-0.154,0.613,0.5859037906192054,-4.281963735295012,-5.4433570538346965
1621785281725.249,0.024,-0.112,0.59,0.22190038605343954,-4.318487886433414,-5.288593701553333
1621785281730.221,0.0,-0.091,0.585,-0.14210301851232632,-4.355012037571815,-5.13383034927197
1621785281734.167,-0.041268584896395955,-0.06719120102131003,0.583412746734754,-0.431,-4.384,-5.011
1621785281735.193,-0.052,-0.061,0.583,-0.5130673909740161,-4.397156328825407,-5.01349076128248
1621785281740.164,-0.126,-0.059,0.572,-0.9106344020665552,-4.460890806868258,-5.025556997416806
1621785281745.135,-0.194,-0.051,0.559,-1.3082014131590944,-4.5246252849111075,-5.037623233551132
1621785281750.106,-0.258,-0.063,0.539,-1.7057684242516336,-4.588359762953958,-5.049689469685458
1621785281750.234,-0.2592607905720599,-0.06341168671740732,0.5380222440461576,-1.716,-4.59,-5.05
1621785281755.078,-0.307,-0.079,0.501,-1.976264219486244,-4.885549171606627,-5.224615275877793
1621785281760.048,-0.328,-0.099,0.473,-2.2433101839185285,-5.188799513603891,-5.403780528955768
1621785281765.019,-0.325,-0.122,0.442,-2.5103955008359935,-5.492094543243654,-5.582972184222526
1621785281766.296,-0.31857840970482787,-0.12867845390697902,0.43249604636314526,-2.579,-5.57,-5.629
1621785281769.99,-0.3,-0.148,0.405,-2.633280789225671,-5.7866631502143315,-5.744001672088285
1621785281774.96,-0.239,-0.169,0.377,-2.706309275529748,-6.078158209953486,-5.898723041376584
1621785281779.93,-0.168,-0.195,0.346,-2.779337761833825,-6.369653269692639,-6.053444410664882
1621785281782.357,-0.12356167411701136,-0.20281333202338261,0.325978336690082,-2.815,-6.512,-6.129
1621785281784.9,-0.077,-0.211,0.305,-2.822757774737802,-6.468461468308253,-6.101135339717282
1621785281789.87,0.028,-0.222,0.267,-2.837920291837665,-6.383365709074328,-6.046674053807569
1621785281794.839,0.126,-0.23,0.22,-2.85307908496732,-6.298290849673203,-5.99222614379085
1621785281798.419,0.1872248857886722,-0.22423765780812496,0.1832650685267967,-2.864,-6.237,-5.953
1621785281799.809,0.211,-0.222,0.169,-2.847814519806646,-6.20220554525279,-5.841778919526951
1621785281804.778,0.278,-0.211,0.129,-2.789960097893169,-6.077834007235582,-5.444223132581401
1621785281809.747,0.323,-0.194,0.093,-2.7321056759796916,-5.953462469218374,-5.04666734563585
1621785281814.48,0.3430022601090748,-0.17590271704417038,0.059662899818208624,-2.677,-5.835,-4.668
1621785281814.716,0.344,-0.175,0.058,-2.677,-5.8311037707161315,-4.646666306826821
1621785281819.685,0.346,-0.141,0.026,-2.677,-5.749097612893417,-4.197643910597537
1621785281824.654,0.319,-0.115,-0.005,-2.677,-5.667091455070701,-3.748621514368253
1621785281829.622,0.262,-0.08,-0.037,-2.677,-5.58510141401855,-3.2996873650600578
1621785281830.537,0.2483702393237997,-0.07484279325765394,-0.04142046292201091,-2.677,-5.57,-3.217
1621785281834.59,0.188,-0.052,-0.061,-2.520989324979851,-5.53036622010006,-3.095574215720564
1621785281839.558,0.091,-0.017,-0.075,-2.3297561928802786,-5.4817843402624655,-2.946734188956981
1621785281844.526,-0.016,0.016,-0.084,-2.1385324584480165,-5.433204847858153,-2.797901476559055
1621785281846.592,-0.06881836945304437,0.03637874097007224,-0.08108875128998969,-2.059,-5.413,-2.736
1621785281849.494,-0.143,0.065,-0.077,-1.8321506911811671,-5.485664081390575,-2.842284775765318
1621785281854.461,-0.267,0.112,-0.056,-1.4438578098149248,-5.61004156211506,-3.0242100460787444
1621785281859.429,-0.382,0.183,-0.033,-1.0554885867664279,-5.734443496509877,-3.2061710844472833
1621785281862.646,-0.4454724010813468,0.22963278446792823,-0.023932514131236177,-0.804,-5.815,-3.324
1621785281864.396,-0.48,0.255,-0.019,-0.9098590700999255,-5.819360826780636,-3.616938538989186
1621785281869.363,-0.555,0.29,-0.005,-1.2103198375640694,-5.831738201341466,-4.44838867511293
1621785281874.33,-0.6,0.297,-0.021,-1.5107806050282133,-5.844115575902295,-5.279838811236672
1621785281878.698,-0.6298989432292946,0.261824772671418,-0.04122575571393462,-1.775,-5.855,-6.011
1621785281879.297,-0.634,0.257,-0.044,-1.877889324996577,-5.823491077540962,-6.166229975811237
1621785281884.263,-0.665,0.159,-0.115,-2.730688375701702,-5.562329104102963,-7.452854958696546
1621785281889.229,-0.7,0.038,-0.208,-3.5835293535971275,-5.30115429084326,-8.739543197480717
1621785281894.196,-0.719,-0.045,-0.297,-4.436538040253753,-5.039928118296746,-10.026484459860345
1621785281894.746,-0.7184461924192518,-0.05319635219507399,-0.3061932058404208,-4.531,-5.011,-10.169
1621785281899.162,-0.714,-0.119,-0.38,-4.41486781888997,-5.53992429406037,-10.70067624148004
1621785281904.128,-0.67,-0.213,-0.466,-4.284276898734177,-6.1347009493670885,-11.298547468354432
1621785281909.093,-0.576,-0.326,-0.536,-4.1537052397760466,-6.729389879503408,-11.896330513631938
1621785281910.793,-0.532868492207856,-0.36331217737574356,-0.5425039575242122,-4.109,-6.933,-12.101
1621785281914.059,-0.45,-0.435,-0.555,-3.2627625850029665,-7.7035278627173565,-11.769872468927328
1621785281919.024,-0.319,-0.49,-0.52,-1.9763906257131119,-8.874813153210717,-11.266522979325453
1621785281923.989,-0.187,-0.499,-0.44,-0.6899554105243939,-10.046156040345032,-10.763148738076765
1621785281926.841,-0.10772990116536361,-0.4771720017701726,-0.3796857943649506,0.049,-10.719,-10.474
1621785281928.954,-0.049,-0.461,-0.335,0.48570205479452055,-10.845597488584474,-10.35767785388128
1621785281933.919,0.091,-0.396,-0.209,1.5117878995433789,-11.14305404870624,-10.084364490106545
1621785281938.884,0.192,-0.312,-0.056,2.537924200913242,-11.440525235920852,-9.811037686453577
1621785281942.881,0.23548258902223096,-0.24597088333661224,0.06881113515640369,3.364,-11.68,-9.591
1621785281943.848,0.246,-0.23,0.099,3.440218732882965,-11.63155742194632,-9.700899580062076
1621785281948.812,0.257,-0.154,0.234,3.8315711307893614,-11.382824356399489,-10.265189519810114
1621785281953.777,0.255,-0.042,0.342,4.223000517314832,-11.134042358955632,-10.829590469234981
1621785281958.743,0.253,0.077,0.443,4.614487645304607,-10.885223662589008,-11.394074675917473
1621785281958.927,0.254231416410967,0.0793882015242997,0.4459479362565575,4.629,-10.876,-11.415
1621785281963.676,0.286,0.141,0.522,3.8372535871246343,-10.653786747928885,-11.920192594520925
1621785281968.609,0.401,0.124,0.56,3.0148581382172335,-10.422971471448479,-12.444941534079598
1621785281973.542,0.604,0.099,0.579,2.192421986738741,-10.192144771296878,-12.96971644488002
1621785281974.87,0.6764220528555874,0.09819231911313471,0.580884588736019,1.971,-10.13,-13.111
1621785281978.475,0.873,0.096,0.586,1.1413935300064333,-10.008092179027663,-12.58333590662623
1621785281983.407,1.148,0.101,0.618,0.006429402934779338,-9.841313099286218,-11.861451689489325
1621785281988.338,1.382,0.126,0.625,-1.128309989890635,-9.674567043470269,-11.139710412645897
1621785281990.809,1.4661746361746362,0.13551975051975051,0.6194885654885655,-1.697,-9.591,-10.778
1621785281993.27,1.55,0.145,0.614,-2.0695724443354737,-9.038011048623135,-10.194735675866191
1621785281998.201,1.663,0.169,0.574,-2.816084910431065,-7.930003325313759,-9.026066077202445
1621785282003.131,1.742,0.209,0.527,-3.5624864918706036,-6.822160182049435,-7.857570069111359
1621785282006.741,1.7522512751943742,0.2426827613529441,0.5013718120140643,-4.109,-6.011,-7.002
1621785282008.061,1.756,0.255,0.492,-4.0090621925240235,-5.764801636806695,-6.748426458643044
1621785282012.991,1.696,0.283,0.483,-3.6358341277260955,-4.84534841913286,-5.8014298763199434
1621785282017.92,1.571,0.281,0.496,-3.26267999509571,-3.9260773345185367,-4.854620883078669
1621785282022.671,1.3820866765725606,0.2646146607231303,0.5143130262506191,-2.903,-3.04,-3.942
1621785282022.849,1.375,0.264,0.515,-2.8705135284288628,-3.0265040700259074,-3.9258742660923156
1621785282027.778,1.114,0.251,0.541,-1.972062330415587,-2.6532584121533582,-3.479898318335812
1621785282032.706,0.824,0.26,0.583,-1.0737891404657152,-2.280086704582037,-3.0340107307651034
1621785282037.634,0.513,0.293,0.63,-0.17551595051584323,-1.9069149970107155,-2.5881231431943954
1621785282038.597,0.45124369456419405,0.3019898419305287,0.6440710569347405,0.0,-1.834,-2.501
1621785282042.561,0.197,0.339,0.702,0.30768772709850517,-1.882791904944423,-3.159939655040245
1621785282047.488,-0.087,0.387,0.789,0.6901134227673438,-1.9434354618627827,-3.9789370793407435
1621785282052.415,-0.311,0.41,0.841,1.0725391184361823,-2.004079018781142,-4.797934503641242
1621785282054.521,-0.38752544976953957,0.4091449670416811,0.8350147692917678,1.236,-2.03,-5.148
1621785282057.341,-0.49,0.408,0.827,0.8850409355828222,-2.22293004601227,-5.678070429447852
1621785282062.267,-0.623,0.377,0.756,0.27199435582822096,-2.5599354601226993,-6.603984294478527
1621785282067.193,-0.717,0.319,0.648,-0.34105222392638024,-2.896940874233129,-7.529898159509203
1621785282070.439,-0.7427041939321832,0.27879600436248264,0.5728646638905414,-0.745,-3.119,-8.14
1621785282072.118,-0.756,0.258,0.534,-0.718100457111302,-3.3713282611363358,-8.273442830408639
1621785282077.042,-0.74,0.218,0.447,-0.6392089520186526,-4.111361516750522,-8.664806571358449
1621785282081.967,-0.681,0.194,0.384,-0.5603018008344582,-4.851541538839122,-9.056247929193766
1621785282086.355,-0.6168393574297188,0.1815243195002231,0.33587951807228916,-0.49,-5.511,-9.405
1621785282086.891,-0.609,0.18,0.33,-0.5108266654389761,-5.552990331936836,-9.399709083375534
1621785282091.814,-0.539,0.175,0.267,-0.7020602182219972,-5.938551831560855,-9.351127096665286
1621785282096.737,-0.482,0.187,0.19,-0.8933032549145989,-6.324132452465356,-9.30254270061231
1621785282101.661,-0.431,0.204,0.117,-1.0845747433359423,-6.709770437211301,-9.253951076531159
1621785282102.264,-0.4232816328555131,0.2068178165765587,0.10989420167650414,-1.108,-6.757,-9.248
1621785282106.583,-0.368,0.227,0.059,-1.140037108655617,-6.898180478821363,-9.154603683241252
1621785282111.504,-0.314,0.284,0.007,-1.1765381522406384,-7.059032535297728,-9.04819386126458
1621785282116.426,-0.251,0.34,-0.045,-1.2130482504604052,-7.219924493554328,-8.941757642725598
1621785282118.172,-0.23254871998412385,0.3605802738638619,-0.06238678309188331,-1.226,-7.277,-8.904
1621785282121.347,-0.199,0.398,-0.094,-1.1986496361570818,-7.249449998464798,-8.89621413000092
1621785282126.268,-0.15,0.475,-0.145,-1.1562548896189628,-7.206745801222021,-8.884145552519266
1621785282131.189,-0.103,0.531,-0.19,-1.1138622463078387,-7.164043722558261,-8.872077573766465
1621785282134.075,-0.07836925137669296,0.5667732301433746,-0.21169851664434192,-1.089,-7.139,-8.865
1621785282136.11,-0.061,0.592,-0.227,-1.0587910722786111,-7.065013727868802,-8.886376656480813
1621785282141.029,-0.012,0.639,-0.258,-0.9857764998541222,-6.886189902185096,-8.938043747984583
1621785282145.948,0.042,0.668,-0.284,-0.9127619274296331,-6.70736607650139,-8.989710839488353
1621785282149.974,0.07473972602739726,0.6966472602739726,-0.30118835616438355,-0.853,-6.561,-9.032
1621785282150.867,0.082,0.703,-0.305,-0.8469340193518661,-6.526850775610505,-9.00723057902012
1621785282155.786,0.115,0.724,-0.33,-0.8135138995545999,-6.338707878974044,-8.87076508984795
1621785282160.704,0.171,0.721,-0.346,-0.7800987559514667,-6.150592996467517,-8.734319920135155
1621785282165.622,0.257,0.707,-0.358,-0.7466852710797113,-5.962487452004301,-8.597881523575486
1621785282165.87,0.2622464746772592,0.7059406156901687,-0.35815134061569015,-0.745,-5.953,-8.591
1621785282170.539,0.361,0.686,-0.361,-0.7623360374894369,-5.776995144810632,-8.158774387339632
1621785282175.456,0.454,0.661,-0.374,-0.7805930859645079,-5.591639686563725,-7.703585941461166
1621785282180.373,0.511,0.618,-0.377,-0.7988501344395791,-5.406284228316816,-7.2483974955827
1621785282181.76,0.5200282081843465,0.605021950735002,-0.3789749205403258,-0.804,-5.354,-7.12
1621785282185.289,0.543,0.572,-0.384,-0.7866713286713287,-5.116730500268962,-6.753876277568585
1621785282190.205,0.569,0.546,-0.377,-0.7625322677322678,-4.786211050487974,-6.243861246445862
1621785282195.12,0.579,0.504,-0.37,-0.738398001998002,-4.455757258126488,-5.733947529393683
1621785282197.645,0.5846510853906909,0.49064288907654857,-0.3684587948934479,-0.726,-4.286,-5.472
1621785282200.035,0.59,0.478,-0.367,-0.6772453537884494,-4.176753477933377,-5.232891565339032
1621785282204.95,0.552,0.445,-0.372,-0.5769768342735923,-3.952077721242679,-4.741142560681291
1621785282209.864,0.473,0.415,-0.368,-0.4767282369760042,-3.727446605075861,-4.249491260971823
1621785282213.527,0.38951192368839427,0.4060548489666137,-0.3627819952305246,-0.402,-3.56,-3.883
1621785282214.778,0.361,0.403,-0.361,-0.33637435424354245,-3.5537761992619927,-3.8374638376383765
1621785282219.691,0.239,0.401,-0.347,-0.07864896986469866,-3.5293340559655597,-3.658633979089791
1621785282224.604,0.131,0.403,-0.326,0.1790892220172201,-3.5048906980319803,-3.4797952337023372
1621785282229.406,0.02544186046511626,0.4010452196382429,-0.3054748062015504,0.431,-3.481,-3.305
1621785282229.517,0.023,0.401,-0.305,0.4365636304909561,-3.4851919681309216,-3.307197459086994
1621785282234.43,-0.087,0.407,-0.279,0.6826228313030638,-3.6705875169189124,-3.4043831056970593
1621785282239.342,-0.197,0.412,-0.237,0.9286453488372093,-3.855955426356589,-3.501554263565892
1621785282244.253,-0.298,0.417,-0.199,1.1746067275747507,-4.04127727021041,-3.598701273532669
1621785282245.279,-0.31784912507456753,0.4192983197454762,-0.19168716444621198,1.226,-4.08,-3.619
1621785282249.164,-0.393,0.428,-0.164,1.3244233556427416,-4.271950026925148,-3.851837341333949
1621785282254.075,-0.447,0.436,-0.15,1.4488364643434108,-4.514586537425956,-4.146157904454189
1621785282258.985,-0.478,0.449,-0.115,1.5732310177705977,-4.7571868605277325,-4.440434571890146
1621785282261.147,-0.4841630623912503,0.4551630623912503,-0.10135321899080289,1.628,-4.864,-4.57
1621785282263.896,-0.492,0.463,-0.084,1.6908992197959465,-5.059455426803933,-4.722829509256267
1621785282268.805,-0.496,0.476,-0.047,1.803218457134943,-5.408480494898666,-4.995737408245233
1621785282273.714,-0.471,0.485,-0.01,1.9155432805502979,-5.757522921379437,-5.268658880014773
1621785282277.012,-0.4394251255781568,0.4789537474511364,0.006123340130302879,1.991,-5.992,-5.452
1621785282278.623,-0.424,0.476,0.014,1.9690598765527114,-6.067673110964028,-5.48094877399295
1621785282283.531,-0.349,0.464,0.044,1.9022221281573721,-6.298201456123878,-5.569137469792356
1621785282288.44,-0.288,0.443,0.058,1.8353710807025105,-6.528775670725137,-5.657343712961965
1621785282292.873,-0.23740803025026122,0.41138001890641324,0.07155142046868003,1.775,-6.737,-5.737
1621785282293.347,-0.232,0.408,0.073,1.760058656895649,-6.747249761369584,-5.730246512916834
1621785282298.255,-0.187,0.377,0.098,1.6053106814053022,-6.853406872555963,-5.660300427995197
1621785282303.162,-0.138,0.337,0.113,1.4505857991809588,-6.9595481417618625,-5.590364781229794
1621785282308.068,-0.091,0.3,0.12,1.295899405733288,-7.065663007666965,-5.520446531391446
1621785282308.731,-0.08343544454948007,0.29243544454948006,0.12027016269466143,1.275,-7.08,-5.511
1621785282312.975,-0.035,0.244,0.122,1.0806487110782592,-7.059119283008408,-5.434972774030614
1621785282317.881,0.017,0.194,0.12,0.8559887277095075,-7.034982260001848,-5.347089254365703
1621785282322.786,0.061,0.145,0.112,0.6313846438140996,-7.010851242723828,-5.259227601712403
1621785282324.585,0.07126987208202677,0.1174914140659997,0.10429759593847991,0.549,-7.002,-5.227
1621785282327.691,0.089,0.07,0.091,0.5297972768998552,-6.969276992268121,-5.077101192126421
1621785282332.596,0.113,0.017,0.08,0.49947170625019255,-6.917599744324307,-4.840376074299972
1621785282337.5,0.126,-0.035,0.065,0.46915217324338476,-6.865932785016788,-4.603698087052952
1621785282340.436,0.1319869567381889,-0.06194130532184995,0.0554208692188978,0.451,-6.835,-4.462
1621785282342.404,0.136,-0.08,0.049,0.594695816963254,-6.792400462214005,-4.409588906863878
1621785282347.307,0.133,-0.096,0.052,0.952678622602265,-6.686274185347816,-4.279019551652415
1621785282352.21,0.113,-0.087,0.089,1.3106792542947385,-6.580142623834836,-4.148443694630614
1621785282356.282,0.07396633969028532,-0.08035597271324005,0.11474560573619479,1.608,-6.492,-4.04
1621785282357.113,0.066,-0.079,0.12,1.540638730060877,-6.47967141866379,-4.025625398782461
1621785282362.015,-0.026,-0.056,0.117,1.143318055020421,-6.4069530708176,-3.940838899591585
1621785282366.917,-0.159,-0.052,0.082,0.7459775911227557,-6.334231101179009,-3.856048177544887
1621785282371.819,-0.3,-0.066,0.017,0.34863712722509077,-6.261509131540417,-3.7712574554981892
1621785282372.123,-0.30738044236325596,-0.0669923283849756,0.01303068646009764,0.324,-6.257,-3.766
1621785282376.72,-0.419,-0.082,-0.047,0.0020548720320691105,-6.373701480111008,-4.406406629663891
1621785282381.621,-0.492,-0.12,-0.094,-0.34119481961147086,-6.4981256244218315,-5.089191859389454
1621785282386.521,-0.518,-0.161,-0.117,-0.6843590194264568,-6.622518778908418,-5.77180703052729
1621785282387.958,-0.5138941704035874,-0.17478385650224215,-0.11641345291479821,-0.785,-6.659,-5.972
1621785282391.421,-0.504,-0.208,-0.115,-0.5468211311910196,-6.609570776537346,-6.5211892925430215
1621785282396.32,-0.469,-0.239,-0.082,-0.20985445321655471,-6.539640134460001,-7.298162045889102
1621785282401.219,-0.415,-0.213,-0.031,0.1270954326774809,-6.469712977240486,-8.075096080305928
1621785282403.791,-0.38507400578092293,-0.17099860460480415,0.008901325625436059,0.304,-6.433,-8.483
1621785282406.118,-0.358,-0.133,0.045,0.7913105219322599,-6.54545627429206,-8.516075374791782
1621785282411.017,-0.312,-0.031,0.136,1.8173162132148808,-6.782226818434204,-8.585713770127708
1621785282415.915,-0.298,0.079,0.215,2.843066259485471,-7.01893836757357,-8.655334813992226
1621785282419.62,-0.3184283577624888,0.18189839465549906,0.23996799282081963,3.619,-7.198,-8.708
1621785282420.812,-0.325,0.215,0.248,3.587216047763773,-7.366409756398587,-8.7287122911492
1621785282425.709,-0.375,0.36,0.234,3.4566297073388976,-8.058331692867831,-8.813810024838396
1621785282430.606,-0.407,0.51,0.201,3.326043366914022,-8.750253629337077,-8.898907758527592
1621785282435.445,-0.409964552796889,0.6117829793598564,0.155543523781035,3.197,-9.434,-8.983
1621785282435.503,-0.41,0.613,0.155,3.185917713509676,-9.43668827741597,-8.995874471434304
1621785282440.399,-0.372,0.668,0.075,2.24817858575882,-9.664159649989196,-10.085261180900645
1621785282445.295,-0.286,0.688,-0.021,1.3104394580079632,-9.891631022562425,-11.174647890366987
1621785282450.19,-0.157,0.714,-0.101,0.3728873730670701,-10.119057023364919,-12.26381730917621
1621785282451.265,-0.12933027431421446,0.7190508229426433,-0.11593286783042395,0.167,-10.169,-12.503
1621785282455.085,-0.031,0.737,-0.169,-0.5933815434014108,-10.07673006684265,-13.081015576035444
1621785282459.979,0.068,0.744,-0.239,-1.5675368715170037,-9.958519350406768,-13.821534540514673
1621785282464.874,0.176,0.705,-0.316,-2.5418865836150606,-9.84028504607975,-14.562201268929746
1621785282467.08,0.24543139407244785,0.6774979542959785,-0.3574784951601636,-2.981,-9.787,-14.896
1621785282469.767,0.33,0.644,-0.408,-3.3875787458705116,-9.896927475377444,-14.519494149248203
1621785282474.661,0.567,0.571,-0.522,-4.12807220043842,-10.097136111025348,-13.8337718361172
1621785282479.554,0.845,0.428,-0.7,-4.8684548303436355,-10.297314782796628,-13.148152150421438
1621785282482.895,1.0068597165385769,0.2811652360515021,-0.8283950494061283,-5.374,-10.434,-12.68
1621785282484.446,1.082,0.213,-0.888,-4.973712141334898,-10.191570760107483,-12.50683625721963
1621785282489.339,1.307,-0.028,-0.998,-3.710912005435957,-9.426771952311826,-11.960551394508446
1621785282494.231,1.524,-0.232,-1.044,-2.44842690799024,-8.662163943540166,-11.414402816814405
1621785282498.704,1.6785272981335464,-0.3856129354226969,-1.0641159796386865,-1.294,-7.963,-10.915
1621785282499.123,1.693,-0.4,-1.066,-1.2589330717783167,-7.876194111922893,-10.830261549867934
1621785282504.014,1.799,-0.499,-1.091,-0.8495532506448773,-6.862801130659088,-9.841004340371635
1621785282508.905,1.826,-0.592,-1.098,-0.44015299423858145,-5.849357563213419,-8.851697749494138
1621785282513.795,1.772,-0.658,-1.157,-0.03085491419656794,-4.836166926677067,-7.862638065522621
1621785282514.51,1.7540136295556665,-0.6638492261607589,-1.1638728407388916,0.029,-4.688,-7.718
1621785282518.685,1.649,-0.698,-1.204,-0.4530086226878679,-4.003833155625609,-6.943192279758318
1621785282523.574,1.461,-0.754,-1.213,-1.0174330814519494,-3.202684622873302,-6.035904717753774
1621785282528.463,1.211,-0.789,-1.223,-1.5818575402160309,-2.4015360901209957,-5.128617155749231
1621785282530.309,1.112821631878558,-0.7795597722960153,-1.2271537001897534,-1.795,-2.099,-4.786
1621785282533.352,0.951,-0.764,-1.234,-1.5474537867078826,-1.9516281298299847,-4.825684451313755
1621785282538.24,0.723,-0.696,-1.199,-1.1498187789799073,-1.7149037867078827,-4.889429829984544
1621785282543.128,0.492,-0.607,-1.124,-0.7521837712519321,-1.4781794435857805,-4.953175208655332
1621785282546.105,0.33243412246528814,-0.5454879632404355,-1.0984207371890922,-0.51,-1.334,-4.992
1621785282548.016,0.23,-0.506,-1.082,-0.36999820688802326,-1.4217280034625612,-5.0643604773387745
1621785282552.903,-0.072,-0.415,-1.049,-0.01199924256476842,-1.646057518704013,-5.249393649910345
1621785282557.79,-0.389,-0.337,-1.018,0.34599972175848637,-1.8703870339454647,-5.434426822481914
1621785282561.899,-0.6311945735272073,-0.281497076900015,-0.983520911407585,0.647,-2.059,-5.59
1621785282562.676,-0.677,-0.271,-0.977,0.7647849786602339,-2.2187701799962887,-5.688933475598441
1621785282567.562,-0.929,-0.246,-0.923,1.5053538689923918,-3.223319539803303,-6.310974206717387
1621785282572.448,-1.112,-0.248,-0.838,2.24592275932455,-4.227868899610318,-6.933014937836333
1621785282577.333,-1.213,-0.258,-0.7,2.98634363209006,-5.232217480051958,-7.554931341621822
1621785282577.687,-1.2143768804038184,-0.25915947823479435,-0.6876080763656355,3.04,-5.305,-7.6
1621785282582.218,-1.232,-0.274,-0.529,3.1048725388601035,-6.079164766839378,-8.205381347150258
1621785282587.103,-1.189,-0.258,-0.344,3.1748135179027144,-6.913814414971774,-8.858060660428427
1621785282591.987,-1.101,-0.262,-0.168,3.2447405150413733,-7.748297208259222,-9.510609496558658
1621785282593.472,-1.065117994100295,-0.26504084795760213,-0.1248199590020499,3.266,-8.002,-9.709
1621785282596.87,-0.983,-0.272,-0.026,2.594372019987933,-8.132923312551247,-9.947590510372994
1621785282601.754,-0.85,-0.325,0.056,1.6291269512213988,-8.32108265907579,-10.290486161605223
1621785282606.636,-0.696,-0.419,0.106,0.6642196506752889,-8.509176162997571,-10.633261823357415
1621785282609.253,-0.615075596220189,-0.48438263086845657,0.12207769611519424,0.147,-8.61,-10.817
1621785282611.519,-0.545,-0.541,0.136,-0.1291140363096067,-8.41562836049589,-10.963532943306868
1621785282616.401,-0.398,-0.672,0.152,-0.7239401804646267,-7.99689798950643,-11.279205506802247
1621785282621.283,-0.265,-0.806,0.157,-1.3187960718763057,-7.578146677810279,-11.594893857083159
1621785282625.027,-0.17141764617616165,-0.8827068473965889,0.15316465763017056,-1.775,-7.257,-11.837
1621785282626.164,-0.143,-0.906,0.152,-1.811048239774592,-7.167167786481716,-11.777592500851473
1621785282631.045,-0.04,-0.99,0.127,-1.9657994550577453,-6.781527757996098,-11.522562498064836
1621785282635.926,0.075,-1.045,0.091,-2.1205584109979254,-6.395868439793169,-11.267519738675418
1621785282640.797,0.20077306383830296,-1.0719513708224935,0.04408465079047428,-2.275,-6.011,-11.013
1621785282640.806,0.201,-1.072,0.044,-2.2744860407859897,-6.010633762252056,-11.011693361824685
1621785282645.686,0.328,-1.112,0.003,-1.9891101872067636,-5.807280252705905,-10.286182514981187
1621785282650.565,0.417,-1.115,-0.037,-1.7038057168517056,-5.603977609513634,-9.560853145662037
1621785282655.445,0.476,-1.105,-0.07,-1.4184298632724794,-5.400624099967483,-8.835342298818539
1621785282656.564,0.48219324324324325,-1.100641791791792,-0.07481696696696698,-1.353,-5.354,-8.669
1621785282660.323,0.503,-1.086,-0.091,-0.9672285917804826,-5.246470392393695,-8.040035244200812
1621785282665.201,0.52,-1.047,-0.087,-0.46663024559447497,-5.106934017776951,-7.223855740345009
1621785282670.08,0.499,-1.009,-0.075,0.034093375452940444,-4.967362724147542,-6.407471987364117
1621785282672.33,0.4750144144144144,-0.9831693693693693,-0.05977837837837838,0.265,-4.903,-6.031
1621785282674.958,0.447,-0.953,-0.042,0.433424607662396,-4.837631241382515,-5.7333386884382405
1621785282679.835,0.387,-0.885,-0.012,0.7459896357805698,-4.716318874033679,-5.18093415854622
1621785282684.712,0.309,-0.82,0.016,1.0585546638987435,-4.595006506684844,-4.628529628654201
1621785282688.089,0.2556682855998398,-0.7673609052673743,0.037471209693571,1.275,-4.511,-4.246
1621785282689.588,0.232,-0.744,0.047,1.339399761373497,-4.483984442791621,-4.207759669021941
1621785282694.464,0.166,-0.663,0.084,1.5489219040535516,-4.396090368166605,-4.083346225362589
1621785282699.34,0.115,-0.578,0.122,1.7584335564646087,-4.308200694186191,-3.9589390107846785
1621785282703.845,0.08912580128205128,-0.49852924679487176,0.16081129807692307,1.952,-4.227,-3.844
1621785282704.215,0.087,-0.492,0.164,1.946924736515809,-4.218000805951643,-3.844469931804092
1621785282709.09,0.061,-0.415,0.197,1.880075883446993,-4.0994678859268445,-3.8506596404215747
1621785282713.964,0.017,-0.353,0.229,1.8132404215747056,-3.9809587104773714,-3.856848109113453
1621785282718.838,-0.017,-0.286,0.265,1.74640830750155,-3.86245547117173,-3.8630362678239303
1621785282719.597,-0.025253706672009622,-0.27759056301342416,0.2701391003806852,1.736,-3.844,-3.864
1621785282723.712,-0.07,-0.232,0.298,1.4310610039687461,-3.7697903385836535,-3.8741907633635124
1621785282728.585,-0.131,-0.173,0.312,1.0699466544710405,-3.681909897060647,-3.886258852164207
1621785282733.458,-0.183,-0.12,0.326,0.7088323049733349,-3.5940294555376413,-3.8983269409649015
1621785282735.345,-0.20197780116255762,-0.10334601122469432,0.32290158348366405,0.569,-3.56,-3.903
1621785282738.33,-0.232,-0.077,0.318,0.40723759596742914,-3.647423761147732,-3.9253774486234976
1621785282743.202,-0.264,-0.033,0.316,0.14323426134160522,-3.790103171772005,-3.9618984257464134
1621785282748.074,-0.305,-0.014,0.312,-0.12078230321830175,-3.93278973245444,-3.9984212330360602
1621785282751.086,-0.33776513329324515,-0.0022540088194026864,0.31880031068350373,-0.284,-4.021,-4.021
1621785282752.946,-0.358,0.005,0.323,-0.35821986442676096,-4.0974653698791625,-4.070755673445329
1621785282757.816,-0.421,0.017,0.326,-0.5525319310655064,-4.297656304776087,-4.201019017481812
1621785282762.687,-0.471,0.017,0.319,-0.7468927047947013,-4.497897420385623,-4.3313150138830725
1621785282766.825,-0.5100862786383917,0.012751491452348725,0.31220238632375796,-0.912,-4.668,-4.442
1621785282767.557,-0.517,0.012,0.311,-0.918372686226746,-4.699909947091589,-4.488981117438054
1621785282772.427,-0.531,-0.002,0.3,-0.9607750694325922,-4.9122313695675786,-4.8015826286636365
1621785282777.296,-0.527,-0.002,0.295,-1.003166824409241,-5.124499573319266,-5.1141057857907555
1621785282782.165,-0.49,-0.021,0.29,-1.0455607050317295,-5.336778420815814,-5.426644613737568
1621785282782.56,-0.4846453392167678,-0.021567918567918568,0.28886416286416283,-1.049,-5.354,-5.452
1621785282787.034,-0.424,-0.028,0.276,-1.118682213254695,-5.540862098401366,-5.577712401055409
1621785282791.902,-0.354,-0.033,0.262,-1.194505587459258,-5.744192534533602,-5.714503957783641
1621785282796.77,-0.264,-0.045,0.246,-1.2703251590873816,-5.947512773552693,-5.851288654353562
1621785282798.29,-0.23870248306997743,-0.04250147980938049,0.23663054928517682,-1.294,-6.011,-5.894
1621785282801.637,-0.183,-0.037,0.216,-1.2816551103106708,-6.042500753000357,-5.795879411262401
1621785282806.505,-0.105,-0.033,0.208,-1.263700135074291,-6.088316896706982,-5.6531683149870355
1621785282811.371,-0.035,0.0,0.188,-1.2457514633048177,-6.134116955704948,-5.510507320405534
1621785282814.015,-0.0007842920908771797,0.013034555393951552,0.18093961582827622,-1.236,-6.159,-5.433
1621785282816.239,0.028,0.024,0.175,-1.1956777449914582,-6.115989594657555,-5.284585805249262
1621785282821.104,0.087,0.049,0.169,-1.1074777915825438,-6.0219096443547135,-4.95994808200031
1621785282825.97,0.112,0.089,0.18,-1.019260133561112,-5.927810809131853,-4.635245193353006
1621785282829.735,0.1050346765694786,0.1176352185476991,0.18154784965122697,-0.951,-5.855,-4.384
1621785282830.835,0.103,0.126,0.182,-0.9819328590070217,-5.828196187783509,-4.3167455260050955
1621785282835.7,0.07,0.164,0.185,-1.1187584042751506,-5.7096346858882745,-4.019258311066924
1621785282840.564,0.01,0.215,0.187,-1.2555564841856708,-5.591096983160381,-3.721830811532965
1621785282845.428,-0.066,0.239,0.185,-1.392354564096191,-5.4725592804324865,-3.424403311999006
1621785282845.451,-0.06645294383375998,0.23911795412337497,0.184985845505195,-1.393,-5.472,-3.423
1621785282850.292,-0.162,0.264,0.182,-1.393,-5.550567910250634,-3.4833894525848006
1621785282855.155,-0.272,0.269,0.19,-1.393,-5.629492425066426,-3.5440530012275278
1621785282860.018,-0.38,0.284,0.213,-1.393,-5.70841693988222,-3.6047165498702554
1621785282861.163,-0.40567088480466,0.2927139700713066,0.2217139700713066,-1.393,-5.727,-3.619
1621785282864.88,-0.489,0.321,0.25,-1.3116084794231009,-5.928822578639811,-4.0041901031953255
1621785282869.742,-0.56,0.353,0.276,-1.2051376352107424,-6.192833131294293,-4.508069563595673
1621785282874.604,-0.606,0.363,0.29,-1.0986667909983836,-6.456843683948775,-5.011949023996022
1621785282876.872,-0.6162646778162825,0.3685989151725177,0.2937326101150118,-1.049,-6.58,-5.247
1621785282879.465,-0.628,0.375,0.298,-1.2984959967663199,-6.523363913374687,-5.802297840585793
1621785282884.326,-0.635,0.374,0.286,-1.7661982183666807,-6.417194580476657,-6.843252553518958
1621785282889.187,-0.635,0.302,0.246,-2.23392393078681,-6.311019915115899,-7.884259549461312
1621785282892.576,-0.6301189531320641,0.23017888180037172,0.18882202240417945,-2.56,-6.237,-8.61
1621785282894.047,-0.628,0.199,0.164,-2.7446816457270806,-6.195678535887549,-8.881072552556288
1621785282898.906,-0.613,0.093,0.068,-3.354627565617614,-6.059206617738525,-9.776340714019156
1621785282903.766,-0.576,0.003,-0.023,-3.9647267228511005,-5.922700413608658,-10.671833794626197
1621785282908.277,-0.5110120590895387,-0.0805559240277359,-0.12512390714501057,-4.531,-5.796,-11.503
1621785282908.625,-0.506,-0.087,-0.133,-4.532307563103625,-5.856413847804787,-11.497127047076937
1621785282913.483,-0.412,-0.202,-0.25,-4.550565731970948,-6.700003141572964,-11.415120017418623
1621785282918.341,-0.312,-0.33,-0.351,-4.568824818426414,-7.543634831023811,-11.333108866389836
1621785282923.199,-0.201,-0.457,-0.394,-4.587082987293737,-8.387224124791988,-11.25110183673152
1621785282923.975,-0.1819879887425872,-0.46994094883907933,-0.3908047039903508,-4.59,-8.522,-11.238
1621785282928.057,-0.082,-0.538,-0.374,-3.3626583343664764,-9.225706979915696,-10.686641953880486
1621785282932.914,0.044,-0.581,-0.291,-1.902166532358046,-10.063092610959583,-10.030545995536821
1621785282937.776,0.176,-0.593,-0.202,-0.44027994049094943,-10.901277956855939,-9.373823456484006
1621785282939.729,0.23078379964781842,-0.5828258657796909,-0.16717315593817259,0.147,-11.238,-9.11
1621785282942.767,0.316,-0.567,-0.113,0.6919005872737181,-11.208617182297028,-8.825589392746867
1621785282947.759,0.461,-0.517,-0.024,1.5872382847974815,-11.160337652116002,-8.358268299327964
1621785282952.751,0.557,-0.438,0.087,2.4825759823212445,-11.112058121934977,-7.890947205909063
1621785282955.859,0.5750585041334442,-0.3663886905053074,0.17853793474538962,3.04,-11.082,-7.6
1621785282957.742,0.586,-0.323,0.234,3.109815696662378,-10.85410662226595,-7.834781548474987
1621785282962.734,0.565,-0.211,0.379,3.294895633088625,-10.249966093998335,-8.457182471808068
1621785282967.726,0.527,-0.093,0.476,3.4799846212063876,-9.645796019072126,-9.07961383485961
1621785282971.988,0.46125984251968505,-0.0016467941507311568,0.5332024746906637,3.638,-9.13,-9.611
1621785282972.718,0.45,0.014,0.543,3.5927435975056,-9.098954107888842,-9.691737422050009
1621785282977.709,0.36,0.073,0.604,3.2833199733607796,-8.886689501725495,-10.243749167524369
1621785282982.701,0.346,0.108,0.663,2.9738358055336924,-8.674383362596114,-10.795868922927893
1621785282987.693,0.447,0.131,0.731,2.6643365017860385,-8.462066840225223,-11.348015680813706
1621785282988.118,0.4619772582774979,0.13423372621900523,0.7379780407883797,2.638,-8.444,-11.395
1621785282992.685,0.623,0.169,0.813,1.8325939415958943,-8.552180419940356,-11.21460490182721
1621785282997.677,0.838,0.223,0.904,0.9522743993823517,-8.670423058873398,-11.0174306583708
1621785283002.668,1.065,0.255,0.946,0.07212707207411784,-8.788642566268527,-10.82029498766217
1621785283004.245,1.1322949576955055,0.258159387685235,0.941576857240671,-0.206,-8.826,-10.758
1621785283007.66,1.278,0.265,0.932,-0.48629890415935095,-7.804517966337713,-10.741275216443663
1621785283012.652,1.419,0.284,0.909,-0.8960759823212447,-6.311183825755283,-10.7168247714476
1621785283017.644,1.431,0.293,0.915,-1.3058330205243083,-4.817922715989587,-10.69237552218926
1621785283020.375,1.3806692913385827,0.26838171858952414,0.9281297500855871,-1.53,-4.001,-10.679
1621785283022.636,1.339,0.248,0.939,-1.403555612739162,-3.8402109620973603,-10.213034209251635
1621785283027.628,1.21,0.182,0.951,-1.124383991281182,-3.4852111286025673,-9.184246548801163
1621785283032.62,1.108,0.126,0.977,-0.8451987163962218,-3.130193933155728,-8.15540857350448
1621785283036.504,1.0348669242431652,0.11355181689245367,1.0088984692130876,-0.628,-2.854,-7.355
1621785283037.612,1.014,0.11,1.018,-0.5511970396379762,-2.910537420731615,-7.239108592011866
1621785283042.604,0.904,0.12,1.065,-0.2052199234180377,-3.1652236163031797,-6.717048310202352
1621785283047.596,0.799,0.126,1.119,0.1407571928019008,-3.419909811874745,-6.194988028392839
1621785283052.588,0.681,0.105,1.143,0.48673430902183934,-3.6745960074463095,-5.6729277465833245
1621785283052.635,0.6795275821596245,0.1047829127543036,1.1428395442097026,0.49,-3.677,-5.668
1621785283057.58,0.525,0.082,1.126,0.4449330235514924,-3.5509964127868257,-5.761199733607798
1621785283062.572,0.325,0.061,1.077,0.3994388508809106,-3.4237984198098927,-5.855282920627233
1621785283067.564,0.105,0.042,1.025,0.35394467821032877,-3.29660042683296,-5.949366107646668
1621785283068.765,0.05423905707438744,0.041518853621558174,1.0088815963221989,0.343,-3.266,-5.972
1621785283072.556,-0.106,0.04,0.958,0.3108051969671747,-3.572438125217549,-6.124044069797358
1621785283077.549,-0.278,0.079,0.887,0.26840127427092636,-3.976049185041694,-6.324302011289859
1621785283082.542,-0.396,0.152,0.824,0.22599942491335864,-4.379640510313726,-6.524550161175598
1621785283084.897,-0.4389298185552893,0.20059089352961315,0.7867312564190345,0.206,-4.57,-6.619
1621785283087.534,-0.487,0.255,0.745,0.053615319406600054,-4.755902770208901,-6.805066273085074
1621785283092.526,-0.548,0.361,0.653,-0.234858855585831,-5.107828882833788,-7.157301907356948
1621785283097.519,-0.597,0.464,0.552,-0.5234035725098395,-5.459841053587647,-7.509623675446563
1621785283101.025,-0.6215806230742896,0.5293142270259696,0.48317425539198905,-0.726,-5.707,-7.757
1621785283102.511,-0.632,0.557,0.454,-0.7630366435090586,-5.807330608908868,-7.888931526131771
1621785283107.503,-0.661,0.654,0.372,-0.8874473959042818,-6.144353766516823,-8.332106146604307
1621785283112.496,-0.661,0.738,0.309,-1.011888571039368,-6.481459337964855,-8.775389138627798
1621785283117.155,-0.6339345625275101,0.8098634029441971,0.25393583410769305,-1.128,-6.796,-9.189
1621785283117.488,-0.632,0.815,0.25,-1.1379097899134225,-6.805104619482957,-9.22097971786644
1621785283122.48,-0.569,0.852,0.192,-1.2864621904704243,-6.941587137494703,-9.7003706938306
1621785283127.473,-0.494,0.869,0.147,-1.4350436519949143,-7.078096355270327,-10.179855451958588
1621785283132.465,-0.4,0.864,0.108,-1.5836033177937883,-7.214585548223043,-10.659269873463703
1621785283133.285,-0.3796395286294069,0.8597308689061659,0.10208889540853748,-1.608,-7.237,-10.738
1621785283137.458,-0.276,0.838,0.072,-1.7451020173434024,-7.143098052272349,-10.727911360987937
1621785283142.45,-0.126,0.798,0.009,-1.9091062850916356,-7.03077060096554,-10.715843122417786
1621785283147.443,0.009,0.759,-0.051,-2.0731506575661727,-6.918415681704678,-10.70377193274513
1621785283149.417,0.048138183951884995,0.7479306146398709,-0.07432477629455772,-2.138,-6.874,-10.699
1621785283152.436,0.108,0.731,-0.11,-2.059029463839833,-6.758538339310846,-10.34849807054978
1621785283157.428,0.175,0.71,-0.148,-1.9284528381834414,-6.567624173362994,-9.768948260468214
1621785283162.421,0.227,0.686,-0.183,-1.797850668119429,-6.376672659312056,-9.189285074378414
1621785283165.55,0.26711580594679185,0.6715833822378717,-0.20368471244131456,-1.716,-6.257,-8.826
1621785283167.413,0.291,0.663,-0.216,-1.7058370361402022,-6.148210091409892,-8.607380788788667
1621785283172.406,0.377,0.632,-0.246,-1.6786003995399237,-5.856654276893274,-8.021483594648586
1621785283177.398,0.414,0.593,-0.276,-1.6513690901386282,-5.565155487620316,-7.435700995822992
1621785283181.682,0.4148579601017015,0.5501019949149227,-0.3025967631527479,-1.628,-5.315,-6.933
1621785283182.391,0.415,0.543,-0.307,-1.6404849805541684,-5.2775010971383605,-6.854529259545104
1621785283187.384,0.422,0.492,-0.332,-1.7283783841043567,-5.013511402672478,-6.3021006492032505
1621785283192.377,0.408,0.45,-0.36,-1.8162717876545451,-4.749521708206595,-5.749672038861397
1621785283197.37,0.377,0.415,-0.389,-1.904169488960518,-4.4855191053404155,-5.197216416216461
1621785283197.815,0.3736145420761821,0.412861816048115,-0.39167272993985625,-1.912,-4.462,-5.148
1621785283202.363,0.339,0.391,-0.419,-1.879012349976541,-4.3263841054591134,-4.888327985712772
1621785283207.356,0.279,0.363,-0.454,-1.8427983593903712,-4.177504366382637,-4.603258880329332
1621785283212.349,0.22,0.316,-0.466,-1.8065825980355061,-4.028617347479303,-4.318175835817959
1621785283213.946,0.20720649356999657,0.30096762994474596,-0.47207691555425163,-1.795,-3.981,-4.227
1621785283217.342,0.18,0.269,-0.485,-1.6421659906774018,-3.981,-4.117532114534779
1621785283222.334,0.161,0.218,-0.503,-1.4175076881167141,-3.981,-3.956619831708941
1621785283227.327,0.101,0.152,-0.51,-1.1928054361644167,-3.981,-3.795676069980023
1621785283230.078,0.054720320751026806,0.12279972618814786,-0.51,-1.069,-3.981,-3.707
1621785283232.32,0.017,0.099,-0.51,-0.9654591940194609,-3.961959610175391,-3.6701700488794056
1621785283237.313,-0.051,0.051,-0.51,-0.7348937516078752,-3.9195603274768844,-3.588156837820251
1621785283242.306,-0.129,-0.003,-0.51,-0.5043283091962895,-3.877161044778378,-3.506143626761096
1621785283246.211,-0.18765563270095834,-0.04679620575004889,-0.5013971738705261,-0.324,-3.844,-3.442
1621785283247.299,-0.204,-0.059,-0.499,-0.2505540894302792,-3.851958326397821,-3.4552189150336687
1621785283252.292,-0.274,-0.093,-0.485,0.08645338579102668,-3.888475206173867,-3.515874071271847
1621785283257.285,-0.337,-0.106,-0.475,0.42346086101233255,-3.924992085949913,-3.576529227510025
