time,gyro_x,gyro_y,gyro_z,acc_x,acc_y,acc_z
1621785422087.608,,,,2.059,-5.668,-6.011
1621785422106.34,,,,2.481,-6.07,-7.002
1621785422124.449,-0.176,1.571,1.749,2.453415060464997,-6.228851203529155,-7.747744572256633
1621785422125.378,-0.1650746133967759,1.5652251527954386,1.7514972312235941,2.452,-6.237,-7.786
1621785422130.401,-0.106,1.534,1.765,2.4366782455033134,-6.107154622909436,-7.842093202903124
1621785422136.38,-0.045,1.513,1.794,2.4184401893341745,-5.952594824865888,-7.908863035657936
1621785422142.388,0.0,1.494,1.826,2.4001135121489425,-5.797284001262228,-7.975957311454718
1621785422144.72,0.01351770984958758,1.492068898592916,1.8368141678796701,2.393,-5.737,-8.002
1621785422148.426,0.035,1.489,1.854,2.329996793995576,-5.651926808658697,-7.896554514501578
1621785422154.495,0.047,1.494,1.866,2.226821780947884,-5.512609650321843,-7.723875375897806
1621785422160.591,0.054,1.471,1.881,2.123190222929145,-5.372676019583965,-7.550432139573029
1621785422164.367,0.04826925768866565,1.4799144880398536,1.8937349829140764,2.059,-5.286,-7.443
1621785422166.521,0.045,1.485,1.901,2.059,-5.262798712014489,-7.43021561682431
1621785422172.148,0.03,1.494,1.93,2.059,-5.202190836519756,-7.396819440531294
1621785422177.782,0.009,1.491,1.955,2.059,-5.141506701549607,-7.363381243711008
1621785422182.564,-0.008804822093325252,1.4935435460133322,1.971109124751104,2.059,-5.09,-7.335
1621785422183.422,-0.012,1.494,1.974,2.0566968080127306,-5.082620384857116,-7.346562963854455
1621785422189.068,-0.028,1.497,1.976,2.041543573902462,-5.0340681857691125,-7.422638384081518
1621785422194.719,-0.033,1.491,1.976,2.026377234859122,-4.985473997405758,-7.498779596421551
1621785422200.376,-0.031,1.492,1.977,2.0111945146494428,-4.936827322448215,-7.575003048902796
1621785422200.821,-0.03210008620689655,1.4929429310344828,1.9771571551724139,2.01,-4.933,-7.581
1621785422206.04,-0.045,1.504,1.979,2.0854928104052557,-5.005644025106944,-7.5864126920667925
1621785422211.71,-0.065,1.529,1.991,2.167508295686243,-5.084564586415064,-7.59229304761524
1621785422217.386,-0.079,1.545,2.0,2.2496120683911034,-5.163570103546156,-7.5981797332053995
1621785422219.141,-0.07992685547294684,1.5508700846619967,2.001544759121578,2.275,-5.188,-7.6
1621785422223.067,-0.082,1.564,2.005,2.2374139396515087,-5.188,-7.723649596260093
1621785422228.754,-0.072,1.588,2.004,2.1829655758606035,-5.188,-7.902772338504038
1621785422234.448,-0.054,1.607,1.984,2.1284494262643436,-5.188,-8.082118080641735
1621785422237.524,-0.04104861438300424,1.6140153338758727,1.9796828714610013,2.099,-5.188,-8.179
1621785422240.148,-0.03,1.62,1.976,2.099,-5.199098161214737,-8.216705291306479
1621785422245.853,-0.005,1.627,1.976,2.099,-5.223227471901931,-8.298683077615538
1621785422251.564,0.016,1.644,1.974,2.099,-5.247381564489866,-8.380745058843777
1621785422255.966,0.030627428376243545,1.6478493232569063,1.974,2.099,-5.266,-8.444
1621785422257.282,0.035,1.649,1.974,2.080157326790143,-5.257609677589573,-8.445350984116933
1621785422263.005,0.049,1.642,1.972,1.9982109255448264,-5.221120336657696,-8.45122638647037
1621785422268.735,0.061,1.644,1.969,1.916159648567358,-5.184584296343201,-8.457109308215925
1621785422274.469,0.059,1.628,1.96,1.834055933723814,-5.148024906337396,-8.462995989657538
1621785422274.473,0.05900272074140203,1.6279979594439484,1.96,1.834,-5.148,-8.463
1621785422280.212,0.063,1.625,1.96,1.7156289853929187,-5.148,-8.390370265188865
1621785422285.959,0.056,1.625,1.953,1.5970917971574699,-5.148,-8.317638570057454
1621785422291.712,0.042,1.62,1.96,1.4784337553741176,-5.148,-8.244832721965842
1621785422293.042,0.03992140404425792,1.6202309551061937,1.9593071346814193,1.451,-5.148,-8.228
1621785422297.471,0.033,1.621,1.957,1.318115445599046,-5.18080513149791,-8.246542030846644
1621785422303.237,0.017,1.613,1.948,1.1451113440698177,-5.223514551911207,-8.270682138036769
1621785422309.008,0.024,1.607,1.948,0.9719607406339681,-5.266260139163707,-8.294842687353398
1621785422311.673,0.0323053512553893,1.595003381519993,1.945692957984614,0.892,-5.286,-8.306
1621785422314.784,0.042,1.581,1.943,0.8317564976621477,-5.29731645900269,-8.341946399185016
1621785422320.567,0.066,1.562,1.936,0.7197656139800956,-5.318353420578324,-8.408769688895854
1621785422326.357,0.098,1.529,1.925,0.6076376198312567,-5.339416137711256,-8.47567479037693
1621785422330.366,0.1222126216455323,1.5068627459240849,1.915314951341787,0.53,-5.354,-8.522
1621785422332.152,0.133,1.497,1.911,0.5159021925941357,-5.336282485287224,-8.512664965366387
1621785422337.953,0.168,1.47,1.899,0.4701170772355607,-5.278741732201448,-8.482347794385708
1621785422343.76,0.19,1.442,1.881,0.424281860319775,-5.221138013645123,-8.45199744804958
1621785422349.117,0.22044296825730503,1.4336973722934623,1.8625497162076938,0.382,-5.168,-8.424
1621785422349.567,0.223,1.433,1.861,0.3801332831227519,-5.158857873755016,-8.418375917100597
1621785422355.382,0.243,1.408,1.841,0.3560077653261307,-5.040704696853615,-8.345690062200521
1621785422361.201,0.243,1.407,1.836,0.3318670545001233,-4.922477113064707,-8.272958433429858
1621785422367.026,0.241,1.377,1.826,0.3077010219584724,-4.804125517796621,-8.200150514874885
1621785422367.918,0.23931711606096132,1.3740932004689332,1.825388042203986,0.304,-4.786,-8.189
1621785422372.857,0.23,1.358,1.822,0.1447725866376688,-4.780762256139397,-8.140027094903362
1621785422378.695,0.223,1.339,1.805,-0.043443188732248506,-4.774570947739071,-8.082138361360313
1621785422384.537,0.225,1.326,1.787,-0.23178489779538364,-4.7683754967830465,-8.024210894921486
1621785422386.777,0.2215526238884482,1.318722205986724,1.778956122406379,-0.304,-4.766,-8.002
1621785422390.385,0.216,1.307,1.766,-0.4273660972336911,-4.801465369529315,-7.9440350949628415
1621785422396.24,0.216,1.272,1.737,-0.6275667836498762,-4.859019199009083,-7.849968620974402
1621785422402.101,0.211,1.23,1.7,-0.827976168971924,-4.916633025392238,-7.755804087530967
1621785422405.699,0.21406726886733546,1.1981004037797112,1.68098293302252,-0.951,-4.952,-7.698
1621785422407.966,0.216,1.178,1.669,-0.9943473245630955,-4.941491557681673,-7.6628922495274105
1621785422413.838,0.202,1.134,1.621,-1.1066181088692566,-4.914274397849877,-7.571962192816636
1621785422419.715,0.185,1.096,1.587,-1.2189915898306394,-4.887032341859239,-7.480948960302458
1621785422424.684,0.17064370772996973,1.050397659848139,1.5523760009958094,-1.314,-4.864,-7.404
1621785422425.599,0.168,1.042,1.546,-1.3088104615384617,-4.872024564102564,-7.392227435897436
1621785422431.488,0.136,1.019,1.501,-1.2754121538461538,-4.923668243589743,-7.316462756410257
1621785422437.383,0.108,0.977,1.471,-1.2419792307692308,-4.975365448717948,-7.240619551282051
1621785422443.283,0.075,0.941,1.44,-1.2085186153846152,-5.027105474358974,-7.164713525641026
1621785422443.727,0.07327084108286835,0.9388949369704483,1.4375190328580285,-1.206,-5.031,-7.159
1621785422449.19,0.052,0.913,1.407,-1.10505778913738,-5.151387169329073,-7.187023616613418
1621785422455.102,0.044,0.867,1.381,-0.9958150031948881,-5.281673891373802,-7.217351642172524
1621785422461.02,0.068,0.824,1.351,-0.8864639488817891,-5.412089738019169,-7.247709725239616
1621785422462.831,0.07289132495363693,0.8077974860910777,1.3424401813311353,-0.853,-5.452,-7.257
1621785422466.944,0.084,0.771,1.323,-0.865662076433121,-5.517456496815287,-7.248630152866242
1621785422472.874,0.086,0.71,1.29,-0.8839175031847134,-5.6118277707006365,-7.236563006369426
1621785422478.81,0.094,0.663,1.26,-0.9021917197452229,-5.7062961783439485,-7.224483439490446
1621785422481.996,0.10365474722564735,0.6292083847102343,1.2422996300863132,-0.912,-5.757,-7.218
1621785422484.75,0.112,0.6,1.227,-0.8880801493276447,-5.787795017332673,-7.220721420136376
1621785422490.697,0.14,0.553,1.196,-0.8364255710893553,-5.854296420453824,-7.226598288319175
1621785422496.651,0.161,0.506,1.161,-0.7847116173352127,-5.920874265107361,-7.2324819118001855
1621785422501.223,0.17404536141616128,0.4845135223733814,1.1395135223733814,-0.745,-5.972,-7.237
1621785422502.609,0.178,0.478,1.133,-0.729549154387564,-5.980479998987291,-7.23563457643425
1621785422508.573,0.188,0.452,1.101,-0.6630618005974986,-6.016970732695326,-7.229758949820244
1621785422514.543,0.188,0.415,1.065,-0.5965091270444074,-6.053497316319814,-7.223877550762064
1621785422520.509,0.19398799313893655,0.4000300171526587,1.0350600343053173,-0.53,-6.09,-7.218
1621785422520.521,0.194,0.4,1.035,-0.5298087436605251,-6.090105065160172,-7.217913179688002
1621785422526.502,0.209,0.38,1.002,-0.4341883803042948,-6.142633356872311,-7.1745065673749755
1621785422532.489,0.211,0.368,0.969,-0.3384704371830263,-6.1952152532580085,-7.1310556589844
1621785422538.216,0.204,0.36,0.941,-0.24690939205238494,-6.2455135905501695,-7.089491763497464
1621785422539.524,0.2024014408730497,0.35954326882087134,0.9350624946713274,-0.226,-6.257,-7.08
1621785422543.943,0.197,0.358,0.915,-0.27043780687397706,-6.29904867747215,-7.08
1621785422549.669,0.182,0.36,0.881,-0.32801472995090014,-6.353530067050314,-7.08
1621785422555.395,0.168,0.354,0.853,-0.3855941080196399,-6.408013779631487,-7.08
1621785422558.021,0.15515920525283536,0.35721019868679116,0.8374076063784429,-0.412,-6.433,-7.08
1621785422561.121,0.14,0.361,0.819,-0.49244770603452825,-6.454452721609208,-7.130950213821868
1621785422566.849,0.115,0.363,0.778,-0.6410903331397497,-6.494090755503933,-7.225090544321842
1621785422572.575,0.101,0.358,0.737,-0.7896759410801963,-6.533713584288052,-7.319194762684124
1621785422576.518,0.08791613370853586,0.359377249083312,0.7080777692504476,-0.892,-6.561,-7.384
1621785422578.301,0.082,0.36,0.695,-0.9128183497862007,-6.579890724805997,-7.401059481074804
1621785422584.027,0.086,0.358,0.658,-0.9796776645726655,-6.640559362297418,-7.455846975135934
1621785422589.754,0.099,0.346,0.625,-1.0465455313308347,-6.701235759911313,-7.510641477062768
1621785422595.017,0.11738321821437707,0.3340509081606549,0.5946676899462778,-1.108,-6.757,-7.561
1621785422595.48,0.119,0.333,0.592,-1.112653681710214,-6.754047664291369,-7.544812193190816
1621785422601.206,0.15,0.314,0.562,-1.1702209026128267,-6.717526524148852,-7.344564924782264
1621785422606.932,0.185,0.278,0.532,-1.2277856690419637,-6.681006941145421,-7.144326194246503
1621785422612.659,0.218,0.236,0.517,-1.28536270783848,-6.644479572446556,-6.944044774346793
1621785422613.518,0.21935034535686876,0.22984842670759784,0.5145993860322333,-1.294,-6.639,-6.914
1621785422618.385,0.227,0.195,0.501,-1.2837404988123515,-6.512729216152019,-6.6301538004750595
1621785422624.111,0.225,0.148,0.494,-1.2716699524940618,-6.36416864608076,-6.296202019002375
1621785422629.838,0.204,0.106,0.494,-1.259597862232779,-6.215589073634204,-5.962207521773555
1621785422632.019,0.1906679457661806,0.09876259913021232,0.4959045791762599,-1.255,-6.159,-5.835
1621785422635.564,0.169,0.087,0.499,-1.204221389358108,-6.085610536317567,-5.799359163851351
1621785422641.29,0.12,0.072,0.517,-1.122199245143581,-5.967065324113175,-5.741788904138513
1621785422647.016,0.058,0.054,0.531,-1.040177100929054,-5.848520111908783,-5.684218644425676
1621785422650.519,0.022109889162030445,0.04100530469659723,0.5353315651011343,-0.99,-5.776,-5.649
1621785422652.677,0.0,0.033,0.538,-0.9877158032180406,-5.82204459828897,-5.72906710825184
1621785422658.236,-0.068,0.031,0.548,-0.9818315221087278,-5.940659317492485,-5.9353266460835385
1621785422663.79,-0.131,0.042,0.564,-0.9759526678726385,-6.059164642356813,-6.141395957727514
1621785422668.469,-0.17482305087727013,0.04958475880568137,0.5707420078272722,-0.971,-6.159,-6.315
1621785422669.342,-0.183,0.051,0.572,-0.9690996348176814,-6.192914209407532,-6.372839319779801
1621785422674.889,-0.209,0.08,0.576,-0.9570257262767755,-6.40838703875293,-6.7403195617812175
1621785422680.435,-0.218,0.101,0.581,-0.9449534120019623,-6.623831416580368,-7.107751280863356
1621785422685.977,-0.199,0.115,0.585,-0.9328901319016734,-6.839114569139369,-7.474908036736251
1621785422686.386,-0.19641546532645596,0.115812282325971,0.585,-0.932,-6.855,-7.502
1621785422691.515,-0.164,0.126,0.585,-0.8841039741156876,-6.925266624800339,-7.645401275102731
1621785422697.051,-0.117,0.14,0.581,-0.8324050840284509,-7.001112301874429,-7.800188371172303
1621785422702.584,-0.068,0.168,0.581,-0.7807358325710931,-7.07691449712624,-7.954886728829063
1621785422704.269,-0.052457014174062795,0.17043811542367643,0.5816095288559191,-0.765,-7.1,-8.002
1621785422708.113,-0.017,0.176,0.583,-0.7184872398041522,-7.059947345386909,-7.923832722448645
1621785422713.638,0.024,0.185,0.588,-0.65163530184086,-7.002380398807407,-7.811484326704779
1621785422719.162,0.054,0.194,0.595,-0.5847922262643945,-6.944821083727673,-7.69915082469433
1621785422722.12,0.06418376465383764,0.198287900906879,0.6025038265870383,-0.549,-6.914,-7.639
1621785422724.681,0.073,0.202,0.609,-0.5715653347584204,-6.853346679821316,-7.575615843130807
1621785422730.197,0.086,0.218,0.613,-0.6201725588533531,-6.7226954150565925,-7.439082175450136
1621785422735.71,0.094,0.229,0.618,-0.668751815615665,-6.592119323631779,-7.302627065691031
1621785422739.937,0.094,0.2405073773760468,0.6195343169834729,-0.706,-6.492,-7.198
1621785422741.22,0.094,0.244,0.62,-0.7321873481322845,-6.473603928997982,-7.18667379157915
1621785422746.727,0.091,0.251,0.628,-0.8445961039495902,-6.39463910053128,-7.138056230523181
1621785422752.23,0.08,0.269,0.625,-0.956920143321939,-6.31573378361682,-7.089475309913102
1621785422757.721,0.07700492720170454,0.2739917879971591,0.629991787997159,-1.069,-6.237,-7.041
1621785422757.73,0.077,0.274,0.63,-1.0692271044427124,-6.236893914931522,-7.041091150762722
1621785422763.165,0.066,0.278,0.63,-1.2058703234606392,-6.173065109675982,-7.095934347511413
1621785422768.594,0.063,0.271,0.637,-1.3423600935307873,-6.1093079835207655,-7.1507159559069144
1621785422774.019,0.047,0.264,0.634,-1.478751656274357,-6.045596731989756,-7.205458147756374
1621785422775.262,0.046541433975860205,0.2630828679517204,0.6319364528913709,-1.51,-6.031,-7.218
1621785422779.44,0.045,0.26,0.625,-1.6248603622460371,-6.070878753628042,-7.250714905670908
1621785422784.858,0.049,0.246,0.618,-1.7738103510828311,-6.1225931988167,-7.293139330765796
1621785422790.27,0.063,0.225,0.609,-1.9225992548559947,-6.174251716342934,-7.335517875083724
1621785422792.758,0.07082118188795089,0.21533854002076655,0.6057795133402555,-1.991,-6.198,-7.355
1621785422795.678,0.08,0.204,0.602,-2.028645314270526,-6.234139501699705,-7.328731936264567
1621785422801.083,0.089,0.18,0.59,-2.0983300644908582,-6.301036861911224,-7.280107466110824
1621785422806.482,0.098,0.154,0.572,-2.167936124672999,-6.367858679686079,-7.231537904117063
1621785422810.21,0.10629215313603041,0.13188759163725222,0.5630168341026337,-2.216,-6.414,-7.198
1621785422811.877,0.11,0.122,0.559,-2.186885588049653,-6.443114411950347,-7.1632350936250795
1621785422817.268,0.131,0.101,0.555,-2.09272852233677,-6.53727147766323,-7.05080412371134
1621785422822.656,0.15,0.094,0.55,-1.9986268882810856,-6.631373111718914,-6.9384393435724805
1621785422827.616,0.1582941256520753,0.08939215241551372,0.5546078475844863,-1.912,-6.718,-6.835
1621785422828.038,0.159,0.089,0.555,-1.908182900935105,-6.7175137453420515,-6.825226281375238
1621785422833.416,0.187,0.084,0.548,-1.8595518666947901,-6.711318709133095,-6.700706053575195
1621785422838.791,0.215,0.098,0.531,-1.8109473247556773,-6.705127047739577,-6.576253659565492
1621785422844.16,0.25,0.11,0.517,-1.7623979751107361,-6.698942417211559,-6.451942585952331
1621785422844.978,0.25503221843003415,0.11289733788395905,0.5139501706484642,-1.755,-6.698,-6.433
1621785422849.525,0.283,0.129,0.497,-1.644452330598088,-6.607933846544286,-6.327441417815751
1621785422854.886,0.305,0.147,0.487,-1.5141088881369313,-6.501739545441729,-6.202980458506048
1621785422860.244,0.314,0.178,0.476,-1.3838426106082395,-6.395608112680823,-6.078593181625919
1621785422862.294,0.3067222424961226,0.18987423592737887,0.4748508803941246,-1.334,-6.355,-6.031
1621785422865.596,0.295,0.209,0.473,-1.3489117971334068,-6.2892351511039495,-5.935411556837136
1621785422870.944,0.274,0.243,0.471,-1.37306394707828,-6.182717976988099,-5.780590082831538
1621785422876.288,0.244,0.274,0.457,-1.3971973539140021,-6.076283464789529,-5.625888756961524
1621785422879.566,0.22497083028529627,0.2899599487929773,0.44656464886613023,-1.412,-6.011,-5.531
1621785422881.628,0.213,0.3,0.44,-1.4461134038150845,-5.985265326946515,-5.528606076925257
1621785422886.964,0.194,0.333,0.417,-1.5343938522150733,-5.918667795697401,-5.522410957739293
1621785422892.295,0.183,0.36,0.386,-1.6225854425894959,-5.852137297695644,-5.516222074204246
1621785422896.793,0.17286578657865787,0.3828019801980198,0.36657609094242755,-1.697,-5.796,-5.511
1621785422897.621,0.171,0.387,0.363,-1.7135305902077236,-5.801638714444034,-5.518566480065926
1621785422902.945,0.164,0.412,0.333,-1.8198049359211161,-5.837889730328778,-5.567211005654855
1621785422908.263,0.145,0.419,0.304,-1.925957446506209,-5.874099187292206,-5.615799764144241
1621785422913.576,0.127,0.414,0.269,-2.032012488988662,-5.910275397118582,-5.664343908953994
1621785422913.976,0.1260958904109589,0.4140753424657534,0.265986301369863,-2.04,-5.913,-5.668
1621785422918.887,0.115,0.415,0.229,-2.141158163919479,-5.907555226304617,-5.819880529397518
1621785422924.192,0.105,0.405,0.192,-2.250433120111692,-5.901673571438748,-5.983947744077045
1621785422929.493,0.093,0.391,0.157,-2.359627612439987,-5.895796247489066,-6.147894148989216
1621785422931.113,0.09024736138636678,0.3809069917500115,0.14323680693183388,-2.393,-5.894,-6.198
1621785422934.79,0.084,0.358,0.112,-2.41623265679231,-5.889697656149572,-6.3561111365032215
1621785422940.083,0.084,0.335,0.072,-2.449675588819219,-5.8835045205890335,-6.58370886835302
1621785422945.371,0.084,0.307,0.03,-2.4830876694328197,-5.877317098253181,-6.811096639195577
1621785422948.206,0.084,0.2876851175899829,0.012294691124150992,-2.501,-5.874,-6.933
1621785422950.655,0.084,0.271,-0.003,-2.4304583070753365,-5.90790598682326,-6.985152005156116
1621785422955.935,0.08,0.236,-0.031,-2.2783692638212543,-5.981007848753939,-7.097592580922372
1621785422961.211,0.072,0.204,-0.056,-2.126399770839301,-6.054052248639358,-7.209944772271555
1621785422965.252,0.06510013895321909,0.17870050949513663,-0.06136655859194071,-2.01,-6.11,-7.296
1621785422966.482,0.063,0.171,-0.063,-1.9710141415301565,-6.134809182662628,-7.300267468737887
1621785422971.749,0.042,0.131,-0.068,-1.804066759507846,-6.241048425767735,-7.318541857493575
1621785422977.011,0.03,0.084,-0.072,-1.6372818830488276,-6.347184256241655,-7.336798458070723
1621785422982.257,0.02401476254584281,0.031130402488278162,-0.07499261872707859,-1.471,-6.453,-7.355
1621785422982.27,0.024,0.031,-0.075,-1.4707107053040696,-6.453014389003201,-7.355230224051212
1621785422987.524,0.028,-0.016,-0.079,-1.3532461419753088,-6.458856867283951,-7.4487098765432105
1621785422992.774,0.033,-0.066,-0.077,-1.2358689128943758,-6.464695001714678,-7.5421200274348426
1621785422998.124,0.044,-0.103,-0.091,-1.1162537437128486,-6.470644447302241,-7.637311156835848
1621785422999.343,0.047877083999451876,-0.10938578541086191,-0.09008774494130543,-1.089,-6.472,-7.659
1621785423003.469,0.061,-0.131,-0.087,-1.0560075966557738,-6.415817284160195,-7.668323940075542
1621785423008.812,0.079,-0.164,-0.089,-1.0132834104316089,-6.343062329358175,-7.680398166617154
1621785423014.152,0.098,-0.176,-0.087,-0.9705826507660315,-6.270347267608821,-7.6924657726096
1621785423016.601,0.10121153494328576,-0.18012911635565312,-0.09021153494328576,-0.951,-6.237,-7.698
1621785423019.49,0.105,-0.185,-0.094,-0.923160409314455,-6.192557279929702,-7.640476026475049
1621785423024.825,0.119,-0.185,-0.099,-0.8717490397834375,-6.110484912907295,-7.534246509913971
1621785423030.156,0.129,-0.176,-0.096,-0.8203753135762575,-6.028472639142821,-7.428094774437689
1621785423033.827,0.1303776800439802,-0.1725557998900495,-0.096,-0.785,-5.972,-7.355
1621785423035.485,0.131,-0.171,-0.096,-0.7508620777782511,-5.962549388763471,-7.317197555053883
1621785423040.811,0.133,-0.155,-0.084,-0.641215615283043,-5.932195283326944,-7.195781133307777
1621785423046.133,0.124,-0.14,-0.077,-0.5316495719214551,-5.901863440814414,-7.074453763257656
1621785423051.022,0.1092933076287524,-0.10874827871109888,-0.06872748554117324,-0.431,-5.874,-6.963
1621785423051.452,0.108,-0.106,-0.068,-0.4253647599271817,-5.873023225054045,-6.954885254295141
1621785423056.77,0.091,-0.075,-0.052,-0.35565866423939013,-5.860940835134827,-6.854508476504722
1621785423062.083,0.063,-0.038,-0.037,-0.28601976902946863,-5.848870093298441,-6.754228467402435
1621785423067.394,0.024,0.0,-0.01,-0.21640647400159288,-5.836803788826943,-6.653985322562294
1621785423068.188,0.01891430936939423,0.00553442803918863,-0.008055471229474266,-0.206,-5.835,-6.639
1621785423072.702,-0.01,0.037,0.003,-0.22654538201814994,-5.85554538201815,-6.623459262319605
1621785423078.008,-0.042,0.077,0.024,-0.25069667915604116,-5.879696679156042,-6.605190973458892
1621785423083.309,-0.08,0.113,0.04,-0.2748246406336814,-5.903824640633681,-6.586940335930933
1621785423085.325,-0.0925544139329156,0.12365223000368596,0.04684786214522669,-0.284,-5.913,-6.58
1621785423088.608,-0.113,0.141,0.058,-0.2991624703833747,-5.975185321572322,-6.640266021523793
1621785423093.904,-0.134,0.162,0.084,-0.3236229054266221,-6.075504067825641,-6.737488510176701
1621785423099.198,-0.147,0.192,0.101,-0.3480731923153778,-6.175781193799778,-6.8346706631269445
1621785423102.43,-0.148832841055935,0.2091065165220602,0.11199704633561011,-0.363,-6.237,-6.894
1621785423104.488,-0.15,0.22,0.119,-0.3831265225596157,-6.267732115285641,-6.935337708011666
1621785423109.775,-0.143,0.236,0.134,-0.43482757191056215,-6.34667683136044,-7.041526090810317
1621785423115.061,-0.127,0.25,0.15,-0.4865214587979642,-6.425610610739406,-7.1476997626808485
1621785423119.507,-0.10511076695483335,0.26010272294392306,0.1575770422079423,-0.53,-6.492,-7.237
1621785423120.342,-0.101,0.262,0.159,-0.5439127943620008,-6.492,-7.239890334039993
1621785423125.62,-0.079,0.276,0.166,-0.6318603678450696,-6.492,-7.2581611327565465
1621785423130.896,-0.051,0.286,0.171,-0.7197713287113963,-6.492,-7.276424325330889
1621785423136.169,-0.026,0.288,0.168,-0.8076334727554002,-6.492,-7.2946773763822845
1621785423136.551,-0.024839773885645445,0.2882175423964415,0.1685801130571773,-0.814,-6.492,-7.296
1621785423141.438,-0.01,0.291,0.176,-0.8984465841094004,-6.424500179368336,-7.2115534158906
1621785423146.706,0.002,0.3,0.168,-0.9894786264690267,-6.351736472040064,-7.120521373530973
1621785423151.969,0.016,0.305,0.168,-1.0804220752199056,-6.279043579331027,-7.029577924780094
1621785423153.565,0.016303355144090214,0.300753027982737,0.16587651399136852,-1.108,-6.257,-7.002
1621785423157.23,0.017,0.291,0.161,-1.144386652926748,-6.212115865252035,-6.9527581822667965
1621785423162.488,0.017,0.309,0.154,-1.196588847443359,-6.1477227390818445,-6.882113296274256
1621785423167.611,0.01,0.316,0.154,-1.2474506596612431,-6.08498301862146,-6.813282340817718
1621785423170.386,0.004661594100793763,0.31119543469071437,0.14812775351087312,-1.275,-6.051,-6.776
1621785423172.809,0.0,0.307,0.143,-1.2947893319749673,-6.033955173919371,-6.75909962159802
1621785423178.003,-0.016,0.314,0.138,-1.3372072915150632,-5.9974199970892155,-6.722874064910493
1621785423183.194,-0.031,0.319,0.126,-1.3796033182942802,-5.9609037112501815,-6.6866672391209425
1621785423187.161,-0.04858607058823529,0.30294315294117646,0.11911849411764706,-1.412,-5.933,-6.659
1621785423188.382,-0.054,0.298,0.117,-1.407695666759039,-5.935845237227076,-6.667535711681228
1621785423193.566,-0.075,0.304,0.112,-1.3894241938071554,-5.947922990534253,-6.703768971602759
1621785423198.746,-0.098,0.295,0.103,-1.37116562869186,-5.959992211542669,-6.739976634628007
1621785423203.9,-0.12189247818910634,0.2900224003772695,0.09901792030181561,-1.353,-5.972,-6.776
1621785423203.923,-0.122,0.29,0.099,-1.352769457926437,-5.972313870533887,-6.776531913338401
1621785423209.096,-0.147,0.281,0.096,-1.301351295245892,-6.042316911291738,-6.895165385065201
1621785423214.266,-0.168,0.271,0.091,-1.249959826910707,-6.112283609145664,-7.013737266826501
1621785423219.431,-0.185,0.258,0.084,-1.1986217472662417,-6.182177621191744,-7.132185968656803
1621785423220.6,-0.1834148382825799,0.25528257991299413,0.0819619349347456,-1.187,-6.198,-7.159
1621785423224.594,-0.178,0.246,0.075,-1.1539190686224228,-6.240190173351113,-7.255366191404247
1621785423229.752,-0.154,0.251,0.058,-1.1111963571355303,-6.294677109740193,-7.379819307474759
1621785423234.907,-0.117,0.243,0.037,-1.0684979118737452,-6.34913309790015,-7.504201734976481
1621785423237.261,-0.09780648371960757,0.23660216123986919,0.024661310962604863,-1.049,-6.374,-7.561
1621785423240.058,-0.075,0.229,0.01,-1.0077744536482198,-6.364072215368346,-7.5411444307366935
1621785423245.205,-0.04,0.209,-0.009,-0.931915418282223,-6.345804121137352,-7.504608242274703
1621785423250.35,-0.002,0.195,-0.03,-0.8560851691928093,-6.327542959111738,-7.468085918223475
1621785423253.884,0.02343936731107206,0.18812449532133188,-0.04031325701800218,-0.804,-6.315,-7.443
1621785423255.49,0.035,0.185,-0.045,-0.7774006493506493,-6.30936948051948,-7.383976623376623
1621785423260.627,0.061,0.178,-0.066,-0.6923175029515939,-6.291359179456907,-7.195178984651712
1621785423265.761,0.075,0.185,-0.082,-0.6072828807556081,-6.273359149940968,-7.0064890200708385
1621785423270.427,0.08142327635874784,0.19784655271749568,-0.09943460725945844,-0.53,-6.257,-6.835
1621785423270.846,0.082,0.199,-0.101,-0.5227588504419669,-6.2564918491538215,-6.822804379691734
1621785423275.953,0.079,0.199,-0.124,-0.4344894061209079,-6.2502975021839235,-6.6741400524141605
1621785423281.058,0.059,0.211,-0.143,-0.3462495002887221,-6.2441052280904366,-6.52552547417048
1621785423286.158,0.035,0.22,-0.162,-0.25810242970728026,-6.237919468751389,-6.377067250033314
1621785423286.916,0.03023978345230681,0.22029751353423083,-0.16616518947923153,-0.245,-6.237,-6.355
1621785423291.254,0.003,0.222,-0.19,-0.1880369128014842,-6.394703361781076,-6.3291556363636365
1621785423296.346,-0.021,0.227,-0.209,-0.12117068645640075,-6.579823747680891,-6.298818181818182
1621785423301.436,-0.037,0.236,-0.215,-0.05433010760667903,-6.764873128014842,-6.268492363636363
1621785423303.365,-0.03965592585478294,0.23182640222819823,-0.22145010564733,-0.029,-6.835,-6.257
1621785423306.52,-0.044,0.225,-0.232,-0.01784804570680395,-6.940559015637321,-6.364481766377527
1621785423311.601,-0.042,0.199,-0.23,0.00011175254050676403,-7.110557795598935,-6.5375770632783325
1621785423316.679,-0.026,0.188,-0.248,0.018060332386067756,-7.280450387585366,-6.710564237996756
1621785423319.774,-0.007087299677559073,0.18067895471389384,-0.24677982578564897,0.029,-7.384,-6.816
1621785423321.752,0.005,0.176,-0.246,0.01486101664578486,-7.419649573414475,-6.882344460354394
1621785423326.821,0.038,0.175,-0.241,-0.021372964023626265,-7.511008755444186,-7.0523654465724
1621785423331.887,0.073,0.148,-0.244,-0.05758425809915875,-7.602310736232922,-7.222279980311438
1621785423336.142,0.11167506029908345,0.12445865894838398,-0.24988533526290402,-0.088,-7.679,-7.365
1621785423336.948,0.119,0.12,-0.251,-0.11949215700934579,-7.687193884112149,-7.374674706542057
1621785423342.006,0.166,0.086,-0.271,-0.3171457495327103,-7.738620994392523,-7.435395872897196
1621785423347.06,0.222,0.045,-0.293,-0.5146371588785047,-7.790005906542056,-7.496067214953271
1621785423352.111,0.269,0.003,-0.314,-0.7120140859813084,-7.8413610317757,-7.5567033869158875
1621785423352.469,0.2725472319008905,0.00030410375532326705,-0.3156317266744096,-0.726,-7.845,-7.561
1621785423357.156,0.319,-0.035,-0.337,-0.7144890274613263,-7.774495293200624,-7.479272094975417
1621785423362.198,0.361,-0.086,-0.358,-0.702106247751529,-7.698650767478115,-7.391354359035856
1621785423367.238,0.41,-0.129,-0.375,-0.6897282647799496,-7.622835621777191,-7.303470679937642
1621785423368.756,0.42055482807119643,-0.14377675929967507,-0.3804281972937582,-0.686,-7.6,-7.277
1621785423372.272,0.445,-0.178,-0.393,-0.5358929806957903,-7.487851077531337,-7.112011681368218
1621785423377.34,0.478,-0.213,-0.4,-0.3195141449388226,-7.326188728977281,-6.874181495514654
1621785423382.377,0.503,-0.251,-0.41,-0.10446950114567266,-7.165523190511134,-6.637817770655804
1621785423385.058,0.5120544643290169,-0.25472830884135994,-0.40893476890246855,0.01,-7.08,-6.512
1621785423387.411,0.52,-0.258,-0.408,0.1519698450160095,-7.0217633901056775,-6.3840822722968
1621785423392.441,0.518,-0.267,-0.403,0.4554880266975332,-6.897258993130196,-6.110606196353141
1621785423397.467,0.513,-0.265,-0.387,0.7587705004284232,-6.772851284518136,-5.83734249808337
1621785423401.299,0.49316447944006997,-0.25965966754155734,-0.3725048118985127,0.99,-6.678,-5.629
1621785423402.49,0.487,-0.258,-0.368,1.0340293838434067,-6.648451064599249,-5.586440712445188
1621785423407.508,0.456,-0.241,-0.347,1.219552129951931,-6.523943311785182,-5.407112381899553
1621785423412.522,0.415,-0.227,-0.328,1.4049214321233217,-6.399538538040775,-5.227932371954251
1621785423417.501,0.3514208680403332,-0.21110521701008328,-0.3091249451994739,1.589,-6.276,-5.05
1621785423417.534,0.351,-0.211,-0.309,1.5894588645839627,-6.275661459906943,-5.049761390416339
1621785423422.541,0.274,-0.211,-0.29,1.6591688923802042,-6.224230950510605,-5.013512175962294
1621785423427.544,0.206,-0.201,-0.264,1.7288211372288356,-6.1728430720889484,-4.977293008641006
1621785423432.543,0.14,-0.183,-0.243,1.798418998126775,-6.12149531693758,-4.941102120974077
1621785423433.662,0.128578073089701,-0.182328121946453,-0.238296853625171,1.814,-6.11,-4.933
1621785423437.54,0.089,-0.18,-0.222,1.8188101994155323,-6.1311648774283425,-5.022469709128901
1621785423442.531,0.035,-0.175,-0.201,1.8250010144905593,-6.158404463758461,-5.137618869524401
1621785423447.519,-0.014,-0.173,-0.173,1.8311881955695533,-6.185628060506034,-5.252700437593688
1621785423449.786,-0.029919222102478694,-0.17209033016557265,-0.1611742921524444,1.834,-6.198,-5.305
1621785423452.503,-0.049,-0.171,-0.147,1.7726799380701568,-6.2277309391175,-5.411085396396533
1621785423457.485,-0.072,-0.18,-0.124,1.660238703116225,-6.282247901519407,-5.605611830421517
1621785423462.461,-0.096,-0.183,-0.101,1.5479407264613472,-6.336695405352074,-5.799890423642628
1621785423465.87,-0.09805655375552283,-0.17957241040746194,-0.09757241040746195,1.471,-6.374,-5.933
1621785423467.434,-0.099,-0.178,-0.096,1.435726916951081,-6.401693742889647,-5.995869654910884
1621785423472.404,-0.105,-0.169,-0.084,1.3236360409556316,-6.4896989761092145,-6.195656973833902
1621785423477.396,-0.105,-0.175,-0.077,1.2110496018202503,-6.578093287827076,-6.396327569207433
1621785423481.965,-0.10133596006069209,-0.17591600998482698,-0.07333596006069208,1.108,-6.659,-6.58
1621785423482.384,-0.101,-0.176,-0.073,1.108,-6.666654670146264,-6.5904665897918315
1621785423487.369,-0.099,-0.166,-0.077,1.108,-6.757734539054439,-6.715004369727499
1621785423492.351,-0.087,-0.157,-0.077,1.108,-6.848765339564241,-6.839475056138861
1621785423497.328,-0.07,-0.155,-0.08,1.108,-6.939698003277296,-6.963811555501609
1621785423498.056,-0.06634092470796113,-0.15353636988318445,-0.08,1.108,-6.953,-6.982
1621785423502.302,-0.045,-0.145,-0.08,1.2352346651660102,-7.012517255015285,-7.033846142146649
1621785423507.273,-0.014,-0.119,-0.075,1.3841896454698932,-7.08219474060442,-7.094542974037628
1621785423512.24,0.017,-0.099,-0.068,1.5330275745638717,-7.151817472509087,-7.155192109385694
1621785423514.108,0.030925964187327824,-0.08921418732782369,-0.06197796143250689,1.589,-7.178,-7.178
1621785423517.203,0.054,-0.073,-0.052,1.6098700344501693,-7.159062376147069,-7.143989573488613
1621785423522.163,0.086,-0.052,-0.044,1.6433177342154204,-7.128711685619341,-7.089482210908204
1621785423527.119,0.119,-0.038,-0.03,1.6767358007377824,-7.0983878845157165,-7.035023139538429
1621785423530.124,0.13659468651419557,-0.027685873422712934,-0.019079160094637226,1.697,-7.08,-7.002
1621785423532.072,0.148,-0.021,-0.012,1.6898073185637892,-7.045377601222307,-6.939825974025974
1621785423537.021,0.175,-0.003,0.01,1.6715339954163484,-6.957417876241406,-6.781870129870129
1621785423541.966,0.183,0.0,0.03,1.6532750954927424,-6.869527578304049,-6.624038961038961
1621785423546.103,0.19053408754075685,0.004185604189309357,0.0534393834601324,1.638,-6.796,-6.492
1621785423546.908,0.192,0.005,0.058,1.6265889001194522,-6.769744371956262,-6.465744371956262
1621785423551.845,0.185,0.01,0.084,1.5565994364299058,-6.608706667891819,-6.3047066678918195
1621785423556.781,0.171,0.007,0.105,1.4866238169622346,-6.447700817789213,-6.143700817789213
1621785423561.711,0.134,0.005,0.127,1.4167347238812826,-6.286894054948084,-5.982894054948084
1621785423562.045,0.13033952727813292,0.005135573063772856,0.12855909023338785,1.412,-6.276,-5.972
1621785423566.638,0.08,0.007,0.15,1.3414141564189344,-6.228174489655278,-5.938291658371492
1621785423571.563,0.028,0.012,0.175,1.2657256313266665,-6.176891652245823,-5.90214652598049
1621785423576.511,-0.033,0.009,0.197,1.189684420894654,-6.125369852524541,-5.865832968345611
1621785423577.987,-0.04911868674401382,0.010492470994816094,0.20386536657615403,1.167,-6.11,-5.855
1621785423581.456,-0.087,0.014,0.22,1.0624581344836026,-6.188678077581987,-5.967800890234949
1621785423586.398,-0.134,0.01,0.232,0.9135288332109643,-6.3007620839451794,-6.128495915932453
1621785423591.337,-0.166,0.009,0.244,0.764687821218796,-6.4127796439060205,-6.289095677312775
1621785423593.948,-0.17605268625704956,0.01534906500445236,0.25087815375482336,0.686,-6.472,-6.374
1621785423596.272,-0.185,0.021,0.257,0.6460170772461791,-6.549339230144253,-6.499931614366961
1621785423601.203,-0.182,0.026,0.262,0.5611830515230022,-6.713434243404412,-6.767127834071712
1621785423606.132,-0.159,0.024,0.269,0.47637842809620895,-6.877472383609523,-7.034231447273619
1621785423609.874,-0.12556811421772754,0.021720553242117788,0.2705196311719215,0.412,-7.002,-7.237
1621785423611.057,-0.115,0.021,0.271,0.4010564834590741,-7.020983651142422,-7.274222845377299
1621785423615.978,-0.068,0.005,0.258,0.35552738894608255,-7.09996269264455,-7.429083711067746
1621785423620.896,-0.01,0.009,0.255,0.3100276578417664,-7.178890797621425,-7.5838447012184815
1621785423625.763,0.04644223127359427,0.005039141665010928,0.2460880687462746,0.265,-7.257,-7.737
1621785423625.811,0.047,0.005,0.246,0.26419607933721395,-7.2565843881856535,-7.736287089223567
1621785423630.722,0.099,-0.007,0.237,0.18211047460654778,-7.214147679324895,-7.663494194462411
1621785423635.63,0.147,-0.012,0.229,0.10007383966244726,-7.171736286919831,-7.590744725738396
1621785423640.535,0.192,-0.01,0.213,0.018086174504912372,-7.129350210970464,-7.518038683051526
1621785423641.617,0.1992854794520548,-0.013532353673723537,0.21057150684931505,0.0,-7.12,-7.502
1621785423645.436,0.225,-0.026,0.202,-0.04973312755613859,-7.041778964426268,-7.364630341847365
1621785423650.333,0.25,-0.03,0.19,-0.11350267767574658,-6.941481225403195,-7.1884901767111655
1621785423655.228,0.269,-0.035,0.185,-0.17724679373408442,-6.84122348946678,-7.012420263909252
1621785423657.436,0.27035463577812174,-0.035903090518747814,0.18183918318438264,-0.206,-6.796,-6.933
1621785423660.118,0.272,-0.037,0.178,-0.2441771211442517,-6.731183732101759,-6.838151063468281
1621785423665.005,0.274,-0.033,0.169,-0.313743933519717,-6.613074743979858,-6.6653161829443475
1621785423669.889,0.26,-0.037,0.166,-0.3832690412566998,-6.495036561066403,-6.492584915277799
1621785423673.242,0.23953407510431154,-0.03222461752433936,0.15986022253129348,-0.431,-6.414,-6.374
1621785423674.804,0.23,-0.03,0.157,-0.45040817960641805,-6.396562193957685,-6.340208093375627
1621785423679.715,0.199,-0.031,0.15,-0.5114295833205014,-6.341735856610514,-6.233962705183086
1621785423684.622,0.164,-0.035,0.15,-0.5723994179421638,-6.286955852914908,-6.127807104801207
1621785423689.097,0.13846071161980594,-0.024054590694202536,0.1481757651157004,-0.628,-6.237,-6.031
1621785423689.528,0.136,-0.023,0.148,-0.6327963211579711,-6.237,-6.033152894156134
1621785423694.429,0.098,-0.019,0.141,-0.6873157724179436,-6.237,-6.057624693301236
1621785423699.327,0.07,-0.021,0.134,-0.74180263259417,-6.237,-6.082081863493974
1621785423704.221,0.049,-0.014,0.127,-0.7962460379920683,-6.237,-6.106519528416895
1621785423704.918,0.044299121844127334,-0.013287745733958687,0.1258603931743339,-0.804,-6.237,-6.11
1621785423709.114,0.016,-0.009,0.119,-0.7832722802894427,-6.2473638598552785,-6.164476699239286
1621785423714.002,-0.003,-0.002,0.119,-0.7591267239779825,-6.2594366380110085,-6.227936174160431
1621785423718.888,-0.021,-0.007,0.115,-0.7349908157585503,-6.271504592120725,-6.291370291916631
1621785423720.708,-0.02547277636118194,-0.0025272236388180595,0.10903629818509075,-0.726,-6.276,-6.315
1621785423723.771,-0.033,0.005,0.099,-0.7221116965226554,-6.272306111696523,-6.366520021074816
1621785423728.65,-0.045,0.01,0.089,-0.7159181801276886,-6.266422271121304,-6.448584113308127
1621785423733.526,-0.056,0.024,0.068,-0.7097283828178268,-6.2605419636769355,-6.530598927663795
1621785423736.463,-0.053589178356713424,0.014959418837675351,0.068,-0.706,-6.257,-6.58
1621785423738.399,-0.052,0.009,0.068,-0.6914694245162893,-6.261802478337836,-6.609061150967421
1621785423743.269,-0.049,0.005,0.068,-0.6549176061368365,-6.2738831640734185,-6.682164787726327
1621785423748.135,-0.042,0.0,0.063,-0.6183969377930991,-6.285953554458213,-6.755206124413801
1621785423752.185,-0.038668708268487374,-0.004164114664390783,0.05883588533560922,-0.588,-6.296,-6.816
1621785423752.998,-0.038,-0.005,0.058,-0.5920937101241791,-6.296984563194423,-6.816984563194422
1621785423757.858,-0.042,-0.007,0.047,-0.6165649995331611,-6.302870063178862,-6.822870063178861
1621785423762.715,-0.044,-0.01,0.04,-0.6410227661759671,-6.308752310852448,-6.8287523108524475
1621785423767.569,-0.037,-0.017,0.028,-0.665464551367838,-6.314630714885936,-6.834630714885936
1621785423767.874,-0.03706242191014043,-0.01743695337098306,0.028124843820280875,-0.667,-6.315,-6.835
1621785423772.454,-0.038,-0.024,0.03,-0.6440617551462622,-6.326614301191767,-6.857938244853738
1621785423777.338,-0.044,-0.038,0.023,-0.619602445441882,-6.338998761801579,-6.882397554558118
1621785423782.219,-0.047,-0.042,0.019,-0.5951565856678532,-6.351376412320075,-6.906843414332147
1621785423783.648,-0.04641411411411411,-0.04492942942942943,0.018414114114114113,-0.588,-6.355,-6.914
1621785423787.097,-0.045,-0.052,0.017,-0.5838377837737253,-6.363543496464459,-6.924734136583551
1621785423791.972,-0.047,-0.058,0.014,-0.5779546427242277,-6.375619417566059,-6.939906447711202
1621785423796.844,-0.049,-0.056,0.01,-0.5720750372162262,-6.387688081503535,-6.9550696408634165
1621785423799.392,-0.049,-0.054953316953316955,0.00842997542997543,-0.569,-6.394,-6.963
1621785423801.713,-0.049,-0.054,0.007,-0.5602862158970853,-6.3997599589832825,-6.9687599589832825
1621785423806.581,-0.052,-0.049,0.002,-0.5420079858305885,-6.411842178857746,-6.980842178857746
1621785423811.444,-0.047,-0.065,0.0,-0.5237490056553353,-6.4239116742278295,-6.992911674227829
1621785423815.106,-0.044739525771124285,-0.065,0.0,-0.51,-6.433,-7.002
1621785423816.304,-0.044,-0.065,0.0,-0.503965738924691,-6.434527661031724,-6.9982572304722765
1621785423821.162,-0.049,-0.059,-0.002,-0.4794954391208244,-6.440722673640297,-6.983079449581271
1621785423826.016,-0.04,-0.056,-0.003,-0.45504604464369103,-6.446912393761091,-6.967914635285328
1621785423830.79,-0.04393579228098425,-0.049112363508277565,-0.004967896140492125,-0.431,-6.453,-6.953
1621785423830.868,-0.044,-0.049,-0.005,-0.431,-6.452706449348827,-6.952512407392966
1621785423835.716,-0.044,-0.04,-0.007,-0.431,-6.434432691257896,-6.922159385479217
1621785423840.563,-0.044,-0.037,-0.009,-0.431,-6.416163534274351,-6.891814006082821
1621785423845.405,-0.047,-0.035,-0.01,-0.431,-6.397912781720346,-6.86149919675583
1621785423846.443,-0.048501336696090795,-0.034571046658259774,-0.010857906683480453,-0.431,-6.394,-6.855
1621785423850.245,-0.054,-0.033,-0.014,-0.44073510244268366,-6.3747731726757,-6.840640723897042
1621785423855.083,-0.056,-0.03,-0.016,-0.45312261865691467,-6.3503078281525935,-6.822369137481052
1621785423859.916,-0.061,-0.031,-0.017,-0.4654976323315673,-6.325867176145155,-6.804115992310939
1621785423862.065,-0.0641137052759248,-0.034113705275924805,-0.017889630078835657,-0.471,-6.315,-6.796
1621785423864.747,-0.068,-0.038,-0.019,-0.48114912706490254,-6.315,-6.789291254990997
1621785423869.576,-0.075,-0.035,-0.024,-0.4994214358412276,-6.315,-6.777212949189697
1621785423874.401,-0.086,-0.044,-0.024,-0.5176789634385031,-6.315,-6.765144413998278
1621785423877.657,-0.09477834033719812,-0.04467525694901524,-0.028051541694091436,-0.53,-6.315,-6.757
1621785423879.223,-0.099,-0.045,-0.03,-0.5259747717217359,-6.32687442342088,-6.766861809281747
1621785423884.042,-0.103,-0.049,-0.03,-0.5135871850387524,-6.363417804135681,-6.797211396655056
1621785423888.859,-0.106,-0.051,-0.031,-0.5012052464777683,-6.399944522890583,-6.827547146129468
1621785423893.218,-0.106,-0.05733958914532082,-0.03733958914532082,-0.49,-6.433,-6.855
1621785423893.672,-0.106,-0.058,-0.038,-0.4888595594824469,-6.436158142971685,-6.8604390240067925
1621785423898.482,-0.108,-0.063,-0.035,-0.47678008709733205,-6.469608989576619,-6.9180488153819555
1621785423903.29,-0.099,-0.066,-0.042,-0.4647049066926596,-6.50304795069725,-6.975638137311932
1621785423908.094,-0.093,-0.086,-0.04,-0.4526401496690616,-6.536458047070291,-7.033177747732168
1621785423908.747,-0.09082398698459505,-0.08668000406731405,-0.04068000406731405,-0.451,-6.541,-7.041
1621785423912.896,-0.077,-0.091,-0.045,-0.4170034339361099,-6.567233570663475,-7.0621474702287195
1621785423917.695,-0.054,-0.093,-0.049,-0.3776795255497448,-6.597578003906497,-7.0866087990674815
1621785423922.49,-0.044,-0.087,-0.052,-0.338389625732468,-6.627896194316678,-7.111048972969567
1621785423924.246,-0.03630577628361858,-0.09139669926650366,-0.050900825183374084,-0.324,-6.639,-7.12
1621785423927.283,-0.023,-0.099,-0.049,-0.30476190325889685,-6.635073857807939,-7.096835761066835
1621785423932.073,-0.007,-0.113,-0.051,-0.2744177069360057,-6.628881164680817,-7.060298871616823
1621785423936.86,0.003,-0.105,-0.054,-0.2440920697545964,-6.622692259133591,-7.023784328888187
1621785423939.716,0.008372901250318959,-0.10559698902781321,-0.054,-0.226,-6.619,-7.002
1621785423941.644,0.012,-0.106,-0.054,-0.20639424080457952,-6.611757108067934,-6.9762752458964545
1621785423946.426,0.023,-0.101,-0.054,-0.15776590024984977,-6.593792498181473,-6.912469907334198
1621785423951.203,0.026,-0.093,-0.049,-0.1091896960688194,-6.575847148866188,-6.848732977007495
1621785423955.155,0.02434470064931745,-0.08720645227261106,-0.0456894012986349,-0.069,-6.561,-6.796
1621785423955.978,0.024,-0.086,-0.045,-0.06478030771180936,-6.559397585207016,-6.789697168480931
1621785423960.75,0.024,-0.075,-0.038,-0.04031335266435329,-6.550106336454817,-6.753151590055617
1621785423965.52,0.019,-0.066,-0.038,-0.01585641171903473,-6.540818890526215,-6.716620969403115
1621785423970.286,0.012,-0.058,-0.035,0.00857924925924164,-6.531539525597756,-6.680122134017841
1621785423970.563,0.01170912352639672,-0.05765094823167607,-0.0344764223475141,0.01,-6.531,-6.678
1621785423975.049,0.007,-0.052,-0.026,0.015543426484598286,-6.53391759288663,-6.666621387742141
1621785423979.81,0.0,-0.042,-0.023,0.021426548110511277,-6.537013972689743,-6.654545506510003
1621785423984.567,-0.005,-0.038,-0.017,0.027304541124166408,-6.540107653223246,-6.642480152429343
1621785423985.939,-0.005,-0.03396036350567336,-0.015557272680597629,0.029,-6.541,-6.639
1621785423989.322,-0.005,-0.024,-0.012,0.020401794663739203,-6.554007541406138,-6.647598205336261
1621785423994.073,-0.007,-0.03,-0.009,0.008326953367381033,-6.572274609008321,-6.659673046632619
1621785423998.822,-0.012,-0.012,-0.003,-0.0037429239654431755,-6.590534167024645,-6.671742923965443
1621785424001.284,-0.009406378600823046,-0.007331481481481481,-0.002481275720164609,-0.01,-6.6,-6.678
1621785424003.568,-0.007,-0.003,-0.002,-0.015817480309939097,-6.6028341570740725,-6.692618283855745
1621785424008.31,-0.007,-0.002,0.005,-0.027894534613054432,-6.608717850196103,-6.722965753643059
1621785424013.051,-0.005,0.005,0.007,-0.03996910175058194,-6.6146003316220785,-6.753306973629667
1621785424016.597,0.0009895870921181509,0.006497396773029538,0.012240888705603381,-0.049,-6.619,-6.776
1621785424017.787,0.003,0.007,0.014,-0.05507389304197815,-6.614483515430324,-6.777557408472302
1621785424022.521,0.005,0.002,0.016,-0.07923241326432816,-6.596519487572679,-6.783751900837007
1621785424027.252,0.01,0.019,0.017,-0.10337598236534407,-6.578566577215513,-6.789942559580858
1621785424031.881,0.016853609418568626,0.017041825880408965,0.02091634823918207,-0.127,-6.561,-6.796
1621785424031.98,0.017,0.017,0.021,-0.12725929957103527,-6.560805525321723,-6.795235066265446
1621785424036.705,0.023,0.028,0.024,-0.1396506178372495,-6.5515120366220625,-6.758680677380114
1621785424041.428,0.021,0.026,0.024,-0.15203617389077406,-6.542222869581919,-6.722143287022217
1621785424046.146,0.021,0.026,0.024,-0.16440892502721047,-6.532943306229592,-6.685643671169729
1621785424047.134,0.02016215516795197,0.02683784483204803,0.024,-0.167,-6.531,-6.678
1621785424050.863,0.017,0.03,0.024,-0.176552220137586,-6.521447779862414,-6.653996985295297
1621785424055.575,0.017,0.037,0.028,-0.18862226391494685,-6.509377736085053,-6.623667131700903
1621785424060.287,0.01,0.028,0.028,-0.20069293308317698,-6.497307066916823,-6.593335706611504
1621785424062.359,0.01,0.03196151252658333,0.028,-0.206,-6.492,-6.58
1621785424064.994,0.01,0.037,0.028,-0.206,-6.485235621193373,-6.571501165089109
1621785424069.698,0.002,0.037,0.035,-0.206,-6.473159641313257,-6.556328780111527
1621785424074.4,-0.005,0.037,0.037,-0.206,-6.461089302071448,-6.541163482089768
1621785424077.551,-0.0110366366990594,0.041695161877046194,0.0356585251779868,-0.206,-6.453,-6.531
1621785424079.098,-0.014,0.044,0.035,-0.21599835756726726,-6.450959518863823,-6.534060721704265
1621785424083.794,-0.021,0.049,0.04,-0.24635164162761863,-6.444764971096404,-6.543352543355393
1621785424088.486,-0.026,0.045,0.044,-0.2766796773102749,-6.438575576059128,-6.552636635911308
1621785424092.713,-0.03410955553242428,0.05130743208077443,0.044,-0.304,-6.433,-6.561
1621785424093.177,-0.035,0.052,0.044,-0.3046133346238849,-6.43480933714046,-6.564588007549727
1621785424097.863,-0.04,0.052,0.037,-0.31080604623400926,-6.453077836390327,-6.600815370468954
1621785424102.548,-0.042,0.049,0.038,-0.31699746729258416,-6.471342528513123,-6.6370351836616175
1621785424107.228,-0.047,0.054,0.04,-0.32318211295552435,-6.4895872332187965,-6.6732153607898175
1621785424107.847,-0.04673540003131361,0.053338500078284015,0.04,-0.324,-6.492,-6.678
1621785424111.906,-0.045,0.049,0.04,-0.32910709089145407,-6.505170918614803,-6.720200698418857
1621785424116.581,-0.04,0.054,0.04,-0.33498918420797363,-6.520340527694248,-6.768805364244835
1621785424121.253,-0.035,0.052,0.035,-0.3408672842500081,-6.535499838328969,-6.817377033013225
1621785424122.948,-0.03173270588235294,0.04945877124183006,0.03572606535947712,-0.343,-6.541,-6.835
1621785424125.922,-0.026,0.045,0.037,-0.34694705720349284,-6.5390264713982535,-6.835
1621785424130.588,-0.026,0.035,0.03,-0.3531391611450419,-6.535930419427479,-6.835
1621785424135.252,-0.017,0.04,0.028,-0.359328997035333,-6.532835501482333,-6.835
1621785424138.018,-0.0164064333612741,0.04,0.026812866722548196,-0.363,-6.531,-6.835
1621785424139.912,-0.016,0.04,0.026,-0.3653929284566308,-6.531,-6.827569327424146
1621785424144.569,-0.014,0.03,0.017,-0.3712765466971866,-6.531,-6.809299144466631
1621785424149.224,-0.014,0.024,0.023,-0.377157697365217,-6.531,-6.791036623971168
1621785424153.057,-0.018120472440944883,0.019879527559055116,0.018055433070866142,-0.382,-6.531,-6.776
1621785424153.875,-0.019,0.019,0.017,-0.38363524570164453,-6.531,-6.774964344388958
1621785424158.524,-0.017,0.019,0.016,-0.3929275013419653,-6.531,-6.769079249150089
1621785424163.169,-0.021,0.016,0.007,-0.40221194918424774,-6.531,-6.763199098849976
1621785424167.812,-0.019,0.009,0.009,-0.41149249312751107,-6.531,-6.757321421019243
1621785424168.066,-0.019,0.008616942909760589,0.008781110234148907,-0.412,-6.531,-6.757
1621785424172.452,-0.019,0.002,0.005,-0.4348390976953418,-6.539784268344362,-6.751143821103758
1621785424177.088,-0.016,-0.003,0.002,-0.4589800176027643,-6.549069237539524,-6.744953841640317
1621785424181.723,-0.023,-0.005,-0.003,-0.48311585226717085,-6.558352250871989,-6.738765166085341
1621785424183.045,-0.02185789612443976,-0.006142103875560243,-0.0035710519377801214,-0.49,-6.561,-6.737
1621785424186.353,-0.019,-0.009,-0.005,-0.4769437049860365,-6.554361205925103,-6.732795430419232
1621785424190.981,-0.014,-0.017,-0.01,-0.458678381865395,-6.545073753490879,-6.72691337721089
1621785424195.607,-0.012,-0.024,-0.012,-0.44042076725841484,-6.535790220639871,-6.721033806405252
1621785424197.994,-0.013033072696534235,-0.025033072696534233,-0.013033072696534235,-0.431,-6.531,-6.718
1621785424200.228,-0.014,-0.026,-0.014,-0.4149745171849427,-6.525158936170213,-6.69448597381342
1621785424204.847,-0.019,-0.031,-0.017,-0.3818430441898527,-6.513082978723404,-6.645872504091653
1621785424209.464,-0.037,-0.03,-0.019,-0.34872382978723404,-6.501011489361702,-6.597277021276596
1621785424212.911,-0.03924166402032391,-0.03,-0.01750555731978406,-0.324,-6.492,-6.561
1621785424214.077,-0.04,-0.03,-0.017,-0.3163243136869035,-6.497404309751058,-6.559433533405491
1621785424218.687,-0.051,-0.031,-0.019,-0.2859767457115681,-6.518771474958181,-6.553240152186034
1621785424223.294,-0.056,-0.028,-0.017,-0.25565007051723576,-6.540123929941946,-6.547051034799436
1621785424227.798,-0.05893431237408546,-0.03289052062347577,-0.014065687625914538,-0.226,-6.561,-6.541
1621785424227.899,-0.059,-0.033,-0.014,-0.22612894797383903,-6.5613936306569824,-6.542065517468038
1621785424232.5,-0.065,-0.026,-0.014,-0.23201309692049824,-6.579355769546784,-6.590687169290433
1621785424237.098,-0.059,-0.024,-0.017,-0.23789318697209716,-6.597305518125349,-6.639275281822067
1621785424241.695,-0.058,-0.028,-0.017,-0.24377234035560522,-6.615252407401321,-6.68785565451737
1621785424242.655,-0.05716380456164602,-0.026954755702057527,-0.01783619543835398,-0.245,-6.619,-6.698
1621785424246.287,-0.054,-0.023,-0.021,-0.23544571607357517,-6.619,-6.7315624845620565
1621785424250.876,-0.045,-0.033,-0.019,-0.22337457802954203,-6.619,-6.773966225896224
1621785424255.464,-0.033,-0.028,-0.026,-0.21130536664086813,-6.619,-6.816363199235925
1621785424257.481,-0.0285992968250586,-0.02888014063498828,-0.02511985936501172,-0.206,-6.619,-6.835
1621785424260.047,-0.023,-0.03,-0.024,-0.19576651815181517,-6.619,-6.828235495049505
1621785424264.628,-0.017,-0.037,-0.026,-0.1774989108910891,-6.619,-6.816160297029703
1621785424269.205,-0.012,-0.03,-0.026,-0.15924590759075907,-6.619,-6.8040947524752475
1621785424272.276,-0.010657845595689058,-0.02865784559568906,-0.029355386010777355,-0.147,-6.619,-6.796
1621785424273.781,-0.01,-0.028,-0.031,-0.147,-6.619,-6.783970532790952
1621785424278.353,-0.009,-0.031,-0.031,-0.147,-6.619,-6.7474294407513975
1621785424282.922,-0.007,-0.03,-0.026,-0.147,-6.619,-6.710911763733175
1621785424287.04,-0.007,-0.03450941075820768,-0.02419623569671693,-0.147,-6.619,-6.678
1621785424287.488,-0.007,-0.035,-0.024,-0.14760811930405965,-6.6184222866611435,-6.677422286661144
1621785424292.051,-0.01,-0.038,-0.028,-0.1538019884009942,-6.612538111019055,-6.671538111019055
1621785424296.611,-0.016,-0.035,-0.024,-0.15999188069594036,-6.606657713338857,-6.665657713338857
1621785424301.169,-0.01,-0.031,-0.023,-0.1661787903893952,-6.600780149130074,-6.659780149130074
1621785424301.774,-0.01092993084222377,-0.031,-0.023,-0.167,-6.6,-6.659
1621785424305.723,-0.017,-0.031,-0.023,-0.1721030320138151,-6.594628387353879,-6.664103032013815
1621785424310.274,-0.016,-0.035,-0.028,-0.17798405951115834,-6.5884378320935175,-6.669984059511158
1621785424314.823,-0.017,-0.035,-0.021,-0.18386256309776833,-6.582249933581297,-6.675862563097768
1621785424316.477,-0.015180328749462828,-0.03681967125053717,-0.023547539750752043,-0.186,-6.58,-6.678
1621785424319.368,-0.012,-0.04,-0.028,-0.18225658901830283,-6.58,-6.678
1621785424323.91,-0.016,-0.033,-0.023,-0.1763751247920133,-6.58,-6.678
1621785424328.451,-0.016,-0.04,-0.028,-0.17049492512479203,-6.58,-6.678
1621785424331.15,-0.014810010764262648,-0.03821501614639397,-0.025620021528525296,-0.167,-6.58,-6.678
1621785424332.987,-0.014,-0.037,-0.024,-0.16449041187260297,-6.575106303151576,-6.668212606303151
1621785424337.521,-0.017,-0.035,-0.024,-0.15829698182424545,-6.5630291145572786,-6.644058229114557
1621785424342.052,-0.017,-0.037,-0.019,-0.15210755377688845,-6.550959729864933,-6.619919459729864
1621785424345.791,-0.021955508817343473,-0.037825918136223914,-0.020651836272447825,-0.147,-6.541,-6.6
1621785424346.579,-0.023,-0.038,-0.021,-0.1459213212811816,-6.5404606606405915,-6.598921321281181
1621785424351.104,-0.028,-0.031,-0.021,-0.13972794105361647,-6.537363970526808,-6.592727941053616
1621785424355.626,-0.033,-0.031,-0.016,-0.13353857078411388,-6.534269285392057,-6.586538570784114
1621785424360.145,-0.035,-0.026,-0.024,-0.1273532104726738,-6.531176605236337,-6.580353210472674
1621785424360.403,-0.035400010812564206,-0.025485700383846028,-0.023542844785640914,-0.127,-6.531,-6.58
1621785424364.661,-0.042,-0.017,-0.016,-0.127,-6.539759710688454,-6.591387623894991
1621785424369.174,-0.04,-0.019,-0.014,-0.127,-6.54904480310742,-6.603458244039646
1621785424373.685,-0.044,-0.017,-0.014,-0.127,-6.558325375033485,-6.615522987543531
1621785424374.985,-0.042846153846153846,-0.01901923076923077,-0.013423076923076923,-0.127,-6.561,-6.619
1621785424378.192,-0.04,-0.024,-0.012,-0.127,-6.561,-6.636411655144641
1621785424382.696,-0.04,-0.017,-0.016,-0.127,-6.561,-6.660867507886436
1621785424387.198,-0.044,-0.019,-0.014,-0.127,-6.561,-6.685311430297336
1621785424389.535,-0.042960920538428135,-0.017960920538428137,-0.011402301346070343,-0.127,-6.561,-6.698
1621785424391.696,-0.042,-0.017,-0.009,-0.127,-6.5580228365788855,-6.706782632092288
1621785424396.191,-0.042,-0.017,-0.012,-0.127,-6.55183072680187,-6.725049355934484
1621785424400.684,-0.035,-0.014,-0.01,-0.127,-6.545640971311338,-6.743309134631554
1621785424404.053,-0.036500951759395224,-0.01775237939848806,-0.01,-0.127,-6.541,-6.757
1621785424405.173,-0.037,-0.019,-0.01,-0.127,-6.542546264934365,-6.753984783377988
1621785424409.66,-0.037,-0.017,-0.01,-0.127,-6.54874008728915,-6.741906829786158
1621785424414.143,-0.031,-0.014,-0.01,-0.127,-6.554928854287785,-6.72983873413882
1621785424418.541,-0.031,-0.010074953698659985,-0.01,-0.127,-6.561,-6.718
1621785424418.625,-0.031,-0.01,-0.01,-0.12688961696953321,-6.561110383030467,-6.717883807336351
1621785424423.102,-0.031,-0.014,-0.007,-0.12100530297912586,-6.566994697020874,-6.711689792609606
1621785424427.577,-0.038,-0.016,-0.005,-0.11512387691684117,-6.572876123083159,-6.705498817807202
1621785424432.049,-0.035,-0.012,-0.003,-0.10924598054448423,-6.578754019455515,-6.699311558467879
1621785424432.997,-0.03542425566785032,-0.012,-0.0034242556678503143,-0.108,-6.58,-6.698
1621785424436.518,-0.037,-0.012,-0.005,-0.11751882753135101,-6.575362622484726,-6.712400277547428
1621785424440.983,-0.044,-0.01,-0.002,-0.12958929750038078,-6.569482137115199,-6.730660732115961
1621785424445.447,-0.038,-0.01,-0.005,-0.14165778740543924,-6.563602616392222,-6.7489181912031
1621785424447.423,-0.03578465075541931,-0.01,-0.0027846507554193127,-0.147,-6.561,-6.757
1621785424449.907,-0.033,-0.01,0.0,-0.15045080215717532,-6.557549197842825,-6.757
1621785424454.364,-0.037,-0.003,0.0,-0.15664284502933895,-6.5513571549706615,-6.757
1621785424458.819,-0.03,-0.014,-0.003,-0.16283217447342538,-6.545167825526575,-6.757
1621785424461.819,-0.027303932861609346,-0.014,-0.002325983215402337,-0.167,-6.541,-6.757
1621785424463.27,-0.026,-0.014,-0.002,-0.16891921475312316,-6.539989886972041,-6.757
1621785424467.718,-0.024,-0.01,-0.002,-0.17480280445313165,-6.536893260814141,-6.757
1621785424472.164,-0.03,-0.009,-0.005,-0.1806838106569219,-6.533797994391094,-6.757
1621785424476.183,-0.024571177311201495,-0.007190392437067165,-0.0031903924370671652,-0.186,-6.531,-6.757
1621785424476.606,-0.024,-0.007,-0.003,-0.186,-6.530439539478166,-6.756410041555964
1621785424481.045,-0.021,-0.012,0.0,-0.186,-6.5245559983650105,-6.750216840384222
1621785424485.482,-0.026,-0.007,-0.002,-0.186,-6.518675045984058,-6.744026364193746
1621785424489.916,-0.026,-0.01,-0.002,-0.186,-6.5127979767014095,-6.737839975475168
1621785424490.518,-0.026,-0.009048663543675945,-0.0021359052080462937,-0.186,-6.512,-6.737
1621785424494.346,-0.026,-0.003,-0.003,-0.186,-6.517085630879014,-6.726561073458866
1621785424498.775,-0.024,-0.002,-0.002,-0.186,-6.522969834576711,-6.714482971132014
1621785424503.199,-0.024,-0.007,-0.002,-0.186,-6.528847551086604,-6.702418184611708
1621785424504.819,-0.02290089990614476,-0.008099100093855243,-0.002,-0.186,-6.531,-6.698
1621785424507.621,-0.021,-0.01,-0.002,-0.178342121471343,-6.531,-6.701927117194184
1621785424512.04,-0.024,-0.005,-0.002,-0.16626513259195894,-6.531,-6.708120444824637
1621785424516.456,-0.019,-0.005,0.0,-0.15419615055603078,-6.531,-6.7143096663815225
1621785424519.089,-0.021983402489626557,-0.0038066390041493776,0.0,-0.147,-6.531,-6.718
1621785424520.869,-0.024,-0.003,0.0,-0.1445004714474293,-6.531,-6.718
1621785424525.279,-0.028,0.0,0.0,-0.13830685227409095,-6.531,-6.718
1621785424529.686,-0.024,0.0,0.002,-0.13211769042190258,-6.531,-6.718
1621785424533.33,-0.027309717833582794,0.0,0.002,-0.127,-6.531,-6.718
1621785424534.09,-0.028,0.0,0.002,-0.127,-6.531,-6.718
1621785424538.491,-0.03,-0.005,0.005,-0.127,-6.531,-6.718
1621785424542.89,-0.031,-0.01,0.009,-0.127,-6.531,-6.718
1621785424547.285,-0.03,-0.002,0.007,-0.127,-6.531,-6.718
1621785424547.541,-0.03,-0.0018833796553640912,0.006883379655364091,-0.127,-6.531,-6.718
1621785424551.677,-0.03,0.0,0.005,-0.13283438086546243,-6.533917190432731,-6.712165619134538
1621785424556.066,-0.026,0.007,0.009,-0.139025554044048,-6.537012777022024,-6.7059744459559525
1621785424560.454,-0.028,0.005,0.005,-0.14521569404025966,-6.54010784702013,-6.69978430595974
1621785424561.719,-0.028,0.0070202205882352944,0.005,-0.147,-6.541,-6.698
1621785424564.837,-0.028,0.012,0.005,-0.147,-6.541,-6.702407288539186
1621785424569.217,-0.024,0.012,0.012,-0.147,-6.541,-6.708598750733341
1621785424573.595,-0.023,0.014,0.007,-0.147,-6.541,-6.714787107015909
1621785424575.868,-0.02351953125,0.0129609375,0.0059609375,-0.147,-6.541,-6.718
1621785424577.97,-0.024,0.012,0.005,-0.15280670263540153,-6.53668219547624,-6.720828906412119
1621785424582.342,-0.024,0.009,0.012,-0.16488410458601369,-6.527701563256554,-6.726712768900878
1621785424586.711,-0.024,0.009,0.012,-0.17695273915750157,-6.518727450370062,-6.732592360102372
1621785424589.986,-0.024,0.005999384890678298,0.010499692445339149,-0.186,-6.512,-6.737
1621785424591.077,-0.024,0.005,0.01,-0.18754880754298392,-6.510451192457015,-6.737
1621785424595.439,-0.024,0.009,0.01,-0.19374230449251248,-6.504257695507487,-6.737
1621785424599.8,-0.024,0.005,0.016,-0.19993441486411537,-6.498065585135884,-6.737
1621785424604.072,-0.024,0.005,0.010117001008629386,-0.206,-6.492,-6.737
1621785424604.157,-0.024,0.005,0.01,-0.20587909319899242,-6.4918790931989925,-6.736885138539043
1621785424608.511,-0.026,0.01,0.01,-0.1996829670806914,-6.485682967080692,-6.730998818726657
1621785424612.862,-0.023,0.007,0.01,-0.1934910101624251,-6.479491010162425,-6.725116459654304
1621785424617.21,-0.031,0.014,0.012,-0.18730356987752975,-6.4733035698775305,-6.719238391383653
1621785424618.126,-0.029945889756700567,0.013578355902680228,0.012843288194639545,-0.186,-6.472,-6.718
1621785424621.555,-0.026,0.012,0.016,-0.18135435743880784,-6.4817803001288254,-6.722645642561192
1621785424625.898,-0.035,0.007,0.012,-0.17547031788586748,-6.4941677518192265,-6.728529682114132
1621785424630.238,-0.033,0.003,0.014,-0.16959024755405452,-6.506546847254622,-6.734409752445946
1621785424632.15,-0.033,0.006968412162162162,0.014,-0.167,-6.512,-6.737
1621785424634.574,-0.033,0.012,0.014,-0.167,-6.512,-6.733708810188416
1621785424638.908,-0.037,0.012,0.014,-0.167,-6.512,-6.727824511514306
1621785424643.238,-0.04,0.019,0.017,-0.167,-6.512,-6.721945516399162
1621785424646.144,-0.03865707677554014,0.017657076775540136,0.017,-0.167,-6.512,-6.718
1621785424647.566,-0.038,0.017,0.017,-0.16893468074690537,-6.513934680746905,-6.719934680746905
1621785424651.89,-0.038,0.009,0.014,-0.1748181166515141,-6.519818116651514,-6.7258181166515145
1621785424656.212,-0.035,0.019,0.016,-0.18069889502762432,-6.525698895027624,-6.731698895027624
1621785424660.108,-0.03951020292804251,0.017195918828782998,0.014195918828782997,-0.186,-6.531,-6.737
1621785424660.531,-0.04,0.017,0.014,-0.1866072817745383,-6.531303640887269,-6.737
1621785424664.846,-0.035,0.014,0.014,-0.19280064477695621,-6.534400322388478,-6.737
1621785424669.16,-0.038,0.01,0.016,-0.19899260609033886,-6.537496303045169,-6.737
1621785424673.47,-0.031,0.01,0.012,-0.20517896064758032,-6.54058948032379,-6.737
1621785424674.042,-0.031,0.009601462833815275,0.012,-0.206,-6.541,-6.737
1621785424677.776,-0.031,0.007,0.012,-0.2007253884223414,-6.533351813212395,-6.737
1621785424682.081,-0.037,0.003,0.019,-0.19464375506544118,-6.52453344484489,-6.737
1621785424686.382,-0.031,0.003,0.014,-0.18856798468727906,-6.515723577796554,-6.737
1621785424688.2,-0.030636265937179424,0.008819745005129206,0.012545063748717698,-0.186,-6.512,-6.737
1621785424691.38,-0.03,0.019,0.01,-0.17831853924088917,-6.508060789354301,-6.725379328595191
1621785424696.378,-0.031,0.005,0.016,-0.16624522909420839,-6.5018693482534395,-6.707114577347649
1621785424701.375,-0.033,0.009,0.016,-0.15417427793739602,-6.495679116890972,-6.688853394828368
1621785424704.345,-0.034188917122752155,0.009594458561376074,0.016594458561376077,-0.147,-6.492,-6.678
1621785424706.371,-0.035,0.01,0.017,-0.1518954986840911,-6.494510512145688,-6.675615013461597
1621785424711.368,-0.037,0.007,0.019,-0.1639687811961158,-6.500701939074931,-6.669733157878815
1621785424716.364,-0.037,0.005,0.019,-0.17604029403757146,-6.506892458480806,-6.6638521644432345
1621785424720.486,-0.0427754104769351,0.00912529319781079,0.01487470680218921,-0.186,-6.512,-6.659
1621785424721.36,-0.044,0.01,0.014,-0.18919502639580088,-6.512,-6.663223933201228
1621785424726.357,-0.054,0.009,0.017,-0.20746111724576077,-6.512,-6.687372324494396
1621785424731.353,-0.058,0.003,0.014,-0.22572453069929965,-6.512,-6.711517176178735
1621785424736.348,-0.063,0.0,0.012,-0.24398348182547006,-6.512,-6.7356561285150285
1621785424736.626,-0.06288870431893688,0.00011129568106312293,0.012,-0.245,-6.512,-6.737
1621785424741.345,-0.061,0.002,0.012,-0.245,-6.506152030859995,-6.760099478103018
1621785424746.34,-0.068,0.0,0.014,-0.245,-6.499961878829136,-6.7845505786249145
1621785424751.335,-0.068,-0.002,0.012,-0.245,-6.493772029347251,-6.80900048407836
1621785424752.765,-0.06714137021110243,-0.0028586297888975763,0.011141370211102423,-0.245,-6.492,-6.816
1621785424756.331,-0.065,-0.005,0.009,-0.245,-6.496420402790177,-6.816
1621785424761.326,-0.056,-0.005,0.007,-0.245,-6.502611750820862,-6.816
1621785424766.321,-0.052,-0.005,0.002,-0.245,-6.50880340147377,-6.816
1621785424768.9,-0.049418495527640646,-0.007065203577887482,0.003548902683415612,-0.245,-6.512,-6.816
1621785424771.316,-0.047,-0.009,0.005,-0.24215498797076668,-6.503165488961854,-6.810010500991088
1621785424776.312,-0.045,-0.01,0.0,-0.23627176988606274,-6.4848965485935635,-6.7976247787075
1621785424781.306,-0.038,-0.009,0.0,-0.23039113922135301,-6.4666356428452545,-6.785244503623901
1621785424785.035,-0.042480054751662104,-0.009746675791943684,-0.001493351583887368,-0.226,-6.453,-6.776
1621785424786.3,-0.044,-0.01,-0.002,-0.21823652789758025,-6.4483732843025985,-6.766824987515322
1621785424791.296,-0.045,-0.003,-0.005,-0.18757965224497208,-6.430103025075287,-6.73059413447133
1621785424796.29,-0.047,-0.012,-0.003,-0.15693326372179597,-6.411839015753394,-6.694375675307577
1621785424801.168,-0.05872363209623001,-0.007115153293237494,-0.008861816048115007,-0.127,-6.394,-6.659
1621785424801.283,-0.059,-0.007,-0.009,-0.12672198931484874,-6.394420580267281,-6.658436850150591
1621785424806.278,-0.07,-0.007,-0.003,-0.11464534681337309,-6.412690372769513,-6.633973907647602
1621785424811.272,-0.08,-0.016,0.0,-0.10257165559305616,-6.430955700513069,-6.609516943380806
1621785424816.266,-0.093,-0.012,0.002,-0.09049737411650749,-6.449221921208361,-6.5850587834667715
1621785424817.299,-0.09424106575409436,-0.011379467122952824,0.002,-0.088,-6.453,-6.58
1621785424821.26,-0.099,-0.009,0.002,-0.1120653871768481,-6.479521038929588,-6.628130774353696
1621785424826.253,-0.106,-0.01,0.003,-0.14240076890476477,-6.512951867772598,-6.688801537809529
1621785424831.246,-0.106,-0.007,0.0,-0.172737633952897,-6.546384331295029,-6.749475267905794
1621785424833.429,-0.10381447078953801,-0.010059740894646785,0.0,-0.186,-6.561,-6.776
1621785424836.24,-0.101,-0.014,0.0,-0.19976668230593433,-6.571107184477775,-6.818868403129871
1621785424841.233,-0.094,-0.012,0.0,-0.22421886398377552,-6.589059419127329,-6.895010639746946
1621785424846.226,-0.077,-0.01,-0.005,-0.24867224130885535,-6.607012531593843,-6.971156599518714
1621785424849.56,-0.06765343436812515,-0.017343730139330236,-0.008338059154241018,-0.265,-6.619,-7.022
1621785424851.22,-0.063,-0.021,-0.01,-0.26294169290385083,-6.607988057035602,-7.017883385807702
1621785424856.212,-0.044,-0.019,-0.012,-0.2567516347783967,-6.574871246064422,-7.005503269556794
1621785424861.205,-0.031,-0.024,-0.021,-0.25056006296924194,-6.541746336885444,-6.993120125938484
1621785424865.689,-0.018427314067771747,-0.029388293970954965,-0.02279609799031832,-0.245,-6.512,-6.982
1621785424866.198,-0.017,-0.03,-0.023,-0.24127594036176492,-6.507644743812911,-6.974267842276546
1621785424871.19,-0.003,-0.026,-0.024,-0.20475515023083327,-6.464933989253008,-6.898440778021645
1621785424876.182,-0.002,-0.033,-0.028,-0.16823436009990161,-6.422223234693105,-6.822613713766745
1621785424881.174,-0.009,-0.03,-0.024,-0.13171178384923937,-6.379510391281314,-6.7467829410429125
1621785424881.818,-0.010031929978974133,-0.03103192997897413,-0.024257982494743535,-0.127,-6.374,-6.737
1621785424886.167,-0.017,-0.038,-0.026,-0.11135942230834445,-6.352966119656049,-6.684145634007509
1621785424891.158,-0.037,-0.033,-0.023,-0.0934095918614509,-6.3288266925033305,-6.623487586290421
1621785424896.151,-0.047,-0.031,-0.021,-0.07545273707157564,-6.304677818820395,-6.5628058011384285
1621785424897.945,-0.055267804734885545,-0.03171893954216396,-0.02171893954216396,-0.069,-6.296,-6.541
1621785424901.142,-0.07,-0.033,-0.023,-0.0844627891486012,-6.311462789148601,-6.560427606879012
1621785424906.133,-0.091,-0.028,-0.017,-0.10860221630132008,-6.33560221630132,-6.590756630737556
1621785424911.125,-0.106,-0.024,-0.016,-0.13274636671914739,-6.359746366719147,-6.621091588954826
1621785424914.072,-0.10954282639534314,-0.024,-0.01481905786821895,-0.147,-6.374,-6.639
1621785424916.116,-0.112,-0.024,-0.014,-0.15701435406698563,-6.386422869602083,-6.680071528072195
1621785424921.107,-0.117,-0.024,-0.017,-0.1814677033492823,-6.416757404154806,-6.780361213736297
1621785424926.099,-0.113,-0.026,-0.019,-0.20592703349282296,-6.447099358003755,-6.880675428502211
1621785424930.196,-0.10643305777038595,-0.023537396663894733,-0.022283471114807024,-0.226,-6.472,-6.963
1621785424931.09,-0.105,-0.023,-0.023,-0.2237816480138117,-6.474218351986189,-6.968434962366161
1621785424936.08,-0.093,-0.031,-0.023,-0.2114001908194636,-6.486599809180537,-6.9987695324923145
1621785424941.07,-0.073,-0.026,-0.026,-0.19901873362511546,-6.4989812663748845,-7.029104102618467
1621785424946.062,-0.059,-0.035,-0.03,-0.18663243022216838,-6.511367569777831,-7.059450545955688
1621785424946.317,-0.058284896521356225,-0.035,-0.03,-0.186,-6.512,-7.061
1621785424951.052,-0.045,-0.035,-0.03,-0.1745448721831839,-6.483215319844923,-7.006074130724497
1621785424956.042,-0.045,-0.037,-0.033,-0.16247313423794524,-6.452881209110734,-6.9481916949357885
1621785424961.032,-0.042,-0.037,-0.035,-0.15040139629270655,-6.422547098376544,-6.89030925914708
1621785424962.438,-0.04256353050540633,-0.035872938989187336,-0.03387293898918734,-0.147,-6.414,-6.874
1621785424966.022,-0.044,-0.033,-0.031,-0.12965695288005694,-6.391987670963149,-6.847985429320085
1621785424971.012,-0.058,-0.03,-0.035,-0.10551018584432698,-6.361339851263954,-6.81176527876649
1621785424976.002,-0.073,-0.019,-0.031,-0.08136341880859702,-6.330692031564758,-6.775545128212896
1621785424978.557,-0.08016956202593589,-0.02104844629312454,-0.028439442133594322,-0.069,-6.315,-6.757
1621785424980.991,-0.087,-0.023,-0.026,-0.08379945471069374,-6.312130717964254,-6.76877915783096
1621785424985.981,-0.099,-0.007,-0.024,-0.11413907906694942,-6.306248545895183,-6.792927022114511
1621785424990.971,-0.115,-0.005,-0.024,-0.1444787034232051,-6.3003663738261135,-6.8170748863980615
1621785424994.675,-0.12019716173232199,-0.010197161732321996,-0.024,-0.167,-6.296,-6.835
1621785424995.96,-0.122,-0.012,-0.024,-0.17481298189805347,-6.299109247898206,-6.849908445050367
1621785425000.948,-0.126,-0.016,-0.017,-0.20514302809967433,-6.311179368325381,-6.907783125047338
1621785425005.938,-0.126,-0.017,-0.021,-0.2354849503900629,-6.323254214951148,-6.96568046656063
1621785425010.792,-0.11529767555664303,-0.016027061414240276,-0.017108245656961098,-0.265,-6.335,-7.022
1621785425010.927,-0.115,-0.016,-0.017,-0.2653266786834093,-6.335494206213363,-7.023306714733637
1621785425015.915,-0.098,-0.017,-0.023,-0.27739606779866405,-6.353753025644132,-7.071584271194657
1621785425020.904,-0.086,-0.023,-0.017,-0.2894678198700374,-6.37201541980339,-7.11987127948015
1621785425025.893,-0.068,-0.031,-0.024,-0.3015395719414108,-6.390277813962647,-7.168158287765643
1621785425026.91,-0.06412671920121385,-0.031,-0.02440771376829328,-0.304,-6.394,-7.178
1621785425030.881,-0.049,-0.031,-0.026,-0.29438929204478315,-6.37946072386262,-7.149167876134349
1621785425035.869,-0.042,-0.031,-0.028,-0.28231829957428756,-6.361199478843153,-7.112954898722863
1621785425040.857,-0.028,-0.033,-0.026,-0.2702467162573666,-6.342937339979093,-7.0767401487721
1621785425043.025,-0.025826831775243503,-0.0347385345798052,-0.026,-0.265,-6.335,-7.061
1621785425045.845,-0.023,-0.037,-0.026,-0.27182435011816036,-6.324675983154578,-7.035277449554626
1621785425050.832,-0.016,-0.04,-0.024,-0.28389265588074897,-6.306418802641944,-6.989789220141792
1621785425055.821,-0.021,-0.037,-0.026,-0.29596568805671697,-6.288154471914197,-6.944283175786221
1621785425059.141,-0.025660155676310765,-0.035668526949625495,-0.024668526949625496,-0.304,-6.276,-6.914
1621785425060.808,-0.028,-0.035,-0.024,-0.304,-6.27196441669445,-6.905825356893886
1621785425065.796,-0.024,-0.037,-0.021,-0.304,-6.259889582638741,-6.881366077652835
1621785425070.783,-0.035,-0.033,-0.024,-0.304,-6.247816521686419,-6.856910390082745
1621785425075.251,-0.035,-0.039271454447544915,-0.02310407793606501,-0.304,-6.237,-6.835
1621785425075.77,-0.035,-0.04,-0.023,-0.30274347977631955,-6.236355630654523,-6.833743479776319
1621785425080.758,-0.035,-0.042,-0.019,-0.29066823768318,-6.230163198811887,-6.82166823768318
1621785425085.744,-0.037,-0.037,-0.017,-0.2785983148195857,-6.223973494779274,-6.809598314819586
1621785425090.731,-0.035,-0.042,-0.019,-0.26652543682846624,-6.217782275296649,-6.797525436828466
1621785425091.361,-0.035,-0.04225270475351251,-0.018620942869731236,-0.265,-6.217,-6.796
1621785425095.718,-0.035,-0.044,-0.016,-0.2595899899960591,-6.211860490496256,-6.801410010003941
1621785425100.704,-0.033,-0.035,-0.014,-0.25339876314911935,-6.205978824991663,-6.80760123685088
1621785425105.69,-0.033,-0.037,-0.016,-0.2472078394519053,-6.20009744747931,-6.813792160548094
1621785425107.468,-0.03442615166201596,-0.03557384833798404,-0.01457384833798404,-0.245,-6.198,-6.816
1621785425110.677,-0.037,-0.033,-0.012,-0.24121463000575985,-6.201785369994241,-6.816
1621785425115.663,-0.038,-0.031,-0.009,-0.23533296450116714,-6.207667035498833,-6.816
1621785425120.649,-0.037,-0.028,-0.009,-0.2294515869888138,-6.213548413011186,-6.816
1621785425123.575,-0.04110786857954267,-0.026826323262987808,-0.007826323262987808,-0.226,-6.217,-6.816
1621785425125.635,-0.044,-0.026,-0.007,-0.23098866082527364,-6.227105236030682,-6.825977321650547
1621785425130.621,-0.051,-0.024,-0.007,-0.2430630173119486,-6.251563547888306,-6.850126034623897
1621785425135.606,-0.049,-0.023,-0.01,-0.25513441773034595,-6.276015871812752,-6.874268835460692
1621785425139.68,-0.04573172403662537,-0.023817068990843657,-0.00754879302746903,-0.265,-6.296,-6.894
1621785425140.592,-0.045,-0.024,-0.007,-0.2683412763377293,-6.29934127633773,-6.897907594361073
1621785425145.578,-0.047,-0.021,-0.01,-0.28660560860997425,-6.317605608609974,-6.919267576170987
1621785425150.563,-0.037,-0.019,-0.012,-0.30486725784447477,-6.335867257844475,-6.940624420190996
1621785425155.547,-0.033,-0.016,-0.021,-0.32312532969531604,-6.354125329695316,-6.961977080491132
1621785425155.786,-0.03252110469101949,-0.01604788953089805,-0.020808441876407797,-0.324,-6.355,-6.963
1621785425160.533,-0.023,-0.017,-0.017,-0.3122075385875004,-6.355,-6.954155653940625
1621785425165.518,-0.017,-0.021,-0.023,-0.29982375595111743,-6.355,-6.944867816963338
1621785425170.502,-0.016,-0.024,-0.019,-0.28744300573126724,-6.355,-6.93558225429845
1621785425171.888,-0.01544405816971062,-0.02511188366057876,-0.019,-0.284,-6.355,-6.933
1621785425175.488,-0.014,-0.028,-0.019,-0.2710323558844043,-6.333089153046062,-6.90684113169785
1621785425180.472,-0.016,-0.031,-0.017,-0.2530802680656215,-6.3027563150074295,-6.870627437304788
1621785425185.456,-0.024,-0.024,-0.019,-0.23512730084604422,-6.272421991084695,-6.8344119689480545
1621785425187.99,-0.02857493388186894,-0.024,-0.015441718091879714,-0.226,-6.257,-6.816
1621785425190.441,-0.033,-0.024,-0.012,-0.2170183938373821,-6.2480183938373814,-6.798036787674764
1621785425195.424,-0.045,-0.031,-0.014,-0.19875725593667548,-6.229757255936676,-6.761514511873351
1621785425200.408,-0.061,-0.024,-0.009,-0.1804934340217754,-6.211493434021776,-6.724986868043551
1621785425204.09,-0.07134076105587933,-0.024,-0.006045496841177335,-0.167,-6.198,-6.698
1621785425205.393,-0.075,-0.024,-0.005,-0.16222477669431765,-6.199537783776407,-6.707550446611365
1621785425210.376,-0.089,-0.024,-0.005,-0.14396314887550993,-6.205418646972293,-6.74407370224898
1621785425215.359,-0.099,-0.023,0.0,-0.1257015210567022,-6.211299510168181,-6.780596957886596
1621785425220.189,-0.10578231059307508,-0.02106219697340712,-0.0019378030265928793,-0.108,-6.217,-6.816
1621785425220.344,-0.106,-0.021,-0.002,-0.10762441990961207,-6.217943765355334,-6.817598622948831
1621785425225.326,-0.108,-0.01,0.0,-0.09555499105220056,-6.248272073766265,-6.868971063726531
1621785425230.309,-0.106,-0.012,0.0,-0.08348260487124268,-6.278607813400467,-6.9203560920865055
1621785425235.293,-0.103,-0.012,0.0,-0.071408444296157,-6.308948011768631,-6.971748672995845
1621785425236.287,-0.10120440960313572,-0.011401469867711907,0.00039902008819206274,-0.069,-6.315,-6.982
1621785425240.276,-0.094,-0.009,0.002,-0.07866408323601232,-6.3296200233570445,-7.006284106593057
1621785425245.258,-0.084,-0.009,0.0,-0.09073501888280527,-6.347881182412449,-7.036616201295255
1621785425250.242,-0.075,-0.01,0.002,-0.1028100950965374,-6.366148605402453,-7.066958700498992
1621785425252.384,-0.075,-0.008710148478463273,0.0002801979712843633,-0.108,-6.374,-7.08
1621785425255.224,-0.075,-0.007,-0.002,-0.11488186575654152,-6.384411027682972,-7.08
1621785425260.206,-0.066,-0.012,-0.002,-0.12695367463026166,-6.402673507773986,-7.08
1621785425265.188,-0.065,-0.005,-0.003,-0.13902548350398178,-6.420935987864998,-7.08
1621785425268.479,-0.06037677609015189,-0.005,-0.004320921117099461,-0.147,-6.433,-7.08
1621785425270.171,-0.058,-0.005,-0.005,-0.15109940997133278,-6.428900590028667,-7.078002851552427
1621785425275.153,-0.058,-0.01,-0.005,-0.16317107797782462,-6.416828922022176,-7.072121782523624
1621785425280.134,-0.052,-0.01,-0.007,-0.1752397882570644,-6.404760211742936,-7.066242154438866
1621785425284.575,-0.05378245957863792,-0.013564919157275845,-0.008782459578637922,-0.186,-6.394,-7.061
1621785425285.117,-0.054,-0.014,-0.009,-0.1840129556866969,-6.390025911373394,-7.05736269854514
1621785425290.098,-0.049,-0.007,-0.01,-0.16575183943444027,-6.353503678868881,-7.023935570490162
1621785425295.08,-0.051,-0.012,-0.007,-0.1474862478571537,-6.316972495714308,-6.99050025031479
1621785425300.062,-0.056,-0.016,-0.012,-0.1292215513448731,-6.280443102689746,-6.957066568563497
1621785425300.668,-0.056851750171585454,-0.016,-0.011756642808118443,-0.127,-6.276,-6.953
1621785425305.042,-0.063,-0.016,-0.01,-0.11639994235174538,-6.25996401535264,-6.915763900056131
1621785425310.024,-0.075,-0.016,-0.005,-0.10432666838600058,-6.241699318840359,-6.873352655612361
1621785425315.005,-0.086,-0.012,0.0,-0.092255761032814,-6.2234382025881025,-6.830949724653731
1621785425316.761,-0.09305092388374259,-0.007769445669754448,0.0007050923883742587,-0.088,-6.217,-6.816
1621785425319.986,-0.106,0.0,0.002,-0.11165335882611796,-6.228826679413059,-6.8356443149572845
1621785425324.966,-0.115,-0.009,0.007,-0.1481772962474014,-6.2470886481237,-6.865977754510554
1621785425329.947,-0.129,-0.002,0.005,-0.18470839592722416,-6.265354197963612,-6.896317142380237
1621785425332.85,-0.13016589861751152,-0.0008341013824884793,0.007914746543778802,-0.206,-6.276,-6.914
1621785425334.927,-0.131,0.0,0.01,-0.206,-6.283615819980578,-6.953240835154164
1621785425339.907,-0.126,0.0,0.007,-0.206,-6.301876957392571,-7.047332119446468
1621785425344.888,-0.122,0.0,0.009,-0.206,-6.320141675770818,-7.1414418548191305
1621785425348.94,-0.11386341798215512,0.0016273164035689775,0.007372683596431022,-0.206,-6.335,-7.218
1621785425349.868,-0.112,0.002,0.007,-0.206,-6.332750443874532,-7.226479096165227
1621785425354.849,-0.094,-0.002,0.003,-0.206,-6.320675281120536,-7.271993171161054
1621785425359.829,-0.077,-0.014,0.005,-0.206,-6.308603077530085,-7.3174960923866035
1621785425364.808,-0.056,-0.01,0.0,-0.206,-6.296533241270468,-7.362990090595931
1621785425365.028,-0.05529312542904776,-0.01,0.0,-0.206,-6.296,-7.365
1621785425369.787,-0.04,-0.01,0.0,-0.19446322993808424,-6.278546937598641,-7.280692834162924
1621785425374.768,-0.026,-0.012,0.003,-0.182388475780017,-6.260280001821052,-7.19245424608474
1621785425379.747,-0.023,-0.014,0.0,-0.17031845635546922,-6.242020228845454,-7.104250257982275
1621785425381.116,-0.023,-0.016474889651790094,0.0008249632172633644,-0.167,-6.237,-7.08
1621785425384.725,-0.023,-0.023,0.003,-0.167,-6.215012172170957,-7.033780688440991
1621785425389.705,-0.024,-0.009,0.009,-0.167,-6.184672747693055,-6.970005979844585
1621785425394.684,-0.038,-0.005,0.009,-0.167,-6.154339272705197,-6.906243777319086
1621785425397.202,-0.04356365865620402,-0.00752893575282001,0.010517361451692006,-0.167,-6.139,-6.874
1621785425399.662,-0.049,-0.01,0.012,-0.1699060180617743,-6.139,-6.883023950823404
1621785425404.642,-0.054,-0.002,0.009,-0.1757884192152994,-6.139,-6.901290354405403
1621785425409.62,-0.068,-0.003,0.017,-0.1816685133186613,-6.139,-6.919549593989527
1621785425413.287,-0.07463004561283045,-0.000789984795723184,0.018473343469517876,-0.186,-6.139,-6.933
1621785425414.598,-0.077,0.0,0.019,-0.18762973530840213,-6.140629735308402,-6.951416008984944
1621785425419.577,-0.073,0.0,0.021,-0.19382024040796503,-6.1468202404079655,-7.021368716610005
1621785425424.555,-0.075,0.0,0.023,-0.20000953132588634,-6.153009531325886,-7.091307703982515
1621785425429.373,-0.06822486512996567,-0.006775134870034331,0.023967876410004904,-0.206,-6.159,-7.159
1621785425429.533,-0.068,-0.007,0.024,-0.20677545382794,-6.159974288142796,-7.159586561228826
1621785425434.511,-0.063,-0.005,0.03,-0.2309151539068666,-6.190303654908627,-7.177846077955194
1621785425439.489,-0.052,-0.005,0.026,-0.2550548539857932,-6.220633021674458,-7.196105594681561
1621785425444.468,-0.04,-0.005,0.031,-0.2791992896606156,-6.250968338291543,-7.2143686934612345
1621785425445.458,-0.03820980084371628,-0.0053978220347297165,0.030403266947905426,-0.284,-6.257,-7.218
1621785425449.445,-0.031,-0.007,0.028,-0.3035868858929981,-6.261710770024898,-7.203371819396368
1621785425454.422,-0.023,0.0,0.026,-0.32803721078520676,-6.267591227910366,-7.185111450173073
1621785425459.399,-0.01,0.0,0.028,-0.3524863363089816,-6.273471397340135,-7.166851976680634
1621785425461.539,-0.007850416871015203,0.0,0.025850416871015205,-0.363,-6.276,-7.159
1621785425464.377,-0.005,0.0,0.023,-0.3561165672117706,-6.243171320548444,-7.148586601679345
1621785425469.354,0.002,-0.005,0.024,-0.34404450416799526,-6.185596866031977,-7.130323737074659
1621785425474.33,0.003,-0.002,0.026,-0.3319748098209812,-6.128033708376987,-7.112064455883022
1621785425477.618,0.0023395291809710644,-0.0026604708190289357,0.02467905836194213,-0.324,-6.09,-7.1
1621785425479.308,0.002,-0.003,0.024,-0.31979481261009535,-6.0796972908947335,-7.076240691247039
1621785425484.284,-0.005,-0.002,0.03,-0.3074149304501002,-6.049366579602745,-7.006294357043066
1621785425489.26,-0.017,-0.002,0.024,-0.2950344408673996,-6.019034380125129,-6.9363445909008075
1621785425493.695,-0.023237712155400766,-0.00021779652702835274,0.030237712155400765,-0.284,-5.992,-6.874
1621785425494.237,-0.024,0.0,0.031,-0.2846742904004738,-5.993314866280924,-6.87335942411955
1621785425499.213,-0.044,0.0,0.038,-0.290864701505004,-6.005386167934757,-6.867478533570246
1621785425504.189,-0.052,0.014,0.037,-0.29705541634394883,-6.0174580618707,-6.861597354473249
1621785425509.166,-0.07,0.01,0.037,-0.30324734612055215,-6.029532324935077,-6.855715021185476
1621785425509.771,-0.0708512120914712,0.01109441554617725,0.03760800863676514,-0.304,-6.031,-6.855
1621785425514.141,-0.077,0.019,0.042,-0.33064540138224346,-6.060364319890636,-6.91100972127288
1621785425519.117,-0.084,0.014,0.037,-0.3609839447102605,-6.093798632946001,-6.974782577656262
1621785425524.093,-0.082,0.021,0.038,-0.3913239766081872,-6.127234586466166,-7.038558563074353
1621785425525.844,-0.0809441554617725,0.018536362744135833,0.03553636274413583,-0.402,-6.139,-7.061
1621785425529.068,-0.079,0.014,0.031,-0.41182902711323766,-6.146823103212577,-7.1199741626794255
1621785425534.043,-0.065,0.017,0.031,-0.42699532163742693,-6.158894235588972,-7.210971929824561
1621785425539.018,-0.052,0.007,0.024,-0.442162360446571,-6.170965960355434,-7.301974162679426
1621785425541.917,-0.03801756537952014,0.004669594229920024,0.024,-0.451,-6.178,-7.355
1621785425543.994,-0.028,0.003,0.024,-0.44841566036302877,-6.1640445659603555,-7.3449210754158125
1621785425548.969,-0.007,-0.01,0.021,-0.44222503227766385,-6.130615174299385,-7.320777625882889
1621785425553.944,0.002,-0.016,0.017,-0.43603440419229894,-6.097185782638414,-7.296634176349966
1621785425557.99,0.014199047946213869,-0.016813269863080925,0.014560190410757227,-0.431,-6.07,-7.277
1621785425558.919,0.017,-0.017,0.014,-0.4270691551585312,-6.05982604864561,-7.258270680461237
1621785425563.893,0.012,-0.021,0.014,-0.4060213147380095,-6.00534928520426,-7.157983911398752
1621785425568.868,0.014,-0.019,0.007,-0.3849703750968506,-5.950864500250672,-7.057682375461465
1621785425573.842,0.003,-0.024,0.016,-0.36392253467632896,-5.896387736809322,-6.957395606398979
1621785425574.06,0.0026493398124969323,-0.024,0.015912334953124233,-0.363,-5.894,-6.953
1621785425578.816,-0.005,-0.024,0.014,-0.34553790756328057,-5.864995168494941,-6.918075815126561
1621785425583.791,-0.024,-0.019,0.016,-0.3272708377647452,-5.834653255948221,-6.8815416755294905
1621785425588.765,-0.042,-0.023,0.017,-0.3090082500227901,-5.804318788173449,-6.84501650004558
1621785425590.129,-0.04638841433480609,-0.019434413352970054,0.01754855179185076,-0.304,-5.796,-6.835
1621785425593.738,-0.058,-0.01,0.019,-0.304,-5.809253057999423,-6.863752397015697
1621785425598.713,-0.073,-0.009,0.023,-0.304,-5.827521174271778,-6.903384920454028
1621785425603.686,-0.084,-0.005,0.017,-0.304,-5.845783014997493,-6.943003829147103
1621785425606.196,-0.08551421277431391,-0.007523687957189848,0.017,-0.304,-5.855,-6.963
1621785425608.659,-0.087,-0.01,0.017,-0.30997830117003494,-5.876000698981918,-7.002088892265613
1621785425613.633,-0.094,-0.003,0.016,-0.3220522413007142,-5.918414283543535,-7.081033885427747
1621785425618.606,-0.091,-0.003,0.005,-0.334123218355873,-5.960817459352682,-7.159959504634554
1621785425622.263,-0.08585257731958763,-0.004470692194403535,0.003529307805596465,-0.343,-5.992,-7.218
1621785425623.579,-0.084,-0.005,0.003,-0.33980506633032964,-6.000028294862249,-7.226028294862249
1621785425628.552,-0.072,-0.002,0.003,-0.32773353898521435,-6.030361876396128,-7.256361876396128
1621785425633.525,-0.059,0.005,-0.002,-0.3156620116400991,-6.060695457930008,-7.286695457930008
1621785425638.329,-0.04450672689777079,0.002101345379554159,-0.004898654620445841,-0.304,-6.09,-7.316
1621785425638.497,-0.044,0.002,-0.005,-0.30318446247834413,-6.089383119054132,-7.314358469347436
1621785425643.47,-0.033,-0.003,-0.009,-0.2790395732652503,-6.071119677213458,-7.265759141059542
1621785425648.443,-0.024,-0.003,-0.014,-0.2548934986778517,-6.052855338743503,-7.217157426825932
1621785425653.415,-0.019,0.003,-0.014,-0.23075335096197686,-6.034595483419957,-7.168567642320902
1621785425654.394,-0.01840916457934286,0.001030548597809538,-0.01301527429890477,-0.226,-6.031,-7.159
1621785425658.386,-0.016,-0.007,-0.009,-0.19171075585812844,-6.001680211530863,-7.115020317296295
1621785425663.359,-0.021,-0.007,-0.009,-0.14899547153754977,-5.965155548126311,-7.060233322189466
1621785425668.331,-0.028,-0.012,-0.005,-0.10628647843661672,-5.92863626417044,-7.005454396255661
1621785425670.46,-0.033994598575988216,-0.009002700712005892,-0.004143628774858826,-0.088,-5.913,-6.982
1621785425673.303,-0.042,-0.005,-0.003,-0.0742067970600741,-5.899206797060074,-6.962901719006257
1621785425678.275,-0.054,-0.003,0.0,-0.050084978436493954,-5.875084978436494,-6.929502277835145
1621785425683.246,-0.068,-0.005,0.002,-0.02596671323574075,-5.85096671323574,-6.8961077567879485
1621785425686.537,-0.07263252982473366,-0.0016910501251902396,0.006632529824733663,-0.01,-5.835,-6.874
1621785425688.219,-0.075,0.0,0.009,-0.0016654261998836108,-5.830885463567031,-6.880224555116542
1621785425693.153,-0.087,0.005,0.017,0.022785399246531286,-5.818814802903611,-6.89848529817146
1621785425698.086,-0.098,0.005,0.021,0.047230175503078196,-5.806747128549113,-6.916741523476983
1621785425702.479,-0.10868421573478476,0.0032192973775358735,0.025451756556160315,0.069,-5.796,-6.933
1621785425703.02,-0.11,0.003,0.026,0.07365075523147156,-5.798647875241276,-6.934663408805417
1621785425707.953,-0.115,0.0,0.031,0.11605531725849444,-5.822790618585128,-6.9498300039829655
1621785425712.885,-0.12,0.003,0.031,0.15845358313673824,-5.846929777260333,-6.964994347253286
1621785425717.817,-0.12,0.005,0.038,0.20084975029872237,-5.871067741045987,-6.980157939887865
1621785425718.416,-0.12085014352172621,0.005485796298129269,0.038,0.206,-5.874,-6.982
1621785425722.75,-0.127,0.009,0.038,0.20055977444761117,-5.922145996138641,-6.982
1621785425727.681,-0.131,0.017,0.038,0.19437026140786368,-5.976923186540406,-6.982
1621785425732.613,-0.126,0.024,0.035,0.18817921608286597,-6.031713937666636,-6.982
1621785425734.349,-0.12388708958549992,0.02223924132124994,0.03323924132124994,0.186,-6.051,-6.982
1621785425737.543,-0.12,0.019,0.03,0.186,-6.08829407617442,-7.009669798451989
1621785425742.473,-0.117,0.023,0.024,0.186,-6.145860142539658,-7.052380105755231
1621785425747.403,-0.099,0.033,0.017,0.186,-6.2034290596980615,-7.095092528163078
1621785425750.278,-0.09316827613529441,0.03416634477294112,0.012334620908235528,0.186,-6.237,-7.12
1621785425752.333,-0.089,0.035,0.009,0.186,-6.249645888268842,-7.127484301220335
1621785425757.262,-0.072,0.031,0.003,0.186,-6.279978291531244,-7.145436131722573
1621785425762.191,-0.059,0.037,-0.003,0.186,-6.310310694793647,-7.163387962224811
1621785425766.203,-0.047605151064883604,0.03781391778107974,-0.010325260029717682,0.186,-6.335,-7.178
1621785425767.12,-0.045,0.038,-0.012,0.186,-6.330506049778405,-7.172353754849791
1621785425772.048,-0.031,0.038,-0.01,0.186,-6.306361683203239,-7.142018525050223
1621785425776.977,-0.024,0.038,-0.012,0.186,-6.282212532012452,-7.111677283810517
1621785425781.904,-0.017,0.04,-0.012,0.186,-6.258072950052907,-7.081348065451088
1621785425782.123,-0.017266686487290028,0.039866656756354986,-0.012177790991526685,0.186,-6.257,-7.08
1621785425786.831,-0.023,0.037,-0.016,0.22090477359185176,-6.190148484476623,-7.019064547797275
1621785425791.758,-0.026,0.051,-0.021,0.2574331513069088,-6.120187354276598,-6.95529466805743
1621785425796.684,-0.04,0.052,-0.019,0.29395428886979996,-6.050240090808688,-6.891537427905265
1621785425798.039,-0.04577637904544779,0.051174802993507455,-0.018174802993507457,0.304,-6.031,-6.874
1621785425801.61,-0.061,0.049,-0.016,0.332500421915034,-6.031,-6.838991607726415
1621785425806.535,-0.084,0.054,-0.01,0.3718051673084889,-6.031,-6.7907117629911475
1621785425811.461,-0.098,0.058,0.0,0.4111196551036377,-6.031,-6.7424199512112795
1621785425813.952,-0.10862338241856315,0.062047002826119295,0.002529376766324558,0.431,-6.031,-6.718
1621785425816.385,-0.119,0.066,0.005,0.42809419311276165,-6.036964550979068,-6.732987846049967
1621785425821.311,-0.138,0.056,0.019,0.4222111441900436,-6.049040282978331,-6.763331993125038
1621785425826.234,-0.162,0.054,0.024,0.4163318857037628,-6.061108234608066,-6.79365658952796
1621785425829.861,-0.17378600823045268,0.04884362139917695,0.032102880658436216,0.412,-6.07,-6.816
1621785425831.158,-0.178,0.047,0.035,0.41118466332059367,-6.088426608954583,-6.834345075286642
1621785425836.082,-0.19,0.042,0.038,0.4080889318659729,-6.158390139829013,-6.90399903301561
1621785425841.005,-0.201,0.035,0.045,0.40499396785928077,-6.228336326380255,-6.973635723166184
1621785425845.767,-0.19906497693566788,0.03112995387133575,0.05177258072516244,0.402,-6.296,-7.041
1621785425845.927,-0.199,0.031,0.052,0.401798814387075,-6.297186995116258,-7.044852704487514
1621785425850.85,-0.192,0.04,0.052,0.39560506189145195,-6.333730134840434,-7.163463064778696
1621785425855.772,-0.182,0.028,0.056,0.3894128451638665,-6.370264213533188,-7.282044015111958
1621785425860.693,-0.161,0.014,0.058,0.38322154989710355,-6.4067928556070886,-7.400607319470468
1621785425861.664,-0.15685729166666668,0.011830009920634921,0.0572109126984127,0.382,-6.414,-7.424
1621785425865.615,-0.14,0.003,0.054,0.3675850661916024,-6.409029333169518,-7.44338560063888
1621785425870.535,-0.11,-0.005,0.054,0.349634763645299,-6.402839573670793,-7.467525662683908
1621785425875.455,-0.089,-0.016,0.052,0.3316835703535338,-6.39664950701846,-7.491666922628006
1621785425877.561,-0.08086872395316531,-0.02413127604683469,0.0537118475888073,0.324,-6.394,-7.502
1621785425880.376,-0.07,-0.035,0.056,0.31354861804606005,-6.376640077432439,-7.462143034921415
1621785425885.295,-0.044,-0.045,0.058,0.2952854399360875,-6.346304629046383,-7.3924953217901646
1621785425890.215,-0.031,-0.052,0.056,0.2770177295702807,-6.3159616525065685,-7.3228303246324264
1621785425893.452,-0.02573575540996625,-0.061212428032559066,0.056,0.265,-6.296,-7.277
1621785425895.134,-0.023,-0.066,0.056,0.2608714623728605,-6.272075653750423,-7.258262790769137
1621785425900.052,-0.024,-0.072,0.065,0.24880103248010327,-6.202129060012906,-7.203481608948161
1621785425904.97,-0.026,-0.079,0.063,0.236730602587346,-6.13218246627539,-7.148700427127185
1621785425909.342,-0.03666587254318046,-0.08522175898352194,0.07188822711931706,0.226,-6.07,-7.1
1621785425909.889,-0.038,-0.086,0.073,0.21921785906401292,-6.061221086605702,-7.0949392146315216
1621785425914.806,-0.042,-0.091,0.072,0.1582391454699147,-5.982289249212326,-7.04943733189887
1621785425919.723,-0.059,-0.108,0.075,0.09726043187581648,-5.90335741181895,-7.003935449166218
1621785425924.64,-0.08,-0.113,0.068,0.03628171828171828,-5.824425574425574,-6.958433566433567
1621785425925.227,-0.08107494040524434,-0.11240281088597537,0.06907494040524434,0.029,-5.815,-6.953
1621785425929.556,-0.089,-0.108,0.077,-0.05633432252906083,-5.7482047635155915,-6.953
1621785425934.472,-0.11,-0.115,0.068,-0.1532432345162679,-5.672349544867458,-6.953
1621785425939.388,-0.124,-0.115,0.063,-0.25015214650347495,-5.596494326219325,-6.953
1621785425941.105,-0.13063754222133916,-0.12058950923902245,0.05880786807073316,-0.284,-5.57,-6.953
1621785425944.303,-0.143,-0.131,0.051,-0.3986031582508149,-5.493060797096993,-6.978579263792361
1621785425949.218,-0.161,-0.138,0.031,-0.5747380373946737,-5.374812073313242,-7.017892321175964
1621785425954.133,-0.171,-0.155,0.012,-0.7508729165385324,-5.2565633495294914,-7.057205378559567
1621785425956.983,-0.17737932233704293,-0.1590595687599364,-0.00017870627980921816,-0.853,-5.188,-7.08
1621785425959.047,-0.182,-0.162,-0.009,-0.9180224560108281,-5.150937200073828,-7.0927444013781225
1621785425963.96,-0.192,-0.173,-0.031,-1.0727766703580657,-5.062727297895902,-7.123076227390181
1621785425968.875,-0.208,-0.195,-0.056,-1.2276000984373077,-4.974477943890734,-7.153421619293712
1621785425972.856,-0.2177252485089463,-0.21201918489065608,-0.0803131212723658,-1.353,-4.903,-7.178
1621785425973.787,-0.22,-0.216,-0.086,-1.3765852202805808,-4.912797840265813,-7.169962250799902
1621785425978.7,-0.244,-0.236,-0.119,-1.5010229202559684,-4.964492108663549,-7.127554377922717
1621785425983.613,-0.267,-0.262,-0.14,-1.6254668040856508,-5.01618894597588,-7.085144397612602
1621785425988.524,-0.295,-0.272,-0.164,-1.7498550332266798,-5.067862663056855,-7.0427533841988685
1621785425988.727,-0.29586838966202783,-0.2727443339960239,-0.16449622266401592,-1.755,-5.07,-7.041
1621785425993.436,-0.316,-0.29,-0.176,-1.8452265376152153,-5.337711634634619,-7.017849769953991
1621785425998.347,-0.337,-0.309,-0.187,-1.9393216643328666,-5.616901780356072,-6.993706941388278
1621785426003.258,-0.349,-0.337,-0.197,-2.0334214689091668,-5.89610580577654,-6.969562912582517
1621785426004.593,-0.35280647406891746,-0.3408064740689175,-0.20189403808860823,-2.059,-5.972,-6.963
1621785426008.168,-0.363,-0.351,-0.215,-2.0082900678764375,-6.18430558249065,-7.046840421110957
1621785426013.079,-0.368,-0.365,-0.227,-1.938626679595512,-6.475962968093457,-7.162017223068754
1621785426017.989,-0.368,-0.382,-0.227,-1.8689806067322345,-6.767547859814378,-7.277165396869372
1621785426020.455,-0.364482763766602,-0.3865221608715117,-0.22147291449037457,-1.834,-6.914,-7.335
1621785426022.897,-0.361,-0.391,-0.216,-1.7162080421195234,-7.034717509775547,-7.360714061393516
1621785426027.807,-0.34,-0.403,-0.204,-1.479364004433634,-7.277443948397426,-7.41241726962037
1621785426032.715,-0.311,-0.401,-0.188,-1.2426024046306845,-7.5200859016595345,-7.464102481603497
1621785426036.314,-0.2765361388847436,-0.3988001790777496,-0.18066726359249863,-1.069,-7.698,-7.502
1621785426037.623,-0.264,-0.398,-0.178,-0.9669610161662817,-7.736058229407237,-7.459070977675134
1621785426042.532,-0.204,-0.401,-0.162,-0.5843243418013856,-7.878773040800616,-7.298091147036182
1621785426047.439,-0.162,-0.405,-0.138,-0.20183990762124704,-8.021431070053888,-7.137175365665897
1621785426052.171,-0.15717836708293945,-0.4165719190009453,-0.0811047315786855,0.167,-8.159,-6.982
1621785426052.346,-0.157,-0.417,-0.079,0.17187011366786803,-8.159331300249516,-6.970194667775622
1621785426057.253,-0.161,-0.424,-0.003,0.30838952037704465,-8.168618334719527,-6.639266672827527
1621785426062.159,-0.176,-0.419,0.065,0.444881757693374,-8.177903520931523,-6.308404537473431
1621785426067.066,-0.199,-0.398,0.12,0.5814011644025505,-8.187190555401534,-5.977476542525337
1621785426068.022,-0.20270261259019656,-0.39195889524757405,0.12896421995521273,0.608,-8.189,-5.913
1621785426071.972,-0.218,-0.367,0.166,0.4980710422925815,-8.008028518604114,-5.937428657268315
1621785426076.876,-0.239,-0.333,0.201,0.361588999306679,-7.7833437947769815,-5.967758000154071
1621785426081.782,-0.251,-0.312,0.241,0.22505259995377863,-7.558569586318465,-5.998099422232494
1621785426083.868,-0.25993056592504105,-0.2975409885023145,0.258010601761983,0.167,-7.463,-6.011
1621785426086.687,-0.272,-0.278,0.281,0.12856042228558218,-7.3740194960314405,-6.096599244817755
1621785426091.59,-0.305,-0.248,0.319,0.06170478538953533,-7.219261077290591,-6.245476843646451
1621785426096.495,-0.33,-0.215,0.354,-0.005177483239577729,-7.064441011019496,-6.394413747399245
1621785426099.709,-0.3542539587690469,-0.210411413205856,0.37694293397072004,-0.049,-6.963,-6.492
1621785426101.398,-0.367,-0.208,0.389,-0.10648291915890731,-6.898158414009989,-6.552682339520256
1621785426106.301,-0.398,-0.192,0.426,-0.27335621569957447,-6.709922858728495,-6.728843574643892
1621785426111.203,-0.422,-0.178,0.449,-0.4401879663316272,-6.521734167848554,-6.904960951470679
1621785426115.546,-0.4379439326793806,-0.1824288701887168,0.4702585769058407,-0.588,-6.355,-7.061
1621785426116.106,-0.44,-0.183,0.473,-0.5956400641420994,-6.347359935857901,-7.069312106821266
1621785426121.008,-0.433,-0.176,0.49,-0.6625122733440236,-6.280487726655977,-7.14206659368447
1621785426125.91,-0.412,-0.166,0.515,-0.7293811520907858,-6.213618847909214,-7.214817457135808
1621785426130.811,-0.408,-0.15,0.531,-0.7962400394720612,-6.146759960527939,-7.287557450351549
1621785426131.38,-0.40602640757349273,-0.1486068759342302,0.5321609367214749,-0.804,-6.139,-7.296
1621785426135.711,-0.391,-0.138,0.541,-0.8978378261674173,-6.144471593362532,-7.253047992104127
1621785426140.613,-0.379,-0.122,0.555,-1.0040480692122633,-6.150664610449694,-7.204432807969897
1621785426145.512,-0.367,-0.113,0.553,-1.1101895472210228,-6.156853617913762,-7.155849099376966
1621785426147.211,-0.3590254596183548,-0.1095328085297195,0.5536934382940562,-1.147,-6.159,-7.139
1621785426150.412,-0.344,-0.103,0.555,-1.2046329426280074,-6.182659839605182,-7.131113386798273
1621785426155.312,-0.332,-0.101,0.56,-1.292849321406539,-6.218874984577421,-7.119041671807526
1621785426160.211,-0.305,-0.087,0.56,-1.381048118445404,-6.25508291178285,-7.106972362739049
1621785426163.041,-0.2859323098394976,-0.09393370551290998,0.5721339846475925,-1.432,-6.276,-7.1
1621785426165.109,-0.272,-0.099,0.581,-1.4691130139628172,-6.2914201959422975,-7.07817650235285
1621785426170.008,-0.244,-0.106,0.586,-1.5570406233125047,-6.327953498418576,-7.026472591221168
1621785426174.906,-0.211,-0.113,0.586,-1.6449463241533595,-6.36447769806372,-6.97478156290982
1621785426178.865,-0.18189560275201913,-0.12755219862399042,0.5779154452088942,-1.716,-6.394,-6.933
1621785426179.803,-0.175,-0.131,0.576,-1.7299926850723004,-6.388189478232689,-6.908038472815939
1621785426184.701,-0.143,-0.147,0.565,-1.8030591212827358,-6.357848330992763,-6.77769538110156
1621785426189.597,-0.106,-0.168,0.553,-1.8760964212410685,-6.32751928270498,-6.647404265497924
1621785426194.493,-0.086,-0.175,0.534,-1.949133721199401,-6.297190234417198,-6.517113149894288
1621785426194.685,-0.08509756705553893,-0.1751177086449297,0.5330583308405624,-1.952,-6.296,-6.512
1621785426199.39,-0.063,-0.178,0.51,-1.9636000771724031,-6.255251010958482,-6.30468580027782
1621785426204.285,-0.056,-0.183,0.485,-1.975669069300818,-6.212854807840716,-6.088991248649483
1621785426209.18,-0.056,-0.175,0.461,-1.987738061429233,-6.170458604722951,-5.8732966970211455
1621785426210.503,-0.056540440809813505,-0.17013603271167846,0.45613603271167846,-1.991,-6.159,-5.815
1621785426214.076,-0.058,-0.157,0.443,-1.9288714552555613,-6.167810957254666,-5.660017521110237
1621785426218.97,-0.073,-0.134,0.426,-1.8437721175072168,-6.179879590608068,-5.447733354945275
1621785426223.864,-0.094,-0.108,0.417,-1.7586727797588724,-6.191948223961469,-5.235449188780314
1621785426226.318,-0.10703501246882793,-0.09245825436408978,0.4124878802992519,-1.716,-6.198,-5.129
1621785426228.759,-0.12,-0.077,0.408,-1.6841951294840711,-6.216063931312445,-5.107848217181154
1621785426233.652,-0.15,-0.059,0.403,-1.6204390567815063,-6.252274904643514,-5.0654473338789625
1621785426238.545,-0.182,-0.03,0.403,-1.5566861652022175,-6.2884840712201004,-5.023048566178174
1621785426242.128,-0.20103881848118949,-0.01681927951302265,0.40080321325217044,-1.51,-6.315,-4.992
1621785426243.438,-0.208,-0.012,0.4,-1.51,-6.321547338831743,-5.018769499274087
1621785426248.33,-0.222,0.017,0.396,-1.51,-6.3459967565563895,-5.1187335742748585
1621785426253.222,-0.23,0.042,0.386,-1.51,-6.37044495412844,-5.218692660550459
1621785426257.935,-0.22710974149116678,0.05163419502944405,0.3754023854676115,-1.51,-6.394,-5.315
1621785426258.114,-0.227,0.052,0.375,-1.5116647508690615,-6.394668165314793,-5.318782495171882
1621785426263.005,-0.218,0.072,0.365,-1.5571626419466975,-6.4129292236384705,-5.42215865585168
1621785426267.896,-0.206,0.094,0.351,-1.6026628041714948,-6.431191193511008,-5.525539976825029
1621785426272.787,-0.185,0.113,0.333,-1.648162966396292,-6.449453163383546,-5.628921297798378
1621785426273.737,-0.18228024364671228,0.11649682959708423,0.3306687802686105,-1.657,-6.453,-5.649
1621785426277.677,-0.171,0.131,0.321,-1.6717144402546826,-6.433297613896273,-5.6709469617357975
1621785426282.566,-0.148,0.148,0.318,-1.6899730017926686,-6.408849709464054,-5.698180070470421
1621785426287.456,-0.138,0.157,0.309,-1.7082361222723619,-6.384395700686159,-5.725419978982506
1621785426289.535,-0.13332259675405744,0.16678002496878902,0.3038973782771536,-1.716,-6.374,-5.737
1621785426292.345,-0.127,0.18,0.297,-1.7544301238155595,-6.363502882846675,-5.707287820938896
1621785426297.233,-0.124,0.199,0.29,-1.8212771706366995,-6.345243735798309,-5.65560515047996
1621785426302.122,-0.129,0.223,0.278,-1.8881409116906003,-6.326980028751179,-5.603909572905879
1621785426305.329,-0.13621722191698718,0.23677833275061186,0.26881444483292544,-1.932,-6.315,-5.57
1621785426307.01,-0.14,0.244,0.264,-1.9643624275222265,-6.319258214147662,-5.576280865867801
1621785426311.897,-0.148,0.257,0.258,-2.058450838809432,-6.331638268264399,-5.5945414456899885
1621785426316.785,-0.168,0.265,0.241,-2.152558051797449,-6.344020796289138,-5.612805674526478
1621785426321.119,-0.18573603756619042,0.27032081126985713,0.22681116994704767,-2.236,-6.355,-5.629
1621785426321.672,-0.188,0.271,0.225,-2.238733329209452,-6.363585457132253,-5.637585457132253
1621785426326.558,-0.204,0.286,0.208,-2.2628737164419155,-6.439411032413708,-5.713411032413707
1621785426331.444,-0.222,0.295,0.187,-2.2870141036743785,-6.515236607695162,-5.7892366076951625
1621785426336.33,-0.232,0.298,0.178,-2.3111544909068416,-6.591062182976617,-5.865062182976617
1621785426336.906,-0.23282527862461894,0.2995326603028637,0.17658523664351042,-2.314,-6.6,-5.874
1621785426341.215,-0.239,0.311,0.166,-2.3650612787945358,-6.709768096659911,-5.994417240365723
1621785426346.101,-0.244,0.297,0.154,-2.4229586936679093,-6.834232058045452,-6.130956063676727
1621785426350.985,-0.246,0.304,0.138,-2.4808329646188834,-6.958646266186048,-6.267440306935442
1621785426352.687,-0.2484387525613474,0.3019096406617022,0.13486446099255336,-2.501,-7.002,-6.315
1621785426355.87,-0.253,0.298,0.129,-2.560315909196416,-7.102877396592544,-6.431816025254167
1621785426360.753,-0.258,0.286,0.12,-2.651305185460285,-7.257621063707967,-6.611009191773827
1621785426365.636,-0.265,0.271,0.113,-2.742299011187967,-7.412372468006747,-6.790211317951813
1621785426368.464,-0.26905338665333667,0.26289322669332665,0.10894661334666333,-2.795,-7.502,-6.894
1621785426370.52,-0.272,0.257,0.106,-2.797606555854768,-7.58514913176711,-6.983535193611292
1621785426375.403,-0.274,0.227,0.103,-2.8037974742315908,-7.782639427987743,-7.19619323985514
1621785426380.285,-0.269,0.204,0.096,-2.8099868449562013,-7.980080354102826,-7.40879812424552
1621785426384.239,-0.24875196279441916,0.1845618842826424,0.1032892933940091,-2.815,-8.14,-7.581
1621785426385.167,-0.244,0.18,0.105,-2.8172947924084335,-8.193662837858758,-7.60000558840831
1621785426390.049,-0.215,0.157,0.113,-2.829367658441438,-8.475982166630546,-7.699993684014985
1621785426394.93,-0.176,0.124,0.129,-2.8414375058051333,-8.758230904981579,-7.799956778847642
1621785426399.811,-0.119,0.087,0.127,-2.8535079569026904,-9.040493761416762,-7.899924873835103
1621785426400.01,-0.11671708683473389,0.08638850540216086,0.1269592336934774,-2.854,-9.052,-7.904
1621785426404.692,-0.063,0.072,0.126,-2.9151697067294293,-9.133361648756619,-7.974077916447308
1621785426409.572,-0.002,0.045,0.126,-2.9789294849958194,-9.218168344120652,-8.047123099315598
1621785426414.452,0.063,0.03,0.119,-3.0426860735189374,-9.302970796816451,-8.1201646279149
1621785426415.777,0.08337027770828122,0.02701235926945209,0.11465434075556667,-3.06,-9.326,-8.14
1621785426419.331,0.138,0.019,0.103,-3.0953932603410093,-9.217791305963793,-8.122190652439874
1621785426424.21,0.201,0.017,0.084,-3.143981493813204,-9.069241292800397,-8.097741796106732
1621785426429.089,0.255,0.028,0.065,-3.192572158642157,-8.920683846189585,-8.073291716352037
1621785426431.542,0.27058843843843844,0.03252567567567567,0.06148003003003003,-3.217,-8.846,-8.061
1621785426433.967,0.286,0.037,0.058,-3.109736834766442,-8.71919247036951,-8.116863025795956
1621785426438.845,0.271,0.049,0.066,-2.8939794561933536,-8.464122054380665,-8.229230211480361
1621785426443.723,0.218,0.072,0.08,-2.6782220776202648,-8.20905163839182,-8.341597397164769
1621785426447.3,0.15052320168193423,0.08813575611953747,0.0983360864994744,-2.52,-8.022,-8.424
1621785426448.6,0.126,0.094,0.105,-2.4067267023007206,-8.03899511968394,-8.475810364861724
1621785426453.477,0.019,0.113,0.143,-1.9817976140677047,-8.102749957394066,-8.67016977302657
1621785426458.354,-0.091,0.115,0.176,-1.5568685258346888,-8.16650479510419,-8.864529181191417
1621785426463.058,-0.16337079326923076,0.08991145833333333,0.20012359775641025,-1.147,-8.228,-9.052
1621785426463.229,-0.166,0.089,0.201,-1.1542365158090515,-8.233001549907005,-9.0630554866708
1621785426468.105,-0.173,0.058,0.223,-1.3607046497210167,-8.37570291382517,-9.378484314941103
1621785426472.981,-0.113,0.038,0.239,-1.567172783632982,-8.518404277743336,-9.693913143211407
1621785426477.856,-0.014,0.021,0.253,-1.7735995660260384,-8.661077061376318,-10.009278797272163
1621785426478.81,0.006941306089743587,0.012388621794871798,0.2533914262820513,-1.814,-8.689,-10.071
1621785426482.731,0.093,-0.023,0.255,-2.21457884293421,-8.437549017176165,-10.381205865939108
1621785426487.605,0.188,-0.079,0.255,-2.71253376325417,-8.124973212624791,-10.766819185217336
1621785426492.479,0.267,-0.117,0.223,-3.2104886835741304,-7.8123974080734175,-11.152432504495566
1621785426494.559,0.2977273091564817,-0.14473993187737927,0.21062372270086155,-3.423,-7.679,-11.317
1621785426497.353,0.339,-0.182,0.194,-3.334085960640789,-7.37960282555092,-11.346638013119737
1621785426502.226,0.403,-0.234,0.152,-3.179006947567576,-6.857410619853295,-11.398331017477474
1621785426507.098,0.471,-0.267,0.117,-3.0239667819425278,-6.335349223826435,-11.450011072685824
1621785426510.302,0.5229436873747495,-0.28212284569138274,0.09398697394789579,-2.922,-5.992,-11.484
1621785426511.971,0.55,-0.29,0.082,-2.784811395958374,-5.9368701127498875,-11.138802090603143
1621785426516.843,0.63,-0.278,0.056,-2.384323423130011,-5.775932132942509,-10.131082740116938
1621785426521.714,0.724,-0.239,0.042,-1.9839157244994494,-5.615026411699934,-9.123565377874966
1621785426526.044,0.8030987221247807,-0.16790002505637686,0.046443748433976445,-1.628,-5.472,-8.228
1621785426526.586,0.813,-0.159,0.047,-1.5661793077770365,-5.42977595060426,-8.104048651080532
1621785426531.457,0.874,-0.042,0.058,-1.0105727982128174,-5.050292061620565,-6.99004986115205
1621785426536.327,0.892,0.094,0.072,-0.45510552444189334,-4.670903271847221,-5.8763302409283416
1621785426541.198,0.881,0.239,0.091,0.10050098512232575,-4.291419382863526,-4.76233145099986
1621785426541.781,0.873336559193702,0.2566019656019656,0.09435275535275535,0.167,-4.246,-4.629
1621785426546.067,0.817,0.386,0.119,0.7466642150017069,-3.7597685038637003,-4.463381652856655
1621785426550.937,0.703,0.525,0.138,1.4053450330509263,-3.2072566334605717,-4.275187133414021
1621785426555.806,0.548,0.644,0.159,2.0638607516370295,-2.6548832510939393,-4.087039785246563
1621785426557.515,0.4862270356999599,0.6776943441636583,0.1761981548335339,2.295,-2.461,-4.021
1621785426560.675,0.372,0.74,0.208,2.3757719102170065,-2.3802280897829933,-4.409187389401136
1621785426565.543,0.19,0.787,0.264,2.500193350097793,-2.2558066499022074,-5.007153115395362
1621785426570.411,0.005,0.812,0.305,2.6246147899785788,-2.1313852100214215,-5.605118841389587
1621785426573.243,-0.09622367101303912,0.8015285857572718,0.3125626880641926,2.697,-2.059,-5.953
1621785426575.279,-0.169,0.794,0.318,2.540833804303947,-2.2774513865167845,-6.187896748750116
1621785426580.146,-0.302,0.752,0.326,2.1675516566779494,-2.7996130640002486,-6.749367574449586
1621785426585.013,-0.401,0.689,0.325,1.7942695090519518,-3.3217747414837127,-7.310838400149055
1621785426588.967,-0.43106632883447893,0.645119411971301,0.32174958607194826,1.491,-3.746,-7.767
1621785426589.879,-0.438,0.635,0.321,1.4005037664052187,-3.8683439465714065,-7.852913411508892
1621785426594.745,-0.421,0.574,0.304,0.9175664362817427,-4.521238067872952,-8.311394299914577
1621785426599.612,-0.353,0.524,0.29,0.43455641842043957,-5.174230457404676,-8.769944195076492
1621785426604.477,-0.253,0.478,0.283,-0.048259765473324556,-5.826960798322592,-9.22831007222179
1621785426604.686,-0.2481888392633111,0.4764965122697847,0.281711296231244,-0.069,-5.855,-9.248
1621785426609.342,-0.141,0.443,0.253,-0.6268186774779814,-5.956610093666994,-9.532686005871662
1621785426614.207,-0.023,0.422,0.22,-1.2096749926215884,-6.062780946611368,-9.83015011572456
1621785426619.071,0.101,0.393,0.171,-1.792414309458347,-6.168930487596502,-10.12755451481119
1621785426620.403,0.1316778452733571,0.3820436266880868,0.15292198403534316,-1.952,-6.198,-10.209
1621785426623.934,0.213,0.353,0.105,-2.0796332111118017,-6.1339586880865085,-10.147205751662419
1621785426628.799,0.314,0.312,0.037,-2.2554851780498417,-6.0457231060841465,-10.062066154993474
1621785426633.661,0.396,0.283,-0.035,-2.4312224224721892,-5.957545087315891,-9.976982101796034
1621785426636.117,0.4313531803805412,0.27693945479190724,-0.06681786234248707,-2.52,-5.913,-9.934
1621785426638.524,0.466,0.271,-0.098,-2.344263799962703,-5.851408062410642,-9.755199524460744
1621785426643.387,0.517,0.281,-0.147,-1.9892085845713932,-5.726968483868963,-9.393953285261391
1621785426648.249,0.545,0.3,-0.197,-1.6342246689873812,-5.602553894448934,-9.032779589109218
1621785426651.827,0.559720506252825,0.31840063281603137,-0.22791306313093265,-1.373,-5.511,-8.767
1621785426653.11,0.565,0.325,-0.239,-1.2966651917176732,-5.470482585837407,-8.708168714635914
1621785426657.972,0.569,0.351,-0.272,-1.0074468941274417,-5.316969689027305,-8.485267988467646
1621785426662.833,0.552,0.379,-0.297,-0.7182721666332619,-5.16347991859515,-8.262400841800158
1621785426667.662,0.5258858735514156,0.40898288592244875,-0.3134422277639235,-0.431,-5.011,-8.041
1621785426667.826,0.525,0.41,-0.314,-0.426918997836513,-5.004035901780717,-8.040807116813168
1621785426672.82,0.487,0.44,-0.337,-0.3025062105693148,-4.791729503608333,-8.034926910449794
1621785426677.814,0.45,0.469,-0.354,-0.17809950527255397,-4.579433484121821,-8.029046991542733
1621785426682.807,0.424,0.51,-0.377,-0.05371712785754268,-4.367178979378792,-8.02316822246093
1621785426683.799,0.42161642228739,0.5137739980449658,-0.3789863147605083,-0.029,-4.325,-8.022
1621785426687.802,0.412,0.529,-0.387,-0.04860027237648483,-4.295723643792086,-7.951290156616479
1621785426692.795,0.417,0.534,-0.396,-0.07304801392146477,-4.25920676401604,-7.863092608004842
1621785426697.789,0.431,0.529,-0.407,-0.09750173261708406,-4.222680956344102,-7.774873496254823
1621785426699.933,0.43271733072598384,0.5259946712295283,-0.4082879980444879,-0.108,-4.207,-7.737
1621785426702.783,0.435,0.522,-0.41,-0.1011120239662294,-4.224308247469475,-7.591646044210431
1621785426707.776,0.424,0.522,-0.41,-0.08904434660251465,-4.254632154691117,-7.336987109073578
1621785426712.771,0.419,0.511,-0.403,-0.07697135854023876,-4.284969406745041,-7.08221610457991
1621785426716.069,0.4176791493522366,0.5090187240283549,-0.3950748961134197,-0.069,-4.305,-6.914
1621785426717.765,0.417,0.508,-0.391,-0.05449698152603151,-4.288500189127442,-6.8572490581453405
1621785426722.758,0.401,0.499,-0.377,-0.011793881349008217,-4.239917676607205,-6.690149970496119
1621785426727.753,0.38,0.492,-0.353,0.03092383459670464,-4.191318536002299,-6.522993690708547
1621785426732.205,0.36038756355103635,0.4688216660148612,-0.3414108330074306,0.069,-4.148,-6.374
1621785426732.747,0.358,0.466,-0.34,0.06570847390955717,-4.148,-6.357878239557015
1621785426737.741,0.33,0.45,-0.321,0.035380471125769704,-4.148,-6.209332919799688
1621785426742.735,0.288,0.433,-0.309,0.005050985672572131,-4.148,-6.060780337988108
1621785426747.729,0.234,0.421,-0.293,-0.02527701711121534,-4.148,-5.912235018230782
1621785426748.342,0.22589802004399903,0.41731728183818134,-0.2918951845514544,-0.029,-4.148,-5.894
1621785426752.723,0.168,0.391,-0.284,0.0613918311776719,-4.251964178201346,-5.894
1621785426757.718,0.113,0.37,-0.265,0.16445786249149083,-4.370505589592315,-5.894
1621785426762.712,0.054,0.36,-0.241,0.26749870660313135,-4.489018031918917,-5.894
1621785426764.481,0.03310080172076653,0.3529155260070395,-0.23214440750879936,0.304,-4.531,-5.894
1621785426767.706,-0.005,0.34,-0.216,0.3235848776871757,-4.650507723029908,-5.986128863406
1621785426772.701,-0.049,0.319,-0.195,0.3539169755374352,-4.835595422157001,-6.128813527783241
1621785426777.695,-0.065,0.3,-0.168,0.38424462564862866,-5.020655980998774,-6.271477269632835
1621785426780.619,-0.06675644096797849,0.2959016377413835,-0.1557049132241506,0.402,-5.129,-6.355
1621785426782.689,-0.068,0.293,-0.147,0.42842232172571326,-5.224556454784739,-6.393992164100082
1621785426787.685,-0.059,0.286,-0.14,0.4921923879829365,-5.455181208967415,-6.488099446343751
1621785426792.679,-0.054,0.271,-0.12,0.555934408374429,-5.685704535140531,-6.58216534051372
1621785426796.758,-0.045833822091886606,0.2579341153470186,-0.09795131964809384,0.608,-5.874,-6.659
1621785426797.674,-0.044,0.255,-0.093,0.6002241282807654,-5.8979519552227515,-6.666775871719234
1621785426802.668,-0.009,0.236,-0.072,0.5578319491717721,-6.028532244157023,-6.709168050828228
1621785426807.663,0.037,0.225,-0.054,0.5154294077603812,-6.159144452008169,-6.751570592239619
1621785426812.658,0.091,0.209,-0.056,0.4730289388094697,-6.2897502760759405,-6.793971061190531
1621785426812.897,0.09339247311827957,0.20809086021505377,-0.056334946236559144,0.471,-6.296,-6.796
1621785426817.653,0.141,0.19,-0.063,0.3987946627131208,-6.249729641003919,-6.755623954251827
1621785426822.647,0.192,0.175,-0.066,0.3229792438843588,-6.201145882815691,-6.713229209845539
1621785426827.642,0.241,0.14,-0.073,0.24714529280948852,-6.152550248861591,-6.670824102509796
1621785426829.035,0.2529905664988513,0.13219218925656193,-0.07495195268585952,0.226,-6.139,-6.659
1621785426832.637,0.284,0.112,-0.08,0.13827689188780296,-6.088553632485098,-6.492482344397712
1621785426837.632,0.314,0.079,-0.089,0.01662752276922147,-6.018597506732428,-6.261565221338014
1621785426842.627,0.337,0.044,-0.101,-0.10501590063239433,-5.948644800145239,-6.030659384550214
1621785426845.172,0.3456620234604106,0.02973313782991202,-0.10660483870967742,-0.167,-5.913,-5.913
1621785426847.622,0.354,0.016,-0.112,-0.18779714091218516,-5.872923757658271,-5.761196051735875
1621785426852.616,0.358,-0.01,-0.131,-0.23018932002117842,-5.7912337190832766,-5.451764087436654
1621785426857.612,0.351,-0.042,-0.14,-0.27260015127448756,-5.709507737690038,-5.142195976098631
1621785426861.311,0.3324861430177428,-0.0731032797301921,-0.14740554279290288,-0.304,-5.649,-4.913
1621785426862.607,0.326,-0.084,-0.15,-0.304,-5.625312533091294,-4.85004754557144
1621785426867.602,0.29,-0.113,-0.162,-0.304,-5.534007790636109,-4.607393585961727
1621785426872.597,0.244,-0.145,-0.176,-0.304,-5.442707510778307,-4.36475148627184
1621785426877.45,0.19639384164222873,-0.1887199413489736,-0.19348797653958943,-0.304,-5.354,-4.129
1621785426877.592,0.195,-0.19,-0.194,-0.30244187312823306,-5.355038751247845,-4.125285143842453
1621785426882.587,0.136,-0.216,-0.213,-0.24766916235593067,-5.3915538917627135,-3.9946970989502977
1621785426887.583,0.075,-0.251,-0.213,-0.19288306561393956,-5.428077956257374,-3.8640771394863416
1621785426892.578,0.017,-0.278,-0.211,-0.13811035484163717,-5.4645930967722425,-3.7334890945941854
1621785426893.591,0.002598729227761486,-0.2818538611925709,-0.21201417399804495,-0.127,-5.472,-3.707
1621785426897.573,-0.054,-0.297,-0.216,-0.3110373300258648,-5.679967116905904,-3.675422549271701
1621785426902.569,-0.127,-0.321,-0.223,-0.5419471964666556,-5.940901456597039,-3.63580262580733
1621785426907.564,-0.201,-0.34,-0.248,-0.7728006443513379,-6.201772041807209,-3.5961923827386446
1621785426909.732,-0.22356891495601175,-0.34998240469208214,-0.2601524926686217,-0.873,-6.315,-3.579
1621785426912.559,-0.253,-0.363,-0.276,-1.0877493571320527,-6.459333988806535,-3.8194982604749663
1621785426917.556,-0.284,-0.4,-0.314,-1.4673067917107852,-6.714436212373317,-4.244565436393889
1621785426922.551,-0.271,-0.445,-0.363,-1.8467344123430647,-6.969451187414915,-4.669487233398881
1621785426925.872,-0.23909304143862392,-0.4855484265050821,-0.39291277365129007,-2.099,-7.139,-4.952
1621785426927.547,-0.223,-0.506,-0.408,-2.089765674621178,-7.1451216314309045,-5.187112149532711
1621785426932.542,-0.147,-0.572,-0.457,-2.0622295919910476,-7.1633758884553735,-5.888199376947041
1621785426937.538,-0.051,-0.632,-0.501,-2.0346867797840487,-7.181634606660013,-6.589457943925233
1621785426942.016,0.05745829057322973,-0.6615795337926991,-0.5260977862483507,-2.01,-7.198,-7.218
1621785426942.534,0.07,-0.665,-0.529,-1.9370279773156898,-7.169677232514178,-7.251005807183365
1621785426947.53,0.194,-0.656,-0.515,-1.2329735349716444,-6.896411266540643,-7.569455047258979
1621785426952.525,0.295,-0.623,-0.476,-0.5290911153119091,-6.623212068052931,-7.887826480151229
1621785426957.521,0.349,-0.618,-0.449,0.17496332703213602,-6.349946102079396,-8.206275720226843
1621785426958.16,0.35168554534792806,-0.6200461297888976,-0.44784905199374514,0.265,-6.315,-8.247
1621785426962.517,0.37,-0.634,-0.44,0.7440905447506125,-6.243743716161036,-7.8712850488490975
1621785426967.512,0.353,-0.618,-0.421,1.2932984483227972,-6.162058709657905,-7.440582287287136
1621785426972.509,0.293,-0.576,-0.375,1.8427479507576905,-6.080337769577448,-7.009690057771998
1621785426974.303,0.2574503738454772,-0.5426048966427209,-0.3548911205590578,2.04,-6.051,-6.855
1621785426977.505,0.194,-0.483,-0.319,2.0828426242400413,-6.395129412298479,-6.656654517407217
1621785426982.5,0.068,-0.382,-0.281,2.149679078067814,-6.931987039109525,-6.347226490426787
1621785426987.497,-0.059,-0.264,-0.283,2.21654166540637,-7.469054580926167,-6.0376774749705096
1621785426990.446,-0.10327136783462836,-0.21146464350290767,-0.2995279773249279,2.256,-7.786,-5.855
1621785426992.493,-0.134,-0.175,-0.311,1.9102013702981078,-7.963908132552898,-6.04888562699457
1621785426997.489,-0.129,-0.162,-0.342,1.0661623485639093,-8.398153364490222,-6.52212936158628
1621785427002.485,-0.054,-0.202,-0.391,0.2221233268297107,-8.832398596427545,-6.995373096177988
1621785427006.588,0.04619107657723696,-0.26441411327762304,-0.4279557249670136,-0.471,-9.189,-7.384
1621785427007.481,0.068,-0.278,-0.436,-0.5377223448985148,-9.206870080764693,-7.507209504219729
1621785427012.478,0.202,-0.387,-0.492,-0.9110610423787773,-9.30686046159896,-8.196616866813878
1621785427017.474,0.321,-0.517,-0.565,-1.284326779394416,-9.40683130161227,-8.885889500589855
1621785427022.47,0.417,-0.597,-0.654,-1.6575742762938988,-9.50679725642034,-9.575128452161287
