time,gyro_x,gyro_y,gyro_z,acc_x,acc_y,acc_z
1621785165967.548,,,,3.923,-5.57,-5.972
1621785165986.288,,,,3.54,-5.531,-6.335
1621785166001.882,-0.03,1.724,1.616,2.737575376884422,-5.594866449594913,-6.9130732488975495
1621785166005.333,-0.05033729343089698,1.7030816410425058,1.627040245005344,2.56,-5.609,-7.041
1621785166007.821,-0.065,1.688,1.635,2.414983625583449,-5.64306856313864,-7.1254643244607045
1621785166013.79,-0.082,1.682,1.648,2.0670780875488837,-5.724801690425129,-7.328100794752113
1621785166019.787,-0.105,1.648,1.649,1.7175361170682477,-5.806919263277406,-7.531690399899079
1621785166024.686,-0.11150279510653813,1.6236145183504822,1.6538770963299037,1.432,-5.874,-7.698
1621785166025.814,-0.113,1.618,1.655,1.377950148412176,-5.894828127522696,-7.701959065562166
1621785166031.869,-0.12,1.588,1.649,1.0878007178429936,-6.006637302996808,-7.723212049329972
1621785166037.954,-0.106,1.555,1.642,0.7962005986164756,-6.119005501807027,-7.744571293731915
1621785166044.069,-0.098,1.527,1.639,0.5031731889367728,-6.2319237074479314,-7.766035084886798
1621785166044.344,-0.09678296584522265,1.5256369217466492,1.638415823605707,0.49,-6.237,-7.767
1621785166049.716,-0.073,1.499,1.627,0.44660542803096365,-6.3063722749164866,-7.74663111927984
1621785166055.346,-0.024,1.477,1.616,0.40112829525483307,-6.379073813708261,-7.725284710017575
1621785166060.983,0.019,1.452,1.609,0.3555939709413864,-6.451866781148124,-7.703911455747998
1621785166062.542,0.03640882734746863,1.444262743401125,1.609,0.343,-6.472,-7.698
1621785166066.625,0.082,1.424,1.609,0.3671517951460855,-6.441363000601725,-7.6409749281272985
1621785166072.272,0.138,1.395,1.604,0.4005547502841479,-6.398990733435849,-7.562106839606873
1621785166077.926,0.188,1.379,1.607,0.43399958547837136,-6.3565653406431775,-7.483139867620512
1621785166080.8,0.20526769921049226,1.3769685059752361,1.606492126493809,0.451,-6.335,-7.443
1621785166083.585,0.222,1.375,1.606,0.4897636429056891,-6.294716214235264,-7.402716214235264
1621785166089.251,0.253,1.347,1.602,0.5686298324871066,-6.212757232905556,-7.320757232905556
1621785166094.922,0.279,1.328,1.609,0.6475673849598209,-6.130724090139794,-7.238724090139794
1621785166099.12,0.2908295566926087,1.3139524014275272,1.610478694586576,0.706,-6.07,-7.178
1621785166100.6,0.295,1.309,1.611,0.7146954258088508,-6.04077370769803,-7.1701097062104875
1621785166106.283,0.3,1.302,1.614,0.7480843117462678,-5.928549952186155,-7.139812383785794
1621785166111.972,0.311,1.29,1.614,0.7815090580672581,-5.816205665940605,-7.109482521383414
1621785166117.502,0.3187681656449608,1.269608565181978,1.6091448964718995,0.814,-5.707,-7.08
1621785166117.667,0.319,1.269,1.609,0.815226015700499,-5.706122996068256,-7.077458478401885
1621785166123.369,0.318,1.251,1.609,0.8575834072465878,-5.675823548100981,-6.989651914904884
1621785166129.076,0.314,1.241,1.606,0.8999788850792305,-5.645496855928726,-6.901766398813858
1621785166134.789,0.304,1.232,1.606,0.9424197037291995,-5.6151377301791126,-6.81378689153947
1621785166135.944,0.3017783991462113,1.229172508004269,1.6062019637139808,0.951,-5.609,-6.796
1621785166140.508,0.293,1.218,1.607,0.9850375237492083,-5.589761399620013,-6.766895450707199
1621785166146.232,0.288,1.203,1.611,1.0277255383153894,-5.565633391386954,-6.730394104918725
1621785166151.963,0.284,1.194,1.613,1.070466355288157,-5.541475538315389,-6.693847609246358
1621785166154.448,0.27663490104277505,1.1888011066184294,1.6121335177697382,1.089,-5.531,-6.678
1621785166157.699,0.267,1.182,1.611,1.089,-5.513840657462196,-6.648934174884944
1621785166163.441,0.239,1.162,1.609,1.089,-5.483533464825772,-6.597597501643655
1621785166169.19,0.211,1.152,1.607,1.089,-5.453188902038133,-6.546197527942143
1621785166173.015,0.18574029445458015,1.1413643345071915,1.6050058127200986,1.089,-5.433,-6.512
1621785166174.944,0.173,1.136,1.604,1.086928838215058,-5.430928838215058,-6.529190642815018
1621785166180.705,0.136,1.126,1.599,1.0807439224166175,-5.424743922416617,-6.580525443942074
1621785166186.471,0.12,1.127,1.593,1.0745537644977392,-5.418553764497739,-6.631903754668763
1621785166191.644,0.09849014465781236,1.1216225361644532,1.5903112680822267,1.069,-5.413,-6.678
1621785166192.243,0.096,1.121,1.59,1.0714993338035896,-5.4070400501606715,-6.686170898973273
1621785166198.021,0.08,1.117,1.588,1.0956133709538365,-5.349537346187006,-6.765005251195235
1621785166203.805,0.075,1.11,1.576,1.1197518614311466,-5.29197633043342,-6.843919546986441
1621785166209.595,0.065,1.098,1.567,1.1439158241241476,-5.234354573242418,-6.922917117328944
1621785166210.334,0.06385224974721941,1.098,1.5657247219413548,1.147,-5.227,-6.933
1621785166215.39,0.056,1.098,1.557,1.2238377987814404,-5.227,-6.853735744414935
1621785166221.192,0.028,1.096,1.552,1.312014450867052,-5.227,-6.762774566473989
1621785166227.0,0.0,1.089,1.548,1.4002838618965785,-5.227,-6.671717700359319
1621785166229.087,-0.011129273414531708,1.0954621587568247,1.5494360352792944,1.432,-5.227,-6.639
1621785166232.813,-0.031,1.107,1.552,1.4514074766112603,-5.242446767098758,-6.613849494595612
1621785166238.634,-0.075,1.108,1.557,1.4817267312857643,-5.266578418778465,-6.574558215578652
1621785166244.46,-0.106,1.114,1.569,1.512071418376218,-5.290730312585153,-6.535233978226738
1621785166247.902,-0.12075778764026127,1.114,1.574312803550494,1.53,-5.305,-6.512
1621785166250.291,-0.131,1.114,1.578,1.4927956391288604,-5.306265454451399,-6.550469815322539
1621785166256.128,-0.168,1.107,1.583,1.4018930474367597,-5.309357379338886,-6.6444643319021255
1621785166261.971,-0.201,1.101,1.588,1.3108954011691065,-5.312452537375201,-6.738557136206094
1621785166266.78,-0.22237334112344548,1.0894912778566062,1.588,1.236,-5.315,-6.816
1621785166267.821,-0.227,1.087,1.588,1.2181907340088174,-5.316099337406864,-6.844527805708098
1621785166273.676,-0.243,1.061,1.595,1.1180261427797973,-5.322282336865445,-7.0049766416582875
1621785166279.538,-0.253,1.04,1.597,1.0177404284940832,-5.328472813055921,-7.165619498801145
1621785166285.404,-0.265,1.018,1.593,0.9173878876943307,-5.334667414339856,-7.3263694021192665
1621785166285.719,-0.26483912537412707,1.0168738776188893,1.593,0.912,-5.335,-7.335
1621785166291.277,-0.262,0.997,1.593,0.8804016861152522,-5.32622269058757,-7.441205443890403
1621785166297.155,-0.26,0.97,1.595,0.8469851436796382,-5.316940317688788,-7.553522155965661
1621785166303.04,-0.244,0.956,1.593,0.8135283503829744,-5.307646763995271,-7.665974155657225
1621785166304.716,-0.24058528497409326,0.9471786528497409,1.5935691191709844,0.804,-5.305,-7.698
1621785166308.93,-0.232,0.925,1.595,0.777913466711069,-5.24000473909368,-7.72629725644901
1621785166314.826,-0.229,0.904,1.6,0.7414134795194304,-5.149064093039937,-7.765890462894177
1621785166320.728,-0.227,0.885,1.616,0.7048757076619618,-5.058029305530651,-7.805524656095499
1621785166323.777,-0.22338733005496095,0.8669366502748047,1.6180643828257366,0.686,-5.011,-7.826
1621785166326.636,-0.22,0.85,1.62,0.5907627133792118,-4.994853018908877,-7.798041801258889
1621785166332.552,-0.208,0.819,1.614,0.3936841540799,-4.961439385621082,-7.740186713992059
1621785166338.471,-0.208,0.775,1.606,0.1965079989275182,-4.928009205469658,-7.682302976137278
1621785166342.899,-0.21173604416429778,0.7451116466856178,1.5903086145099494,0.049,-4.903,-7.639
1621785166344.397,-0.213,0.735,1.585,0.015342352432102226,-4.916041362282688,-7.64516926718762
1621785166350.328,-0.23,0.714,1.574,-0.11791143380762086,-4.967673339781607,-7.669593975106269
1621785166356.266,-0.251,0.698,1.567,-0.25132977829816483,-5.019369078830147,-7.694048845674142
1621785166362.082,-0.27742321912743406,0.6862563470544738,1.5621068112726975,-0.382,-5.07,-7.718
1621785166362.209,-0.278,0.686,1.562,-0.38801552590187227,-5.07,-7.721040742807855
1621785166368.158,-0.302,0.661,1.548,-0.669900755999797,-5.07,-7.8635287812674415
1621785166374.114,-0.321,0.641,1.518,-0.9521214673499416,-5.07,-8.00618639961439
1621785166380.074,-0.325,0.621,1.496,-1.2345272718047593,-5.07,-8.148937579278503
1621785166381.329,-0.32226643216491474,0.6155328643298295,1.490112315432124,-1.294,-5.07,-8.179
1621785166386.043,-0.312,0.595,1.468,-1.2629939179363976,-5.168145236138333,-8.313034165771006
1621785166392.015,-0.26,0.592,1.468,-1.22371280268066,-5.292483884428147,-8.482839931719036
1621785166397.994,-0.192,0.559,1.471,-1.1843851172788773,-5.416969943731429,-8.652847012707845
1621785166400.637,-0.1602042830919845,0.5457517846216603,1.46437589231083,-1.167,-5.472,-8.728
1621785166403.979,-0.12,0.529,1.456,-1.1894499670708558,-5.380078874985473,-8.769541277650795
1621785166409.969,-0.047,0.52,1.447,-1.2296873797440566,-5.215327264040083,-8.84399633259727
1621785166415.691,0.002,0.513,1.443,-1.2681240718501015,-5.057948682188561,-8.9151193455494
1621785166419.543,0.013442112447743368,0.49550029860933364,1.4255002986093337,-1.294,-4.952,-8.963
1621785166421.414,0.019,0.487,1.417,-1.3972188552188554,-4.923260632468476,-8.884675103980985
1621785166427.136,0.012,0.447,1.372,-1.7128686868686869,-4.835373816597346,-8.645152584670232
1621785166432.857,0.007,0.417,1.318,-2.0284646464646467,-4.747502000396118,-8.405670944741534
1621785166438.033,0.003381773188838638,0.3853405154023381,1.2691539380493215,-2.314,-4.668,-8.189
1621785166438.579,0.003,0.382,1.264,-2.3064668198565825,-4.675828598972571,-8.168113888778839
1621785166444.3,0.005,0.368,1.225,-2.2275553266510837,-4.7578346605390704,-7.9493279056561414
1621785166450.021,0.012,0.36,1.192,-2.148643833445585,-4.839840722105569,-7.730541922533444
1621785166455.742,0.017,0.353,1.166,-2.0697323402400856,-4.921846783672068,-7.511755939410747
1621785166456.52,0.017272009559168695,0.35123193786540347,1.1634159091878973,-2.059,-4.933,-7.482
1621785166461.463,0.019,0.34,1.147,-2.219173204427187,-4.964285918060068,-7.427182793142616
1621785166467.185,0.009,0.332,1.124,-2.4045994399978867,-5.000504398129804,-7.3637230631058985
1621785166472.906,-0.005,0.309,1.075,-2.589986118815543,-5.036715151755289,-7.300276870856116
1621785166475.005,-0.014171894337046045,0.3038637391712542,1.056656211325908,-2.658,-5.05,-7.277
1621785166478.627,-0.03,0.295,1.025,-2.796337396817011,-5.1134862840916595,-7.336567377666249
1621785166484.347,-0.044,0.278,0.976,-3.014799709436703,-5.213743776002113,-7.430636135508156
1621785166490.068,-0.047,0.265,0.925,-3.2333086442580727,-5.314022663937132,-7.524724968632372
1621785166493.49,-0.03742827265354902,0.24645477826625123,0.892695420205728,-3.364,-5.374,-7.581
1621785166495.788,-0.031,0.234,0.871,-3.3980622829144598,-5.4605231711987745,-7.6187917299488905
1621785166501.508,-0.01,0.208,0.819,-3.4828434606901832,-5.675879739563386,-7.7128555184299845
1621785166507.229,0.024,0.182,0.763,-3.567639113036358,-5.8912730754500195,-7.806935366288514
1621785166511.976,0.058856289214221695,0.16457185539288915,0.7148651244184557,-3.638,-6.07,-7.885
1621785166512.949,0.066,0.161,0.705,-3.6054698174517212,-6.107162312102079,-7.886000118880934
1621785166518.669,0.099,0.155,0.644,-3.4142152009087785,-6.32565059572557,-7.891880115182416
1621785166524.389,0.122,0.157,0.59,-3.222960584365836,-6.5441388793490605,-7.8977601114838984
1621785166530.109,0.134,0.166,0.536,-3.031705967822894,-6.762627162972551,-7.90364010778538
1621785166530.459,0.13424486659551763,0.16728554962646747,0.5331228175026681,-3.02,-6.776,-7.904
1621785166535.828,0.138,0.187,0.489,-2.8378504451900977,-7.032520026949193,-7.943799822980792
1621785166541.548,0.138,0.213,0.457,-2.6437817775898966,-7.3058256625009905,-7.986203981611139
1621785166547.267,0.129,0.246,0.431,-2.4497545245581125,-7.5790729741869,-8.028599091125262
1621785166548.94,0.12695314300345667,0.25331020355908335,0.4242746127256433,-2.393,-7.659,-8.041
1621785166552.988,0.122,0.271,0.408,-2.3156701942132383,-7.712670828378914,-7.970242132382085
1621785166558.707,0.126,0.281,0.394,-2.2064216144801163,-7.7884949134628085,-7.870278134495971
1621785166564.426,0.141,0.283,0.391,-2.0971730347469943,-7.864318998546704,-7.770314136609856
1621785166567.419,0.15198992529348987,0.2756733831376734,0.3925699893276414,-2.04,-7.904,-7.718
1621785166570.145,0.162,0.269,0.394,-1.9386411299912794,-7.883787241351973,-7.547298089373959
1621785166575.863,0.192,0.241,0.414,-1.7260380407494518,-7.841390409872889,-7.189246016225787
1621785166581.582,0.209,0.22,0.443,-1.5133986416849448,-7.79898633757036,-6.831132792473772
1621785166585.896,0.20824567769477054,0.21698271077908218,0.46713831376734255,-1.353,-7.767,-6.561
1621785166587.301,0.208,0.216,0.475,-1.335874742104428,-7.707251878008782,-6.510233124371792
1621785166593.02,0.188,0.22,0.513,-1.2661685446754483,-7.46405470031212,-6.3035929746601065
1621785166598.729,0.157,0.215,0.543,-1.1965843516902077,-7.221283182563615,-6.0973145003438605
1621785166604.356,0.10378501795792713,0.2218982384128613,0.5735493415426715,-1.128,-6.982,-5.894
1621785166604.439,0.103,0.222,0.574,-1.1293680824873262,-6.978822808434038,-5.895192571905071
1621785166610.148,0.049,0.225,0.6,-1.2234599674392133,-6.760306786144459,-5.977213458458524
1621785166615.856,-0.005,0.216,0.63,-1.3175357573030138,-6.541828142579185,-6.059220314754272
1621785166621.565,-0.058,0.209,0.653,-1.4116276422549006,-6.323312120289605,-6.141241201307726
1621785166622.801,-0.06622899914456801,0.20726757912745936,0.6560317365269461,-1.432,-6.276,-6.159
1621785166627.273,-0.096,0.201,0.667,-1.5675342104914822,-6.2403586244324725,-6.280229168597032
1621785166632.981,-0.129,0.202,0.681,-1.7405314175281612,-6.194865620077567,-6.434967278647729
1621785166638.689,-0.152,0.201,0.682,-1.9135286245648406,-6.149372615722663,-6.589705388698426
1621785166641.245,-0.15826838864180637,0.19920903181662677,0.6860296784125898,-1.991,-6.129,-6.659
1621785166644.398,-0.166,0.197,0.691,-2.002626532503641,-6.137377942539388,-6.737821051237918
1621785166650.106,-0.169,0.192,0.681,-2.0236756520587846,-6.152545690454124,-6.88052169998676
1621785166655.813,-0.157,0.194,0.675,-2.0447211703958694,-6.167710843373494,-7.023197934595525
1621785166659.685,-0.14139510609171801,0.1946784736481862,0.6702506844626969,-2.059,-6.178,-7.12
1621785166661.52,-0.134,0.195,0.668,-2.018992690871534,-6.187753025608432,-7.091636609199968
1621785166667.227,-0.113,0.19,0.653,-1.8945633590212125,-6.218086544318211,-7.00342178438071
1621785166672.935,-0.079,0.206,0.639,-1.7701127353618813,-6.248425253568496,-6.915191864622229
1621785166678.123,-0.04990535683724114,0.20872762279650864,0.6326355468081465,-1.657,-6.276,-6.835
1621785166678.641,-0.047,0.209,0.632,-1.633030060651005,-6.278219959212861,-6.814626956590831
1621785166684.347,-0.01,0.23,0.623,-1.3690331461715708,-6.302669849299468,-6.5902450538972905
1621785166690.053,0.016,0.267,0.623,-1.105024935773499,-6.3271207855497,-6.3658535503350375
1621785166695.759,0.04,0.295,0.623,-0.8410167253754272,-6.351571721799932,-6.1414620467727845
1621785166696.559,0.04098147355810371,0.30116926236522334,0.6235608420332022,-0.804,-6.355,-6.11
1621785166701.465,0.047,0.339,0.627,-0.6709293424276539,-6.360056684987749,-5.99768836500894
1621785166707.17,0.058,0.379,0.641,-0.5161912456128734,-6.365936732666711,-5.867089411297265
1621785166712.875,0.045,0.428,0.651,-0.3614465267200848,-6.371817031984636,-5.736484868551751
1621785166714.993,0.03980361115865137,0.443217995892521,0.6569387301043984,-0.304,-6.374,-5.688
1621785166718.581,0.031,0.469,0.667,-0.304,-6.354922593975999,-5.747178892156083
1621785166724.286,0.014,0.518,0.686,-0.304,-6.324591114996424,-5.841268377970277
1621785166729.991,0.003,0.564,0.695,-0.304,-6.294258337969217,-5.935361890381202
1621785166733.425,0.0011938880328710836,0.5898876048621811,0.6937959253552474,-0.304,-6.276,-5.992
1621785166735.695,0.0,0.607,0.693,-0.28466431778746176,-6.30506510192458,-6.053578605772414
1621785166741.399,0.005,0.653,0.696,-0.23607972502218633,-6.37809671907493,-6.208306608209598
1621785166747.103,0.021,0.702,0.7,-0.18749305270408095,-6.451131462177305,-6.363041233426494
1621785166751.857,0.04266518315645327,0.7478301951386511,0.704166381376241,-0.147,-6.512,-6.492
1621785166752.808,0.047,0.757,0.705,-0.15912967501755407,-6.515509863409334,-6.508723466832713
1621785166758.511,0.096,0.812,0.707,-0.2318547978961593,-6.536553728752931,-6.60899129582279
1621785166764.215,0.15,0.866,0.696,-0.3045954876061525,-6.557602098541355,-6.7092805871676315
1621785166769.918,0.216,0.92,0.675,-0.37732061048475773,-6.578645963884951,-6.809548416157709
1621785166770.285,0.21953874143835617,0.9230240154109589,0.6737775256849315,-0.382,-6.58,-6.816
1621785166775.621,0.271,0.967,0.656,-0.5263239823020751,-6.412748786293522,-6.833048454121222
1621785166781.207,0.319,1.014,0.634,-0.6774029371024355,-6.237669508734652,-6.850894847967294
1621785166786.79,0.361,1.044,0.611,-0.8284026546887397,-6.062682055971705,-6.8687318818165926
1621785166788.439,0.3677917978314096,1.0484294333683106,0.6027317243791536,-0.873,-6.011,-6.874
1621785166792.374,0.384,1.059,0.583,-1.0399795376677545,-5.876325000338556,-6.79913205043132
1621785166797.954,0.389,1.068,0.562,-1.276763525317227,-5.685350202456563,-6.6929661579296615
1621785166803.532,0.377,1.068,0.538,-1.5134542746096447,-5.494450604661241,-6.58684207033842
1621785166806.467,0.3606822102543894,1.0632625771706292,0.523261351197513,-1.638,-5.394,-6.531
1621785166809.108,0.346,1.059,0.51,-1.7846493133227586,-5.321995187158525,-6.54111880261927
1621785166814.683,0.307,1.044,0.478,-2.0942438144819078,-5.169984287089383,-6.562480823199252
1621785166820.255,0.255,1.009,0.445,-2.4036485134420627,-5.018066579899947,-6.583829747427502
1621785166824.475,0.20728418700433773,0.9862781842877798,0.4268225474302239,-2.638,-4.903,-6.6
1621785166825.827,0.192,0.979,0.421,-2.6608484864938236,-4.917054825573503,-6.637579747522736
1621785166831.396,0.122,0.935,0.396,-2.7549783086738158,-4.974957051717117,-6.792398534002986
1621785166836.963,0.044,0.887,0.374,-2.8490709922627935,-5.032836432740599,-6.947156237274331
1621785166842.461,-0.015276157051985088,0.8336514586532134,0.3581930247861373,-2.942,-5.09,-7.1
1621785166842.528,-0.016,0.833,0.358,-2.9413760274996266,-5.0921596173965025,-7.103149753400089
1621785166848.091,-0.073,0.778,0.342,-2.889674800614122,-5.271101588293638,-7.364132593307156
1621785166853.652,-0.108,0.712,0.319,-2.8379917256559013,-5.449980733957419,-7.625023804024401
1621785166859.211,-0.122,0.641,0.298,-2.786329071615875,-5.628789201233679,-7.885811931903099
1621785166860.43,-0.12134204515505578,0.625867038566283,0.2931749978037424,-2.775,-5.668,-7.943
1621785166864.769,-0.119,0.572,0.276,-2.649526463986941,-5.796132898048017,-8.118517894307285
1621785166870.325,-0.094,0.508,0.25,-2.4888669659253213,-5.9601975107121,-8.343255458069782
1621785166875.879,-0.049,0.45,0.222,-2.328263946133442,-6.124204448071822,-8.567914017547439
1621785166878.378,-0.026040242776091835,0.42884100804855524,0.21299617363768308,-2.256,-6.198,-8.669
1621785166881.43,0.002,0.403,0.202,-2.0372456933531247,-6.224727179878257,-8.705771151934417
1621785166886.98,0.044,0.365,0.188,-1.639442185393488,-6.273330410033637,-8.77263929023736
1621785166892.528,0.086,0.339,0.183,-1.2417786689907808,-6.321916536162217,-8.839483896885596
1621785166896.306,0.10847939778129952,0.33014447966191235,0.18436238774432118,-0.971,-6.355,-8.885
1621785166898.074,0.119,0.326,0.185,-0.8412536302032914,-6.368527589545015,-8.815288480154889
1621785166903.619,0.157,0.326,0.197,-0.43434952210844935,-6.410952142672103,-8.596662680828436
1621785166909.162,0.188,0.321,0.208,-0.027570824754918677,-6.453363620250058,-8.378104263528899
1621785166914.212,0.21899272839451767,0.33193861002159447,0.22349636419725882,0.343,-6.492,-8.179
1621785166914.702,0.222,0.333,0.225,0.35025972891442925,-6.478822907140224,-8.162617668336496
1621785166920.24,0.239,0.333,0.234,0.43231238994826715,-6.32988958654673,-7.977457323814854
1621785166925.777,0.251,0.328,0.237,0.5143505821651356,-6.180982528221018,-7.792329629680185
1621785166931.312,0.255,0.34,0.243,0.5963562195438228,-6.032134559997816,-7.6072753989162045
1621785166932.098,0.25627856480868527,0.34099443929564416,0.24442062756520588,0.608,-6.011,-7.581
1621785166936.844,0.264,0.347,0.253,0.608,-5.925205607476635,-7.3985209050664045
1621785166942.376,0.253,0.36,0.258,0.608,-5.825204828660436,-7.185825750122971
1621785166947.906,0.243,0.363,0.265,0.608,-5.725239356178609,-6.973205689457288
1621785166949.966,0.23293656963646803,0.3648635982154689,0.26649087857237513,0.608,-5.688,-6.894
1621785166953.433,0.216,0.368,0.269,0.5528316257437932,-5.63088907735449,-6.800757677313453
1621785166958.958,0.19,0.368,0.283,0.46491807673893715,-5.539879980849463,-6.652171397305246
1621785166964.481,0.147,0.377,0.284,0.3770356063196772,-5.448903057246427,-6.503637644483961
1621785166967.814,0.12224843017599717,0.37881109047492706,0.29245175554965946,0.324,-5.394,-6.414
1621785166970.002,0.106,0.38,0.298,0.2782229130148992,-5.38430458479404,-6.414
1621785166975.523,0.066,0.386,0.302,0.16271264241893077,-5.359839943032428,-6.414
1621785166981.041,0.024,0.389,0.307,0.047263666739702004,-5.33538828330412,-6.414
1621785166985.642,-0.01771499402363983,0.3923371995218912,0.3086685997609456,-0.049,-5.315,-6.414
1621785166986.556,-0.026,0.393,0.309,-0.06711236617362816,-5.327109117328545,-6.438628713210599
1621785166992.07,-0.058,0.387,0.314,-0.1764059548451658,-5.400177918819998,-6.587243224718639
1621785166997.582,-0.093,0.386,0.312,-0.2856559925427354,-5.473217604079562,-6.735798516771991
1621785167003.092,-0.106,0.382,0.305,-0.39486731826344434,-5.5462314082441155,-6.884301169310066
1621785167003.452,-0.10658800585080448,0.382,0.30480399804973185,-0.402,-5.551,-6.894
1621785167008.6,-0.115,0.382,0.302,-0.4674228488276317,-5.66737161605623,-7.035845999670529
1621785167014.107,-0.117,0.367,0.291,-0.537403300203174,-5.7918501180605135,-7.1875735269891825
1621785167019.612,-0.112,0.361,0.281,-0.6073620339355335,-5.916289989566746,-7.339253967382351
1621785167021.236,-0.10814308014807547,0.35684639400561974,0.2747695910084296,-0.628,-5.953,-7.384
1621785167025.086,-0.099,0.347,0.26,-0.644986590064771,-6.044684030990623,-7.443888618818103
1621785167030.558,-0.086,0.34,0.255,-0.669131268212515,-6.175003383557293,-7.529014086646687
1621785167036.027,-0.061,0.319,0.248,-0.693261942576199,-6.305247151597177,-7.614090182159676
1621785167038.914,-0.046213469096105755,0.31477527688460166,0.2384943729903537,-0.706,-6.374,-7.659
1621785167041.494,-0.033,0.311,0.23,-0.7390241581967779,-6.379844983751642,-7.683402807163105
1621785167046.96,-0.003,0.288,0.22,-0.8089946207564129,-6.392229136417064,-7.735106644541243
1621785167052.423,0.026,0.264,0.206,-0.8789275807232249,-6.404606651455437,-7.786782769826454
1621785167056.569,0.05029905204793418,0.24653505634054731,0.1900537470935432,-0.932,-6.414,-7.826
1621785167057.883,0.058,0.241,0.185,-0.9393027802392557,-6.40520685644661,-7.813555466326982
1621785167063.341,0.093,0.222,0.164,-0.9696374058484715,-6.3686814909171465,-7.761862787992911
1621785167068.797,0.12,0.195,0.15,-0.9999611763402747,-6.33216919583518,-7.710188607665041
1621785167074.202,0.1408110479430592,0.18211697032096333,0.13117095662294642,-1.03,-6.296,-7.659
1621785167074.251,0.141,0.182,0.131,-1.0300529482717984,-6.2954259292636605,-7.657823991015847
1621785167079.702,0.162,0.145,0.119,-1.0359344212292207,-6.231658380356871,-7.527193381119414
1621785167085.153,0.175,0.127,0.098,-1.0418161576108809,-6.167887975376766,-7.396556920432015
1621785167090.6,0.18,0.105,0.08,-1.0476934157804982,-6.104166123643019,-7.266019923191038
1621785167091.811,0.17911039368666487,0.09988476369832301,0.07577437001165815,-1.049,-6.09,-7.237
1621785167096.045,0.176,0.082,0.061,-1.0066249236408062,-6.047384156161493,-7.154416754595435
1621785167101.487,0.169,0.073,0.045,-0.952156994502138,-5.992606750152718,-7.048266188149054
1621785167106.928,0.155,0.054,0.028,-0.8977012828344533,-5.937841631032376,-6.9421394318875995
1621785167109.396,0.14728459190087098,0.04673843943611385,0.021646134506599624,-0.873,-5.913,-6.894
1621785167112.366,0.138,0.038,0.014,-0.8381645861714254,-5.893214837776975,-6.884022866913176
1621785167117.803,0.12,0.026,0.0,-0.774392727070533,-5.856994898384721,-6.865758111151269
1621785167123.237,0.103,0.005,-0.016,-0.7106552308932692,-5.820794475798604,-6.847503197197587
1621785167126.959,0.09134951674533602,-0.0045945156214879735,-0.026279838165879973,-0.667,-5.796,-6.835
1621785167128.668,0.086,-0.009,-0.031,-0.6440070148090413,-5.7978511301636795,-6.846496492595479
1621785167134.097,0.066,-0.026,-0.042,-0.5709648702817058,-5.803731641799354,-6.883017564859148
1621785167139.524,0.049,-0.042,-0.052,-0.49794900345173143,-5.8096100378577,-6.919525498274134
1621785167144.5,0.03432415282840556,-0.06584825165384096,-0.06392412582692047,-0.431,-5.815,-6.953
1621785167144.949,0.033,-0.068,-0.065,-0.42825736626432137,-5.816025283639506,-6.958767220472222
1621785167150.373,0.023,-0.073,-0.073,-0.39512354695732166,-5.828411758146796,-7.028441139575726
1621785167155.793,0.009,-0.093,-0.082,-0.36201508098012436,-5.840788754773786,-7.098061745602543
1621785167161.211,0.003,-0.11,-0.094,-0.32891854598165754,-5.85316129122181,-7.167657263122683
1621785167162.016,0.0021080057699242698,-0.11237865128020194,-0.09504065993508835,-0.324,-5.855,-7.178
1621785167166.627,-0.003,-0.126,-0.101,-0.31345358090185677,-5.875565517241379,-7.1988291777188325
1621785167172.041,-0.014,-0.14,-0.112,-0.3010699427614128,-5.899713611615245,-7.2232868630462095
1621785167177.452,-0.017,-0.152,-0.115,-0.2886935641490995,-5.923847549909256,-7.247730210805528
1621785167179.504,-0.014345470131745173,-0.15806749684172533,-0.11765452986825482,-0.284,-5.933,-7.257
1621785167182.863,-0.01,-0.168,-0.122,-0.261407542032728,-5.96331637522104,-7.2494691806775755
1621785167188.27,-0.012,-0.175,-0.127,-0.22504187835068906,-6.0121147444354,-7.2373472927835625
1621785167193.674,-0.01,-0.183,-0.138,-0.1886959188256098,-6.060886673028882,-7.22523197294187
1621785167196.9,-0.005116921513373678,-0.18849346329745462,-0.13983115443248487,-0.167,-6.09,-7.218
1621785167198.959,-0.002,-0.192,-0.141,-0.1527562330041506,-6.103036668097896,-7.206170430800057
1621785167204.241,0.003,-0.195,-0.145,-0.11621794761700302,-6.1364784886217265,-7.175825075139545
1621785167209.52,0.01,-0.201,-0.145,-0.0796999284385287,-6.169901760412194,-7.145496550737083
1621785167213.958,0.017573465419868532,-0.19931700768447366,-0.145,-0.049,-6.198,-7.12
1621785167214.794,0.019,-0.199,-0.145,-0.04320543269368672,-6.199915153601239,-7.116120586294926
1621785167220.067,0.016,-0.202,-0.145,-0.006654303989903333,-6.211995611393168,-7.091649915383071
1621785167225.334,0.016,-0.197,-0.15,0.029856208587901223,-6.224062645211256,-7.067206436623355
1621785167230.599,0.021,-0.201,-0.145,0.06635318245704616,-6.236125204371397,-7.042772021914351
1621785167230.981,0.021217786854808764,-0.2010725956182696,-0.145,0.069,-6.237,-7.041
1621785167235.859,0.024,-0.202,-0.145,0.10260106941110521,-6.220055870980725,-7.041
1621785167241.117,0.028,-0.192,-0.141,0.13882060053758033,-6.201791321096434,-7.041
1621785167246.372,0.031,-0.19,-0.14,0.17501995084158628,-6.183536947866209,-7.041
1621785167247.966,0.03008914620535714,-0.18908914620535713,-0.13939276413690477,0.186,-6.178,-7.041
1621785167251.622,0.028,-0.187,-0.138,0.19872742332790735,-6.167429767066653,-7.036901338250336
1621785167256.869,0.026,-0.187,-0.136,0.21699286938734352,-6.152260159322376,-7.0310192454515335
1621785167262.113,0.024,-0.182,-0.131,0.23524896642129675,-6.137098316022991,-7.025140163355854
1621785167264.914,0.02025746772915793,-0.175049582925579,-0.131,0.245,-6.129,-7.022
1621785167267.352,0.017,-0.169,-0.131,0.23937782044434178,-6.123377820444341,-7.012053066939989
1621785167272.589,0.016,-0.166,-0.127,0.22730077521617992,-6.111300775216179,-6.990685986920934
1621785167277.823,0.01,-0.164,-0.126,0.2152310490681526,-6.099231049068153,-6.969331856043655
1621785167281.826,0.004641329722663181,-0.15864132972266318,-0.126,0.206,-6.09,-6.953
1621785167283.052,0.003,-0.157,-0.126,0.206,-6.088546875,-6.95016640625
1621785167288.278,0.0,-0.152,-0.126,0.206,-6.0823530092592595,-6.938088368055555
1621785167293.501,-0.005,-0.157,-0.126,0.206,-6.076162905092593,-6.926017664930556
1621785167298.701,-0.008985404874397716,-0.15899270243719887,-0.12699635121859942,0.206,-6.07,-6.914
1621785167298.72,-0.009,-0.159,-0.127,0.20597703585938879,-6.070022964140612,-6.9140447800741915
1621785167303.857,-0.019,-0.152,-0.124,0.19978231172348818,-6.076217688276512,-6.926124492139198
1621785167308.99,-0.019,-0.157,-0.126,0.19359229818053347,-6.082407701819466,-6.93819501854796
1621785167314.12,-0.03,-0.155,-0.126,0.18740581758228816,-6.088594182417712,-6.9502586557145385
1621785167315.286,-0.03159227324695122,-0.15272532393292682,-0.1262274676067073,0.186,-6.09,-6.953
1621785167319.245,-0.037,-0.145,-0.127,0.171876195677846,-6.080663925956542,-6.988189817548418
1621785167324.365,-0.047,-0.15,-0.127,0.1536120099196977,-6.0685909896079355,-7.03369550070855
1621785167329.481,-0.042,-0.157,-0.129,0.13536175897496458,-6.05652726440718,-7.079166464926783
1621785167331.825,-0.04291704474903291,-0.15883408949806582,-0.1280829552509671,0.127,-6.051,-7.1
1621785167334.593,-0.044,-0.161,-0.127,0.12381158605174353,-6.057544639156948,-7.109900864365638
1621785167339.701,-0.047,-0.162,-0.131,0.11792800899887514,-6.069621455212835,-7.128170919424545
1621785167344.804,-0.058,-0.169,-0.136,0.11205005624296963,-6.081686726659168,-7.146423509561305
1621785167348.32,-0.060068658431485206,-0.16831044718950494,-0.136,0.108,-6.09,-7.159
1621785167349.903,-0.061,-0.168,-0.136,0.10232131459022964,-6.096641174462274,-7.1665074146095264
1621785167354.998,-0.059,-0.171,-0.131,0.08404425015215164,-6.1180160464322295,-7.190670313358172
1621785167360.088,-0.063,-0.182,-0.136,0.06578557750827557,-6.139369409354728,-7.214808897531432
1621785167364.767,-0.05840185211842042,-0.18016074084736816,-0.136,0.049,-6.159,-7.237
1621785167365.176,-0.058,-0.18,-0.136,0.0480278294515961,-6.160445792097626,-7.239442890095989
1621785167370.257,-0.054,-0.187,-0.145,0.03594853783763673,-6.178409866805565,-7.269795981843887
1621785167375.335,-0.044,-0.185,-0.143,0.023876791427933627,-6.196362720440509,-7.300130113847756
1621785167380.408,-0.028,-0.185,-0.15,0.011816653024778634,-6.214298310886226,-7.330435077014659
1621785167381.172,-0.025889515002648945,-0.18605524249867553,-0.15,0.01,-6.217,-7.335
1621785167385.477,-0.014,-0.192,-0.15,-0.0002630659940900809,-6.206736934005909,-7.32473693400591
1621785167390.542,-0.003,-0.197,-0.157,-0.012338014506163624,-6.194661985493836,-7.312661985493836
1621785167395.604,0.005,-0.199,-0.159,-0.024405978569083366,-6.1825940214309165,-7.300594021430917
1621785167397.531,0.008430247718383313,-0.20090569317687962,-0.16014341590612777,-0.029,-6.178,-7.296
1621785167400.66,0.014,-0.204,-0.162,-0.02534542998649257,-6.161073570463755,-7.26964862674471
1621785167405.693,0.023,-0.213,-0.168,-0.019466636650157586,-6.133845475011256,-7.227259432687978
1621785167410.722,0.019,-0.204,-0.171,-0.01359297613687528,-6.106641152633949,-7.184907248986943
1621785167413.798,0.017775688675120246,-0.21073371228683865,-0.171,-0.01,-6.09,-7.159
1621785167415.747,0.017,-0.215,-0.171,-0.012284567417761176,-6.08050100915773,-7.147216441739968
1621785167420.767,0.01,-0.22,-0.173,-0.018168981202554526,-6.056034236052536,-7.116865254849982
1621785167425.782,0.005,-0.232,-0.175,-0.0240473852271358,-6.031592450897699,-7.086545065670562
1621785167430.007,0.000784987091431634,-0.2260989819280043,-0.17921501290856837,-0.029,-6.011,-7.061
1621785167430.794,0.0,-0.225,-0.18,-0.027588005136339605,-6.010074899916912,-7.061
1621785167435.801,0.0,-0.232,-0.182,-0.018603021376236876,-6.004188186418914,-7.061
1621785167440.803,-0.007,-0.237,-0.188,-0.009627237706775437,-5.998307500566508,-7.061
1621785167445.8,-0.014,-0.232,-0.19,-0.000660216028400936,-5.992432555328953,-7.061
1621785167446.168,-0.014221064984597331,-0.232,-0.19,0.0,-5.992,-7.061
1621785167450.793,-0.017,-0.232,-0.19,0.0198017906106558,-6.003192316432109,-7.066452666979746
1621785167455.782,-0.019,-0.23,-0.194,0.041162094196421806,-6.015265531502325,-7.072334489706261
1621785167460.766,-0.024,-0.234,-0.194,0.0625014921755465,-6.027326930360092,-7.0782105558164545
1621785167462.284,-0.02613307518870699,-0.236133075188707,-0.19339054994608373,0.069,-6.031,-7.08
1621785167465.747,-0.031,-0.241,-0.192,0.069,-6.035310829496589,-7.084310829496589
1621785167470.722,-0.03,-0.244,-0.195,0.069,-6.041503411283828,-7.090503411283827
1621785167475.693,-0.035,-0.248,-0.201,0.069,-6.047691434562611,-7.096691434562611
1621785167478.351,-0.03392949852507375,-0.2506762536873156,-0.201,0.069,-6.051,-7.1
1621785167480.659,-0.033,-0.253,-0.201,0.08585617398725882,-6.05661872466242,-7.1
1621785167485.622,-0.031,-0.246,-0.202,0.12210595299783583,-6.068701984332612,-7.1
1621785167490.579,-0.037,-0.244,-0.197,0.1583111531075685,-6.080770384369189,-7.1
1621785167494.37,-0.03929624882929955,-0.25088874648789866,-0.20388874648789865,0.186,-6.09,-7.1
1621785167495.532,-0.04,-0.253,-0.206,0.1917378477786426,-6.09,-7.0985473803092045
1621785167500.481,-0.038,-0.248,-0.195,0.2161782580162691,-6.09,-7.0923599346794255
1621785167505.436,-0.044,-0.251,-0.202,0.24064881034140684,-6.09,-7.086164858141416
1621785167510.367,-0.04897978204053455,-0.251,-0.19901213077567928,0.265,-6.09,-7.08
1621785167510.387,-0.049,-0.251,-0.199,0.2649749208630893,-6.090048904316975,-7.08002507913691
1621785167515.334,-0.049,-0.246,-0.195,0.25877762145795424,-6.102133638156989,-7.086222378542046
1621785167520.276,-0.051,-0.246,-0.192,0.2525867447586133,-6.1142058477207035,-7.092413255241387
1621785167525.214,-0.052,-0.248,-0.192,0.24640045570626826,-6.1262691113727765,-7.098599544293731
1621785167526.332,-0.05290650829002722,-0.248,-0.192,0.245,-6.129,-7.1
1621785167530.147,-0.056,-0.248,-0.192,0.245,-6.129,-7.123485491687626
1621785167535.076,-0.052,-0.244,-0.188,0.245,-6.129,-7.153829059566898
1621785167540.0,-0.049,-0.244,-0.188,0.245,-6.129,-7.184142567940618
1621785167542.251,-0.04396824766818813,-0.24811688827148243,-0.18571283984917641,0.245,-6.129,-7.198
1621785167544.921,-0.038,-0.253,-0.183,0.245,-6.119075919773594,-7.201364094992003
1621785167549.837,-0.035,-0.251,-0.183,0.245,-6.1008031253845205,-7.207558262581519
1621785167554.748,-0.03,-0.244,-0.18,0.245,-6.0825484803740615,-7.213746277839301
1621785167558.124,-0.028624011144833077,-0.24675197771033386,-0.17862401114483306,0.245,-6.07,-7.218
1621785167559.655,-0.028,-0.248,-0.178,0.2487726410292008,-6.07,-7.216065312292717
1621785167564.557,-0.026,-0.243,-0.176,0.260851589615438,-6.07,-7.209870979684391
1621785167569.456,-0.017,-0.248,-0.169,0.2729239205886436,-6.07,-7.203680040723773
1621785167573.951,-0.014244137311645545,-0.2507558626883545,-0.16256965372717294,0.284,-6.07,-7.198
1621785167574.349,-0.014,-0.251,-0.162,0.28352055387947706,-6.069520553879477,-7.196031747505222
1621785167579.238,-0.017,-0.25,-0.157,0.2776340372863,-6.0636340372863,-7.171866047806916
1621785167584.123,-0.016,-0.248,-0.152,0.2717522240272298,-6.05775222402723,-7.147719656532838
1621785167589.003,-0.017,-0.246,-0.143,0.265876583894175,-6.051876583894175,-7.123598607565561
1621785167589.731,-0.017,-0.2462986180652914,-0.14255207290206287,0.265,-6.051,-7.12
1621785167593.879,-0.017,-0.248,-0.14,0.27525553319919516,-6.0404815044110824,-7.114740752205541
1621785167598.75,-0.023,-0.243,-0.129,0.2872989939637827,-6.028129236960223,-7.108564618480111
1621785167603.646,-0.035,-0.237,-0.127,0.2994040241448692,-6.015713821389878,-7.1023569106949385
1621785167605.505,-0.03423989218328841,-0.23433962264150943,-0.12319946091644206,0.304,-6.011,-7.1
1621785167608.537,-0.033,-0.23,-0.117,0.30015711876730766,-6.011,-7.09250638159625
1621785167613.423,-0.035,-0.229,-0.113,0.29396488188245484,-6.011,-7.080431519670787
1621785167618.305,-0.045,-0.225,-0.113,0.28777790497996564,-6.011,-7.068366914710933
1621785167621.286,-0.0474443221060007,-0.21888919473499824,-0.1081113557879986,0.284,-6.011,-7.061
1621785167623.183,-0.049,-0.215,-0.105,0.2698948013465924,-6.013411145068958,-7.065701732884469
1621785167628.057,-0.042,-0.225,-0.096,0.23365981476597525,-6.019605159869064,-7.077780061744675
1621785167632.927,-0.044,-0.222,-0.094,0.19745205479452055,-6.025794520547945,-7.089849315068493
1621785167637.023,-0.04063230792392232,-0.22031615396196116,-0.08979038490490289,0.167,-6.031,-7.1
1621785167637.792,-0.04,-0.22,-0.089,0.16312835472578763,-6.028108518086348,-7.09901983663944
1621785167642.654,-0.044,-0.211,-0.089,0.13865095293660054,-6.009827926876701,-7.092823026059898
1621785167647.51,-0.044,-0.213,-0.079,0.1142042784908596,-5.991570283936212,-7.0866339945546475
1621785167652.363,-0.051,-0.209,-0.079,0.08977235316997277,-5.973323656164917,-7.080448697005057
1621785167652.715,-0.05150823221388651,-0.20849176778611347,-0.07856437238809727,0.088,-5.972,-7.08
1621785167657.212,-0.058,-0.202,-0.073,0.06270786131136286,-5.9383729519707895,-7.113914458696128
1621785167662.056,-0.061,-0.208,-0.07,0.03546309646412633,-5.9021497987079865,-7.1504472115594675
1621785167666.896,-0.068,-0.208,-0.068,0.008240302094061111,-5.86595585619324,-7.186950504010237
1621785167668.361,-0.07163550080775445,-0.209514792003231,-0.068,0.0,-5.855,-7.198
1621785167671.732,-0.08,-0.213,-0.068,-0.044501079575679815,-5.850679506837313,-7.227595378164409
1621785167676.563,-0.084,-0.23,-0.061,-0.10827940670275682,-5.844487436242451,-7.270011061739212
1621785167681.391,-0.091,-0.239,-0.054,-0.17201905685765245,-5.838299120693432,-7.3124010232499925
1621785167683.965,-0.09260106302201974,-0.24647162743609213,-0.05293262465198684,-0.206,-5.835,-7.335
1621785167686.214,-0.094,-0.253,-0.052,-0.25274677358726977,-5.8547663826588145,-7.344955331412104
1621785167691.033,-0.096,-0.264,-0.051,-0.35290828217015413,-5.897118625485528,-7.366286023054755
1621785167695.847,-0.098,-0.284,-0.045,-0.45296829971181557,-5.93942795389049,-7.387595100864553
1621785167699.553,-0.09647114513042603,-0.2962308389565918,-0.04117786282606506,-0.53,-5.972,-7.404
1621785167700.695,-0.096,-0.3,-0.04,-0.5486197046795492,-5.982076546061874,-7.4068477195392255
1621785167705.539,-0.091,-0.321,-0.042,-0.6275922486186121,-6.02481462866419,-7.41892587331814
1621785167710.381,-0.089,-0.333,-0.038,-0.7065329503949053,-6.067535479037243,-7.430999157119221
1621785167715.194,-0.09099050888529886,-0.35788136106623586,-0.04198101777059774,-0.785,-6.11,-7.443
1621785167715.217,-0.091,-0.358,-0.042,-0.7850426677518823,-6.10997057396422,-7.443230994380879
1621785167720.049,-0.087,-0.372,-0.037,-0.7940264990843494,-6.1037748282176905,-7.491867598491132
1621785167724.877,-0.091,-0.377,-0.037,-0.8030026139084975,-6.0975844042010365,-7.540462427021866
1621785167729.701,-0.094,-0.394,-0.038,-0.8119714661365806,-6.091398988871323,-7.589017937360109
1621785167730.792,-0.094,-0.39694266322240795,-0.03890543483766398,-0.814,-6.09,-7.6
1621785167734.521,-0.094,-0.407,-0.042,-0.837492192036662,-6.061713483057897,-7.618937583376493
1621785167739.339,-0.094,-0.415,-0.052,-0.8678456298946906,-6.025165466045169,-7.643406171037556
1621785167744.151,-0.089,-0.433,-0.054,-0.8981590784249102,-5.9886655994475575,-7.667842522403754
1621785167746.348,-0.08488752919670965,-0.43756941200365596,-0.05811247080329034,-0.912,-5.972,-7.679
1621785167748.959,-0.08,-0.443,-0.063,-0.9020713566415961,-5.975365641816408,-7.6625083550996
1621785167753.763,-0.068,-0.45,-0.072,-0.8838043238820531,-5.981557856311169,-7.632166504075275
1621785167758.564,-0.056,-0.459,-0.073,-0.8655484312553104,-5.9877462944897255,-7.601843157000347
1621785167761.864,-0.051184538653366585,-0.4658792304951906,-0.07437584609903812,-0.853,-5.992,-7.581
1621785167763.361,-0.049,-0.469,-0.075,-0.8567736575513231,-6.003417733104003,-7.542005538636328
1621785167768.153,-0.045,-0.478,-0.075,-0.868852807978161,-6.039964906190334,-7.417187650892336
1621785167772.941,-0.045,-0.482,-0.072,-0.8809214965363799,-6.076480425417765,-7.292477869124075
1621785167777.336,-0.044081530612244894,-0.47373377551020407,-0.0701630612244898,-0.892,-6.11,-7.178
1621785167777.726,-0.044,-0.473,-0.07,-0.8887891339429801,-6.11619419042496,-7.171325443786982
1621785167782.506,-0.049,-0.469,-0.058,-0.8494489921842863,-6.192086589880708,-7.089547511312217
1621785167787.282,-0.063,-0.461,-0.044,-0.8101430085751353,-6.267913093693637,-7.007840584754612
1621785167792.056,-0.07,-0.459,-0.031,-0.7708530993892985,-6.343708587792299,-6.926167072746258
1621785167792.767,-0.07073986589454435,-0.45515269734836944,-0.028188509600731486,-0.765,-6.355,-6.914
1621785167796.862,-0.075,-0.433,-0.012,-0.68222504597105,-6.435138808996181,-6.893174454241124
1621785167801.671,-0.087,-0.419,0.012,-0.5850201172458234,-6.529248039354362,-6.868718437141465
1621785167806.477,-0.087,-0.394,0.037,-0.487869473651123,-6.62330471340783,-6.844276077765728
1621785167808.301,-0.0858602593440122,-0.3867816425120773,0.04687775235189423,-0.451,-6.659,-6.835
1621785167811.278,-0.084,-0.375,0.063,-0.43025275694750775,-6.696652404058226,-6.808681737979709
1621785167816.077,-0.072,-0.353,0.08,-0.39680943978826644,-6.7573458314953685,-6.766258270842523
1621785167820.872,-0.059,-0.328,0.099,-0.36339164408595376,-6.817992942214381,-6.7238671781460715
1621785167823.798,-0.0528914373088685,-0.31395030581039757,0.11182798165137614,-0.343,-6.855,-6.698
1621785167825.662,-0.049,-0.305,0.12,-0.32177391125783883,-6.85970350830082,-6.668452319648696
1621785167830.449,-0.026,-0.276,0.143,-0.2672644257349108,-6.871782314751924,-6.592572638096893
1621785167835.232,0.005,-0.248,0.161,-0.21279942186488068,-6.883851264473123,-6.516754877027817
1621785167839.254,0.03612587448296992,-0.21098544656079252,0.1811897564213859,-0.167,-6.894,-6.453
1621785167840.013,0.042,-0.204,0.185,-0.16119126937631617,-6.8891757999905,-6.43611529996675
1621785167844.789,0.058,-0.173,0.213,-0.12464054657440982,-6.858820114951628,-6.3298704023307
1621785167849.561,0.049,-0.138,0.241,-0.08812158588913344,-6.828490808619789,-6.223717830169261
1621785167854.329,0.023,-0.086,0.265,-0.05163251896068527,-6.798186329306332,-6.117652152572162
1621785167854.673,0.020328841522775018,-0.08318445457806015,0.26803212583901215,-0.049,-6.796,-6.11
1621785167859.094,-0.014,-0.047,0.307,-0.11109245618491237,-6.75661728473457,-6.233897447294895
1621785167863.855,-0.056,-0.009,0.347,-0.17796151892303785,-6.714204962534925,-6.367325993776988
1621785167868.613,-0.072,0.009,0.377,-0.24478943357886718,-6.6718187388874775,-6.500672434594869
1621785167870.052,-0.0750275323607972,0.014752311485514692,0.3839633244298336,-0.265,-6.659,-6.541
1621785167873.366,-0.082,0.028,0.4,-0.383594554163948,-6.6503592310263056,-6.657434361920525
1621785167878.116,-0.077,0.051,0.419,-0.5535794993395611,-6.63797417126852,-6.824323042156691
1621785167882.862,-0.066,0.068,0.435,-0.7234246542642073,-6.625599296592772,-6.991074478412401
1621785167885.393,-0.05692627297533852,0.06693250270298101,0.43926998918807597,-0.814,-6.619,-7.08
1621785167887.604,-0.049,0.066,0.443,-0.8749773267595296,-6.6133646546359675,-7.088525266063536
1621785167892.343,-0.019,0.073,0.454,-1.0056786175865204,-6.601285625388924,-7.106798669283424
1621785167897.079,0.016,0.075,0.464,-1.1362991080688654,-6.589214063472308,-7.125060775772662
1621785167900.694,0.03586696253483332,0.07347177211270513,0.464,-1.236,-6.58,-7.139
1621785167901.81,0.042,0.073,0.464,-1.2646615160676296,-6.560624230209383,-7.121086552457732
1621785167906.538,0.066,0.073,0.469,-1.3860920389654012,-6.478534718556553,-7.045192475646624
1621785167911.261,0.087,0.077,0.466,-1.5073908856790952,-6.396534222691428,-6.969380696450566
1621785167915.957,0.10092903325919413,0.0789898618941706,0.466,-1.628,-6.315,-6.894
1621785167915.981,0.101,0.079,0.466,-1.628292316820886,-6.314754831053451,-6.893429510720528
1621785167920.699,0.098,0.08,0.463,-1.6859354042048205,-6.2664090158282155,-6.780932517600269
1621785167925.411,0.094,0.087,0.464,-1.743503920971182,-6.218125743701589,-6.668581057459467
1621785167930.12,0.084,0.089,0.456,-1.8010396266658115,-6.169869990538352,-6.556293631829626
1621785167931.181,0.08287265839863008,0.08832359503917804,0.456,-1.814,-6.159,-6.531
1621785167934.825,0.079,0.086,0.456,-1.8564702118766678,-6.137644921711732,-6.507485419412918
1621785167939.527,0.061,0.094,0.45,-1.9112723209979745,-6.110089058933222,-6.477143008712986
1621785167944.225,0.054,0.072,0.449,-1.9660260585795584,-6.082557518567341,-6.446827379995499
1621785167946.368,0.04989219968798752,0.06789219968798751,0.44489219968798754,-1.991,-6.07,-6.433
1621785167948.92,0.045,0.063,0.44,-2.012395571099328,-6.06679908778829,-6.439570293487195
1621785167953.61,0.038,0.066,0.429,-2.0517173271874545,-6.060916305381404,-6.451645478427643
1621785167958.297,0.04,0.058,0.422,-2.0910124744145566,-6.0550375038277435,-6.4637124921430535
1621785167961.516,0.04,0.05181340910275794,0.41375121213701055,-2.118,-6.051,-6.472
1621785167962.98,0.04,0.049,0.41,-2.1217783809985455,-6.047124737437389,-6.4701592502827605
1621785167967.659,0.038,0.051,0.4,-2.133855210857974,-6.034738245273873,-6.46427566650509
1621785167972.335,0.037,0.044,0.387,-2.1459244789142025,-6.0223595088059465,-6.458395766682825
1621785167976.626,0.037,0.029305115744369545,0.3750604065423003,-2.157,-6.011,-6.453
1621785167977.007,0.037,0.028,0.374,-2.157,-6.009533346292787,-6.4520138018175635
1621785167981.675,0.037,0.04,0.36,-2.157,-5.991568952390209,-6.439934295572727
1621785167986.339,0.037,0.044,0.349,-2.157,-5.973619591453241,-6.427864897701317
1621785167991.0,0.024,0.051,0.337,-2.157,-5.955682444800829,-6.415803712883316
1621785167991.697,0.022802872267938572,0.05204748676555375,0.3343064626028618,-2.157,-5.953,-6.414
1621785167995.658,0.016,0.058,0.319,-2.151993161921159,-5.932182094303767,-6.424277193951305
1621785168000.311,0.005,0.063,0.305,-2.1461114233274317,-5.907726444361427,-6.436350236327903
1621785168004.961,-0.009,0.066,0.291,-2.140233696623191,-5.883287475433267,-6.44841504377345
1621785168006.728,-0.014706401766004415,0.07018469462840324,0.284532744665195,-2.138,-5.874,-6.453
1621785168009.606,-0.024,0.077,0.274,-2.1266747976746836,-5.870352900946084,-6.464325202325316
1621785168014.249,-0.04,0.079,0.258,-2.108403445636775,-5.864468906222013,-6.482596554363225
1621785168018.887,-0.054,0.086,0.251,-2.0901522691374512,-5.858591408705281,-6.5008477308625485
1621785168021.721,-0.06561717145114564,0.09211430076376087,0.2381599683961022,-2.079,-5.855,-6.512
1621785168023.522,-0.073,0.096,0.23,-2.06599196708464,-5.878607170846395,-6.517901792711599
1621785168028.153,-0.084,0.108,0.23,-2.032543495297806,-5.939309952978057,-6.533077488244514
1621785168032.781,-0.099,0.12,0.222,-1.999117946708464,-5.999971133751306,-6.548242783437827
1621785168036.674,-0.10236839881706801,0.12757889733840305,0.21694740177439797,-1.971,-6.051,-6.561
1621785168037.404,-0.103,0.129,0.216,-1.9700700148967867,-6.056286231113003,-6.569614598850819
1621785168042.024,-0.108,0.143,0.211,-1.9641843600111317,-6.089741532568304,-6.6241343493705696
1621785168046.641,-0.11,0.159,0.208,-1.9583021264753548,-6.123177386350615,-6.678622407386187
1621785168051.253,-0.099,0.164,0.201,-1.952426735639334,-6.156574344786943,-6.733047080393537
1621785168051.588,-0.0979098998887653,0.16479940674823879,0.20020059325176123,-1.952,-6.159,-6.737
1621785168055.862,-0.084,0.175,0.19,-1.952,-6.153253688477508,-6.782108545451561
1621785168060.467,-0.08,0.195,0.182,-1.952,-6.147062626163163,-6.830708384619172
1621785168065.068,-0.066,0.195,0.169,-1.952,-6.140876815518685,-6.879266998178327
1621785168066.464,-0.06296319507143237,0.2041104147857029,0.1665705560571459,-1.952,-6.139,-6.894
1621785168069.665,-0.056,0.225,0.161,-1.9604138912657145,-6.143314816033699,-6.902413891265715
1621785168074.26,-0.047,0.241,0.155,-1.9724921345356414,-6.149508786941355,-6.914492134535641
1621785168078.85,-0.047,0.248,0.145,-1.98455754294741,-6.1556961758704665,-6.9265575429474096
1621785168081.301,-0.044328347881626574,0.2517403129657228,0.14019102618692783,-1.991,-6.159,-6.933
1621785168083.437,-0.042,0.255,0.136,-1.9980722899516639,-6.167371281983602,-6.927371034528267
1621785168088.019,-0.033,0.253,0.133,-2.013243479551941,-6.185329016612501,-6.915296006070904
1621785168092.598,-0.031,0.262,0.115,-2.028404160549021,-6.203274312486596,-6.903229341603841
1621785168096.1,-0.024877507469056766,0.26582655783183956,0.11270406530089629,-2.04,-6.217,-6.894
1621785168097.174,-0.023,0.267,0.112,-2.023556772134103,-6.227040555068556,-6.884032202576868
1621785168101.746,-0.024,0.272,0.105,-1.953556242867303,-6.269784241081028,-6.841598253419559
1621785168106.313,-0.028,0.281,0.105,-1.8836342104827906,-6.312479995368916,-6.799211888655496
1621785168110.861,-0.032982614742698195,0.2969443671766342,0.10101390820584145,-1.814,-6.355,-6.757
1621785168110.877,-0.033,0.297,0.101,-1.8138307544322272,-6.355189727515466,-6.756936398162429
1621785168115.438,-0.037,0.305,0.103,-1.7651869744763422,-6.409720334344993,-6.738656251554803
1621785168119.994,-0.037,0.316,0.099,-1.7165978738577377,-6.4641896445926,-6.720396653233163
1621785168124.548,-0.033,0.312,0.101,-1.668026999684893,-6.518638522646234,-6.702143904340183
1621785168125.582,-0.033454594246457706,0.31290918849291544,0.10145459424645771,-1.657,-6.531,-6.698
1621785168129.097,-0.035,0.316,0.103,-1.6265957729850176,-6.542730764753812,-6.707336731130585
1621785168133.643,-0.028,0.326,0.11,-1.58727111428904,-6.557903270864858,-6.719412807423051
1621785168138.185,-0.023,0.325,0.112,-1.5479823569516271,-6.573061925270632,-6.73147785888887
1621785168140.264,-0.019794051204819276,0.32545799268502584,0.11337397805507746,-1.53,-6.58,-6.737
1621785168142.724,-0.016,0.326,0.115,-1.5365524525659409,-6.58,-6.746912684651039
1621785168147.258,-0.01,0.33,0.113,-1.5486280302777684,-6.58,-6.76518086631765
1621785168151.789,-0.005,0.333,0.119,-1.560695805128547,-6.58,-6.7834372436560075
1621785168154.907,0.0018876065149390575,0.3378213245604574,0.119,-1.569,-6.58,-6.796
1621785168156.316,0.005,0.34,0.119,-1.5794157489262854,-6.576238757332175,-6.796
1621785168160.839,0.017,0.339,0.12,-1.6128540751015223,-6.564163806213339,-6.796
1621785168165.358,0.028,0.337,0.124,-1.6462599141028427,-6.552100586573974,-6.796
1621785168169.516,0.03904658955788563,0.33976164738947146,0.12031780348070478,-1.677,-6.541,-6.796
1621785168169.875,0.04,0.34,0.12,-1.6789216974491334,-6.5414927429356755,-6.793585559615192
1621785168174.387,0.047,0.342,0.124,-1.703081486943988,-6.547687560754869,-6.763230952301143
1621785168178.896,0.066,0.349,0.126,-1.7272255891127275,-6.553878356182751,-6.732896054704522
1621785168183.4,0.068,0.363,0.119,-1.7513422384607649,-6.560062112425837,-6.702595649113398
1621785168184.083,0.06966945107398569,0.36330353655890646,0.11915176827945324,-1.755,-6.561,-6.698
1621785168187.901,0.079,0.365,0.12,-1.7242511974186174,-6.581499201720922,-6.666988387140145
1621785168192.399,0.084,0.386,0.12,-1.6880243181016081,-6.605650454598928,-6.630451876375981
1621785168196.893,0.091,0.396,0.113,-1.6518288993832242,-6.629780733744517,-6.593947095104449
1621785168198.61,0.09291249252189046,0.3979124925218905,0.1137649970087562,-1.638,-6.639,-6.58
1621785168201.382,0.096,0.401,0.115,-1.5985856897307134,-6.654115196656669,-6.572538067473291
1621785168205.868,0.099,0.412,0.112,-1.5348021300259511,-6.678575882174514,-6.560462539179671
1621785168210.351,0.098,0.426,0.11,-1.4710567557547773,-6.703021923763945,-6.548394240167167
1621785168213.098,0.0967734656055816,0.4345857407609288,0.11429287038046441,-1.432,-6.718,-6.541
1621785168214.83,0.096,0.44,0.117,-1.4049088666621612,-6.722675018584848,-6.566892410623775
1621785168219.305,0.093,0.447,0.126,-1.3349224842873555,-6.734752314658377,-6.633782050415625
1621785168223.777,0.075,0.457,0.138,-1.2649781036696628,-6.746822362641075,-6.700631546935189
1621785168227.548,0.06318080454744206,0.4620653694796677,0.15404033668561434,-1.206,-6.757,-6.757
1621785168228.244,0.061,0.463,0.157,-1.214063259186474,-6.762649109729446,-6.792970826909719
1621785168232.708,0.037,0.464,0.176,-1.2657954325986414,-6.798892608467312,-7.023752079556813
1621785168237.169,0.014,0.456,0.202,-1.3174908262320633,-6.835110339336236,-7.254369254747827
1621785168241.625,-0.014,0.442,0.222,-1.3691296355904925,-6.8712884273298656,-7.484734003083335
1621785168241.959,-0.01527506990514831,0.4410249465431219,0.22395010691375625,-1.373,-6.874,-7.502
1621785168246.078,-0.031,0.429,0.248,-1.448941279385786,-6.933033598314989,-7.777394601848076
1621785168250.527,-0.04,0.408,0.257,-1.5309728054083436,-6.996801501562712,-8.074874966027993
1621785168254.972,-0.037,0.384,0.258,-1.612923308194048,-7.060506420709336,-8.372061506318792
1621785168256.332,-0.03057015663643858,0.3745083264633141,0.2549381698268755,-1.638,-7.08,-8.463
1621785168259.414,-0.016,0.353,0.248,-1.7412075214606895,-7.109672162419948,-8.511593541354408
1621785168263.852,0.019,0.339,0.232,-1.8898217740836625,-7.152398760049053,-8.581566085297725
1621785168268.286,0.072,0.314,0.211,-2.0382970431938956,-7.195085399918245,-8.651473191170458
1621785168270.666,0.1063766391184573,0.3027201652892562,0.1986458953168044,-2.118,-7.218,-8.689
1621785168272.717,0.136,0.293,0.188,-2.126465278726602,-7.181412778385026,-8.601764585325864
1621785168277.143,0.202,0.276,0.162,-2.144732989479437,-7.10245911326684,-8.413514277906817
1621785168281.567,0.26,0.258,0.14,-2.1629916313704056,-7.0235446440770595,-8.225357425877851
1621785168284.961,0.2945610739738136,0.25569592840174576,0.12233545108005084,-2.177,-6.963,-8.081
1621785168285.986,0.305,0.255,0.117,-2.142485898248198,-6.9192821377810505,-8.00061090466976
1621785168290.402,0.335,0.253,0.084,-1.9938097676250492,-6.730959038991729,-7.654319417093344
1621785168294.813,0.342,0.26,0.063,-1.8453062486086615,-6.542854581570971,-7.308429970717674
1621785168299.218,0.33700332317917475,0.28298471337579617,0.047010634173359184,-1.697,-6.355,-6.963
1621785168299.221,0.337,0.283,0.047,-1.6968866777699558,-6.354949520097526,-6.962812091138545
1621785168303.626,0.311,0.319,0.033,-1.5264972613794408,-6.279048780069024,-6.680275458869182
1621785168308.027,0.278,0.353,0.028,-1.356258941295651,-6.203215346577154,-6.397989371748425
1621785168312.424,0.243,0.386,0.021,-1.1861811610377568,-6.127453426280455,-6.115969488848062
1621785168313.437,0.23239287500694714,0.3943012282554327,0.021691769021286056,-1.147,-6.11,-6.051
1621785168316.817,0.197,0.422,0.024,-1.0278134028961552,-6.077104499199339,-6.071976841090277
1621785168321.207,0.143,0.454,0.023,-0.8730016874149835,-6.0343764657265355,-6.099223703014963
1621785168325.593,0.098,0.49,0.033,-0.7183363293558552,-5.991688826902217,-6.12644480603337
1621785168327.616,0.07861538461538461,0.5056923076923077,0.03807692307692308,-0.647,-5.972,-6.139
1621785168329.976,0.056,0.524,0.044,-0.599604564444291,-5.955645237026552,-6.271506957152229
1621785168334.354,0.023,0.548,0.054,-0.5116874287884542,-5.925307633877706,-6.517303456133688
1621785168338.729,0.0,0.559,0.063,-0.4238291268169734,-5.8949903324931805,-6.762935469391983
1621785168341.758,-0.00346486818588025,0.572166499106345,0.063,-0.363,-5.874,-6.933
1621785168343.1,-0.005,0.578,0.063,-0.3592885114781344,-5.864673695509158,-6.989052993317406
1621785168347.467,0.003,0.597,0.068,-0.34721148852186556,-5.834326304490841,-7.171447006682594
1621785168351.831,0.019,0.6,0.07,-0.335142567778124,-5.803999272878363,-7.353718655863717
1621785168355.86,0.04672370926195543,0.6036964945682607,0.07184824728413036,-0.324,-5.776,-7.522
1621785168356.191,0.049,0.604,0.072,-0.32214164438734766,-5.767014027290719,-7.52430530189924
1621785168360.547,0.075,0.6,0.07,-0.29767032394708515,-5.648684351237804,-7.55466212978716
1621785168364.899,0.105,0.623,0.065,-0.2732236901496476,-5.530474046040068,-7.584988333738412
1621785168369.249,0.122,0.611,0.072,-0.24878665671330857,-5.412310162841568,-7.6153026283809595
1621785168369.923,0.12556818564926672,0.611,0.07106916896106084,-0.245,-5.394,-7.62
1621785168373.594,0.145,0.611,0.066,-0.18087780678851173,-5.283552793733682,-7.5634677806788515
1621785168377.935,0.155,0.618,0.063,-0.10504934725848564,-5.152942140992168,-7.496614934725849
1621785168382.273,0.162,0.609,0.066,-0.029276327241079175,-5.022426979982594,-7.429810966057441
1621785168383.949,0.162,0.6078395875591616,0.066,0.0,-4.972,-7.404
1621785168386.606,0.162,0.606,0.066,0.06895067632428659,-4.951485749192774,-7.338848259010385
1621785168390.937,0.164,0.595,0.065,0.18134477703115454,-4.918046182040317,-7.232646670739157
1621785168395.264,0.166,0.585,0.065,0.2936311720045379,-4.884638659568898,-7.126546854001222
1621785168397.937,0.16167062079873468,0.5726303451392419,0.06994786194430322,0.363,-4.864,-7.061
1621785168399.586,0.159,0.565,0.073,0.3803819219524151,-4.888358339606786,-7.036641660393214
1621785168403.905,0.147,0.546,0.07,0.4259110278541291,-4.952161032230957,-6.972838967769044
1621785168408.22,0.133,0.517,0.07,0.4713963829898983,-5.015902414257953,-6.909097585742048
1621785168411.882,0.12111006681010078,0.49916510021515115,0.06660287623145737,0.51,-5.07,-6.855
1621785168412.532,0.119,0.496,0.066,0.5155147737846522,-5.094302392949315,-6.860047420074089
1621785168416.84,0.11,0.459,0.065,0.5520713846802086,-5.255399322319564,-6.893506013097141
1621785168421.145,0.093,0.435,0.056,0.5886010639231728,-5.416377569830931,-6.92693995681104
1621785168425.445,0.082,0.424,0.059,0.6250893098544568,-5.577173229867097,-6.960335978510859
1621785168425.788,0.08184034090909091,0.4224832386363636,0.058361363636363635,0.628,-5.59,-6.963
1621785168429.742,0.08,0.405,0.051,0.5943572346530993,-5.732554090452969,-7.105554090452969
1621785168434.035,0.089,0.387,0.042,0.5578290231149763,-5.887334647817897,-7.260334647817897
1621785168438.325,0.093,0.363,0.028,0.5213257398376846,-6.0420095769589635,-7.415009576958964
1621785168439.656,0.09765929808568824,0.3592725615314494,0.022098222424794894,0.51,-6.09,-7.463
1621785168442.61,0.108,0.351,0.009,0.4826592289224686,-6.167536717977686,-7.527934331309138
1621785168446.892,0.131,0.333,-0.003,0.4430286682671939,-6.279926511086005,-7.622056912865415
1621785168451.17,0.173,0.333,-0.026,0.40343652026549925,-6.392207368309561,-7.716088264369439
1621785168453.486,0.19250385471989034,0.32758226257780826,-0.03846079607104106,0.382,-6.453,-7.767
1621785168455.445,0.209,0.323,-0.049,0.34861579590319214,-6.465501318980933,-7.740576757608484
1621785168459.715,0.239,0.319,-0.068,0.27584788343395356,-6.492750579820477,-7.68298172901581
1621785168463.983,0.26,0.311,-0.093,0.20311741585963916,-6.519985818741922,-7.625416337659119
1621785168467.276,0.2762208223571183,0.30404821898980644,-0.10999324246936204,0.147,-6.541,-7.581
1621785168468.246,0.281,0.302,-0.115,0.1359228939192188,-6.529217345761207,-7.563643515312917
1621785168472.506,0.291,0.304,-0.133,0.08728564580559253,-6.477482183754994,-7.48743483355526
1621785168476.761,0.3,0.323,-0.155,0.038706932978251216,-6.425809285397248,-7.411317869507323
1621785168481.013,0.305,0.332,-0.176,-0.009838331114070148,-6.374171966267199,-7.335253315579227
1621785168481.027,0.30497667738970585,0.3320033318014706,-0.17606330422794117,-0.01,-6.374,-7.335
1621785168485.263,0.298,0.333,-0.195,0.008222194531472516,-6.2560190116775845,-7.304732626032469
1621785168489.507,0.278,0.342,-0.208,0.026480098262603252,-6.137806821418399,-7.274405938479066
1621785168493.748,0.271,0.347,-0.222,0.044724348476217604,-6.019683031899744,-7.2441019296496725
1621785168494.742,0.271,0.347,-0.22481421740883692,0.049,-5.992,-7.237
1621785168497.986,0.271,0.347,-0.234,0.11423842679378003,-5.915137271704783,-7.1812507989216785
1621785168502.219,0.267,0.354,-0.241,0.19936063056790393,-5.814847838894543,-7.108510006605609
1621785168506.45,0.26,0.347,-0.248,0.2844435577455234,-5.7146046810561835,-7.035802777926553
1621785168508.417,0.26,0.3479309069901791,-0.2470690930098209,0.324,-5.668,-7.002
1621785168510.676,0.26,0.349,-0.246,0.35150072511771974,-5.622607236853884,-6.9516372262904405
1621785168514.898,0.248,0.347,-0.251,0.40289703328379856,-5.537772366748429,-6.857513866757381
1621785168519.117,0.222,0.344,-0.248,0.4542576764005515,-5.452996365459331,-6.763455821531521
1621785168522.053,0.19622751230813784,0.33912412395018826,-0.24173101650738488,0.49,-5.394,-6.698
1621785168523.332,0.185,0.337,-0.239,0.49921945087898867,-5.386567993679183,-6.683230063387743
1621785168527.543,0.15,0.326,-0.232,0.5295720160175259,-5.362100109536892,-6.634604015155596
1621785168531.751,0.113,0.318,-0.23,0.5599034638797608,-5.337649248505091,-6.5860117976620165
1621785168535.649,0.08240313588850175,0.30594668989547036,-0.22072822299651568,0.588,-5.315,-6.541
1621785168535.955,0.08,0.305,-0.22,0.5889032304534159,-5.318996794756366,-6.543664529837577
1621785168540.155,0.058,0.297,-0.222,0.6012941981488817,-5.373826826808802,-6.580217884539201
1621785168544.352,0.042,0.291,-0.213,0.6136765224907264,-5.428618612021465,-6.616745741347643
1621785168548.544,0.017,0.278,-0.204,0.626043720963734,-5.4833434652645225,-6.653228976843015
1621785168549.207,0.014309637571378628,0.2748348677310337,-0.204,0.628,-5.492,-6.659
1621785168552.734,0.0,0.258,-0.204,0.6227823888467512,-5.517566294650919,-6.704914978148589
1621785168556.919,-0.014,0.257,-0.206,0.6165910355040272,-5.5479039260302665,-6.7593988875645605
1621785168561.101,-0.033,0.246,-0.206,0.6104040163253512,-5.578220320005779,-6.813844656336909
1621785168562.726,-0.03727938511894324,0.23860833479455257,-0.20677807002162604,0.608,-5.59,-6.835
1621785168565.278,-0.044,0.227,-0.208,0.6117869072202297,-5.604768938158895,-6.85923620620947
1621785168569.453,-0.047,0.211,-0.208,0.6179818860268811,-5.6289293555048365,-6.89888407057204
1621785168573.624,-0.054,0.195,-0.215,0.624171430641597,-5.653068579502228,-6.93849715610622
1621785168576.204,-0.05276136896390061,0.18880684481950305,-0.21933520862634787,0.628,-5.668,-6.963
1621785168577.79,-0.052,0.185,-0.222,0.6615100810113707,-5.67496160133687,-6.963
1621785168581.953,-0.061,0.176,-0.23,0.7494688850946344,-5.693234733171068,-6.963
1621785168586.113,-0.068,0.159,-0.23,0.8373709448904711,-5.711496076579358,-6.963
1621785168589.645,-0.07990069921852049,0.1513495505023797,-0.22914995005581998,0.912,-5.727,-6.963
1621785168590.268,-0.082,0.15,-0.229,0.9256676928682029,-5.730207723836415,-6.957979214864742
1621785168594.421,-0.096,0.138,-0.227,1.0167677930594772,-5.7515883595955914,-6.924513871937335
1621785168598.569,-0.117,0.124,-0.223,1.1077661353493031,-5.772945113398306,-6.891085909463522
1621785168602.713,-0.147,0.119,-0.22,1.1986680754167045,-5.794279242189635,-6.857693360051007
1621785168603.047,-0.1486949062610541,0.11795077231458553,-0.2194350312463153,1.206,-5.796,-6.855
1621785168606.854,-0.168,0.106,-0.213,1.2703797361978881,-5.868640852789653,-6.896875315137565
1621785168610.991,-0.195,0.105,-0.201,1.3403415543132742,-5.947580072344624,-6.942381453469253
1621785168615.125,-0.213,0.103,-0.188,1.4102538273228835,-6.026463389235997,-6.987855365559574
1621785168616.411,-0.2179829706717124,0.10144282166508987,-0.1842627719962157,1.432,-6.051,-7.002
1621785168619.254,-0.229,0.098,-0.176,1.4110941232505312,-6.103264691873672,-7.064717630248406
1621785168623.38,-0.239,0.093,-0.169,1.3807541217850077,-6.179114695537481,-7.155737634644977
1621785168627.502,-0.25,0.084,-0.162,1.3504428445812267,-6.254892888546934,-7.24667146625632
1621785168629.738,-0.2505428520625889,0.06988584637268848,-0.15765718349928876,1.334,-6.296,-7.296
1621785168631.621,-0.251,0.058,-0.154,1.310332230858277,-6.330722176285762,-7.339083843228047
1621785168635.736,-0.257,0.047,-0.148,1.2586117266596843,-6.406599562684894,-7.4332337430865625
1621785168639.847,-0.248,0.035,-0.145,1.2069433879058487,-6.4824004189405215,-7.527288683093545
1621785168643.025,-0.23175099566070262,0.017203471437912385,-0.14190495155441954,1.167,-6.541,-7.6
1621785168643.954,-0.227,0.012,-0.141,1.1477147331957547,-6.5520101341391515,-7.604137566332547
1621785168648.058,-0.197,-0.002,-0.138,1.0625372936320754,-6.600638708726415,-7.622411998820755
1621785168652.158,-0.162,-0.023,-0.138,0.9774459942511793,-6.649218105100236,-7.640667950324292
1621785168656.254,-0.12,-0.045,-0.134,0.8924357679834906,-6.697751216096698,-7.658906507959905
1621785168656.275,-0.11984097822845213,-0.04517954070981211,-0.13403077840739636,0.892,-6.698,-7.659
1621785168660.347,-0.089,-0.08,-0.14,0.8164722201685642,-6.679811677509981,-7.528907252698507
1621785168664.435,-0.063,-0.106,-0.147,0.7406455714919414,-6.66155138252255,-7.3982997190595885
1621785168668.52,-0.051,-0.133,-0.155,0.6648777909211888,-6.643305263936123,-7.267793582729558
1621785168669.484,-0.048402631578947364,-0.13913923444976078,-0.15381937799043063,0.647,-6.639,-7.237
1621785168672.602,-0.04,-0.159,-0.15,0.6559992411924119,-6.596080542005421,-7.117240867208672
1621785168676.68,-0.038,-0.18,-0.15,0.6677682926829269,-6.539951219512195,-6.960621951219512
1621785168680.754,-0.044,-0.192,-0.145,0.6795260704607047,-6.48387566395664,-6.804153062330624
1621785168682.997,-0.050416841265090294,-0.19658345804649308,-0.145,0.686,-6.453,-6.718
1621785168685.648,-0.058,-0.202,-0.145,0.6828673297395794,-6.430246921266419,-6.661282180548174
1621785168690.624,-0.073,-0.215,-0.143,0.676986865082378,-6.387536177966745,-6.554814820438843
1621785168695.601,-0.091,-0.216,-0.147,0.6711052463746109,-6.344817052615595,-6.448326565940323
1621785168699.075,-0.09937944741620454,-0.22368116013152084,-0.14281027629189771,0.667,-6.315,-6.374
1621785168700.576,-0.103,-0.227,-0.141,0.665132413918802,-6.3187351721623966,-6.370358207141663
1621785168705.552,-0.12,-0.23,-0.138,0.6589409468552074,-6.331118106289586,-6.3582848463676545
1621785168710.527,-0.129,-0.232,-0.143,0.6527506948768967,-6.343498610246207,-6.346213855009949
1621785168715.149,-0.13736133876429307,-0.232,-0.144858075280954,0.647,-6.355,-6.335
1621785168715.502,-0.138,-0.232,-0.145,0.6431345706951807,-6.356295797323775,-6.335856543993682
1621785168720.479,-0.145,-0.243,-0.152,0.5886389677850514,-6.3745642096629656,-6.347932274183994
1621785168725.453,-0.147,-0.243,-0.155,0.5341781163140388,-6.392820972371998,-6.36000030377132
1621785168730.428,-0.14,-0.257,-0.161,0.4797038989049044,-6.4110822157080145,-6.372071295129026
1621785168731.223,-0.14,-0.25859780155069195,-0.1611597801550692,0.471,-6.414,-6.374
1621785168735.403,-0.14,-0.267,-0.162,0.4020760887727666,-6.447031459342862,-6.379201804620923
1621785168740.379,-0.134,-0.286,-0.169,0.32003320624022114,-6.486350123801857,-6.385393720283757
1621785168745.353,-0.127,-0.309,-0.176,0.23801850192158708,-6.525655283984749,-6.391583509288937
1621785168747.295,-0.12231497570313651,-0.31915088597653757,-0.18302753644529524,0.206,-6.541,-6.394
1621785168750.327,-0.115,-0.335,-0.194,0.17260696978443496,-6.548357786318684,-6.390226776246829
1621785168755.302,-0.099,-0.37,-0.201,0.11781325292053411,-6.560430978170052,-6.38403539581023
1621785168760.276,-0.087,-0.403,-0.213,0.06303298038798669,-6.572501207711122,-6.3778455345071166
1621785168763.366,-0.07954666797526744,-0.41728555304740406,-0.22045333202473255,0.029,-6.58,-6.374
1621785168765.251,-0.075,-0.426,-0.225,0.03591940457203615,-6.577771717171717,-6.378691121743753
1621785168770.225,-0.073,-0.449,-0.232,0.05417817270448849,-6.571891774891775,-6.391069947596263
1621785168775.198,-0.061,-0.469,-0.239,0.0724324599377231,-6.566013275613275,-6.403445735550998
1621785168779.439,-0.058442181211347796,-0.4869047315205654,-0.25093648768037696,0.088,-6.561,-6.414
1621785168780.172,-0.058,-0.49,-0.253,0.08977927168315027,-6.5596313294745,-6.4175585433663
1621785168785.145,-0.051,-0.51,-0.264,0.10184786472813454,-6.550347796362973,-6.441695729456269
1621785168790.119,-0.042,-0.529,-0.271,0.11391882776537077,-6.541062440180484,-6.465837655530741
1621785168795.093,-0.028,-0.548,-0.281,0.12599038330066997,-6.531776628230253,-6.48998076660134
1621785168795.509,-0.0264941823359026,-0.5501750699592518,-0.28175290883204873,0.127,-6.531,-6.492
1621785168800.066,-0.01,-0.574,-0.29,0.1437302462665026,-6.539506904881272,-6.505894611306078
1621785168805.039,-0.005,-0.592,-0.3,0.16198875772906127,-6.54879089376054,-6.521058459808882
1621785168810.011,0.016,-0.613,-0.302,0.1802427874755025,-6.558072603801103,-6.536218586208468
1621785168811.579,0.022937306691541065,-0.6211986351809121,-0.3042073248563994,0.186,-6.561,-6.541
1621785168814.984,0.038,-0.639,-0.309,0.17773538975839537,-6.561,-6.541
1621785168819.958,0.066,-0.665,-0.314,0.16566144962771615,-6.561,-6.541
1621785168824.93,0.082,-0.693,-0.323,0.1535928430329737,-6.561,-6.541
1621785168827.646,0.09128631051752922,-0.7093876067956397,-0.3257312677992733,0.147,-6.561,-6.541
1621785168829.902,0.099,-0.723,-0.328,0.14419182557167817,-6.551311798222289,-6.5519518802704555
1621785168834.875,0.117,-0.744,-0.337,0.13800205120413278,-6.5299570766542585,-6.576092000303882
1621785168839.847,0.124,-0.764,-0.342,0.1318134923649624,-6.50860654865912,-6.600227379776647
1621785168843.714,0.12011116566827064,-0.7795553373269174,-0.35055543552980456,0.127,-6.492,-6.619
1621785168844.819,0.119,-0.784,-0.353,0.11895298301066773,-6.507543810594779,-6.642659605507096
1621785168849.791,0.099,-0.798,-0.372,0.08274496246542867,-6.577484089596693,-6.749117375315321
1621785168854.762,0.075,-0.806,-0.389,0.04654405373370209,-6.64741063124943,-6.855554235176124
1621785168859.735,0.045,-0.81,-0.415,0.010327143421572496,-6.717368081937817,-6.962038142418624
1621785168859.78,0.04467467216737881,-0.810018073768479,-0.41516266391631057,0.01,-6.718,-6.963
1621785168864.706,0.009,-0.812,-0.433,0.08819591780905194,-6.8832847047022705,-7.335887200218852
1621785168869.677,-0.014,-0.799,-0.45,0.16710492720143472,-7.050076689261072,-7.712174868537038
1621785168874.648,-0.031,-0.78,-0.466,0.24601393659381746,-7.216868673819873,-8.088462536855223
1621785168875.844,-0.03027817887137174,-0.7725411816708413,-0.4664812140857522,0.265,-7.257,-8.179
1621785168879.619,-0.028,-0.749,-0.468,0.265,-7.3467778385772915,-8.407204924760602
1621785168884.59,-0.016,-0.73,-0.478,0.265,-7.465006809545524,-8.707729350965193
1621785168889.562,0.002,-0.717,-0.49,0.265,-7.583253199574403,-9.008298054415565
1621785168891.906,0.018978729675295965,-0.719829788279216,-0.49613120793830134,0.265,-7.639,-9.15
1621785168894.532,0.038,-0.723,-0.503,0.3644078983370322,-7.639,-9.130707019730641
1621785168899.503,0.101,-0.731,-0.51,0.5525860517435321,-7.639,-9.094185601799776
1621785168904.473,0.182,-0.737,-0.517,0.7407272367981029,-7.639,-9.057671358647736
1621785168907.967,0.24315037815538748,-0.7489489244671447,-0.5127827325410078,0.873,-7.639,-9.032
1621785168909.444,0.269,-0.754,-0.511,0.9370279784079678,-7.561448870980005,-8.965212194936516
1621785168914.414,0.339,-0.759,-0.496,1.1524688968296206,-7.300505344788261,-8.740485030031172
1621785168919.384,0.387,-0.759,-0.478,1.3679098152512734,-7.0395618185965185,-8.515757865125826
1621785168924.023,0.4196686152183524,-0.7571332219875228,-0.46026560888146584,1.569,-6.796,-8.306
1621785168924.354,0.422,-0.757,-0.459,1.5532277634179716,-6.7749703512239625,-8.28558887030561
1621785168929.323,0.424,-0.766,-0.454,1.3164930059297553,-6.45932400790634,-7.9792262429679175
1621785168934.294,0.41,-0.78,-0.447,1.079665196898282,-6.143553595864375,-7.672743195986011
1621785168939.263,0.394,-0.798,-0.442,0.8429304394100654,-5.827907252546754,-7.36638056864832
1621785168940.08,0.3877522228226163,-0.7991509063221497,-0.4428220759443926,0.804,-5.776,-7.316
1621785168944.233,0.356,-0.805,-0.447,0.6746680251212726,-5.603471145511778,-7.161318958045042
1621785168949.202,0.314,-0.812,-0.443,0.5199182494183483,-5.397034944724076,-6.9762382263043445
1621785168954.171,0.278,-0.817,-0.45,0.36516847371542405,-5.190598743936375,-6.791157494563647
1621785168956.135,0.25982188820119856,-0.8181855290303566,-0.44604823656547793,0.304,-5.109,-6.718
1621785168959.141,0.232,-0.82,-0.44,0.19744177097750537,-5.022667234482654,-6.703205447991604
1621785168964.109,0.199,-0.824,-0.442,0.02134765547764983,-4.879996958128641,-6.678756528616405
1621785168969.078,0.169,-0.808,-0.445,-0.15478973064229112,-4.737291624207212,-6.654301601545271
1621785168972.187,0.15585758513931888,-0.8023675364882795,-0.4481291463954003,-0.265,-4.648,-6.639
1621785168974.046,0.148,-0.799,-0.45,-0.32741837898675263,-4.619628009551476,-6.612944090404417
1621785168979.015,0.117,-0.792,-0.461,-0.49426908394044017,-4.543786780027072,-6.5432939816575155
1621785168983.984,0.087,-0.782,-0.475,-0.6611197888941276,-4.467945550502669,-6.473643872910614
1621785168988.239,0.06216138385178633,-0.782,-0.4809955280357757,-0.804,-4.403,-6.414
1621785168988.952,0.058,-0.782,-0.482,-0.804,-4.4113054224655865,-6.4035182903642855
1621785168993.92,0.014,-0.771,-0.478,-0.804,-4.469184546353334,-6.330472978933759
1621785168998.887,-0.023,-0.771,-0.475,-0.804,-4.527052292950034,-6.257442026009582
1621785169003.855,-0.068,-0.773,-0.464,-0.804,-4.584931416837782,-6.184396714579055
1621785169004.29,-0.0721150690315924,-0.7725622266987668,-0.4626866800963003,-0.804,-4.59,-6.178
1621785169008.824,-0.115,-0.768,-0.449,-0.7542852536314549,-4.736602007757244,-6.211331477678911
1621785169013.791,-0.162,-0.754,-0.435,-0.699821492128679,-4.897208213552362,-6.247846954140999
1621785169018.758,-0.188,-0.74,-0.414,-0.6453577306259031,-5.057814419347479,-6.284362430603088
1621785169020.341,-0.19915239078087377,-0.7323526463216865,-0.4076272052680721,-0.628,-5.109,-6.296
1621785169023.726,-0.223,-0.716,-0.394,-0.5678879609346477,-5.2663458987465015,-6.449127510040161
1621785169028.692,-0.251,-0.691,-0.361,-0.47970340452719973,-5.497172842886698,-6.673766064257029
1621785169033.66,-0.274,-0.663,-0.335,-0.3914798284045272,-5.728101922842887,-6.8985040160642574
1621785169036.39,-0.2789465716392234,-0.6514579995084787,-0.31851142786925535,-0.343,-5.855,-7.022
1621785169038.627,-0.283,-0.642,-0.305,-0.3102376569037657,-5.946595146443515,-7.161414225941423
1621785169043.594,-0.276,-0.606,-0.276,-0.23749402814758463,-6.149967759604412,-7.470961582350704
1621785169048.56,-0.25,-0.579,-0.246,-0.16476470140737923,-6.35330038798022,-7.780448079117535
1621785169052.436,-0.21800609486360284,-0.5657342344556402,-0.22415050380928975,-0.108,-6.512,-8.022
1621785169053.527,-0.209,-0.562,-0.218,-0.10534829905063291,-6.567957689264849,-8.04797307083739
1621785169058.494,-0.169,-0.543,-0.185,-0.09327709651898734,-6.822691014483934,-8.16620895204479
1621785169063.46,-0.124,-0.538,-0.147,-0.08120767405063291,-7.07738677580331,-8.284427397760467
1621785169068.426,-0.077,-0.513,-0.11,-0.06913825158227849,-7.332082537122687,-8.402645843476144
1621785169068.483,-0.07625544466840371,-0.5127823607492257,-0.10959908559067892,-0.069,-7.335,-8.404
1621785169073.392,-0.012,-0.494,-0.075,-0.08674811297784271,-7.362234173362552,-8.485090516191867
1621785169078.358,0.056,-0.471,-0.044,-0.1047009982955929,-7.389782566350134,-8.567116630143657
1621785169083.324,0.108,-0.457,-0.017,-0.12265476625273922,-7.417332313732652,-8.649146776844413
1621785169084.526,0.12034562619855436,-0.457,-0.010706151349756603,-0.127,-7.424,-8.669
1621785169088.289,0.159,-0.457,0.009,-0.1593720038350911,-7.308821348673698,-8.597687759667625
1621785169093.255,0.183,-0.459,0.037,-0.20208943980276675,-7.1568339496872575,-8.50358558188376
1621785169098.221,0.218,-0.464,0.065,-0.24480897593936904,-7.004839078360651,-8.40947877764081
1621785169100.568,0.2369093769975906,-0.4682546098244579,0.07161828194915672,-0.265,-6.933,-8.365
1621785169103.186,0.258,-0.473,0.079,-0.29862209470463785,-6.819403019832874,-8.253035160352518
1621785169108.151,0.302,-0.476,0.084,-0.3623858658427069,-6.6039681425896894,-8.040695611805354
1621785169113.115,0.335,-0.482,0.099,-0.4261402304449078,-6.388565046652156,-7.82838738793589
1621785169116.608,0.3596223631804101,-0.4855174804543443,0.10814544918129518,-0.471,-6.237,-7.679
1621785169118.08,0.37,-0.487,0.112,-0.45750904054547664,-6.190194630463899,-7.587132990381104
1621785169123.046,0.391,-0.483,0.117,-0.4120022220869353,-6.032313831730184,-7.277253226591989
1621785169128.01,0.4,-0.469,0.124,-0.36651106477535617,-5.874487367587971,-6.967480107755996
1621785169132.649,0.3934585648945065,-0.45124467614223185,0.1389518516696995,-0.324,-5.727,-6.678
1621785169132.974,0.393,-0.45,0.14,-0.32935298057602147,-5.7124820678317,-6.664881142300432
1621785169137.938,0.37,-0.436,0.159,-0.41106229068988615,-5.490876514644097,-6.464631431528953
1621785169142.903,0.339,-0.415,0.157,-0.49279169457468186,-5.269216464714121,-6.264332475796139
1621785169147.867,0.311,-0.38,0.155,-0.5745010046885466,-5.047610911526518,-6.0640827650246605
1621785169148.687,0.3075308119805243,-0.3763656125510254,0.15483480057050114,-0.588,-5.011,-6.031
1621785169152.831,0.29,-0.358,0.154,-0.6133235294117647,-4.947691176470588,-5.856060924369748
1621785169157.794,0.241,-0.333,0.161,-0.643650895140665,-4.871872762148338,-5.6465545305078555
1621785169162.758,0.166,-0.305,0.169,-0.6739857203751066,-4.796035699062234,-5.436996605163805
1621785169164.724,0.13074237504919323,-0.2943038665879575,0.17335768398268397,-0.686,-4.766,-5.354
1621785169167.721,0.077,-0.278,0.18,-0.7613136275748672,-4.758711584428239,-5.337554344350898
1621785169172.685,-0.016,-0.258,0.185,-0.8860673538053987,-4.746638643180123,-5.31031283589361
1621785169177.648,-0.082,-0.239,0.19,-1.0107904023872234,-4.734568670736721,-5.283078026277728
1621785169180.76,-0.12463839834718873,-0.2226970829848984,0.1887459294603768,-1.089,-4.727,-5.266
1621785169182.611,-0.15,-0.213,0.188,-1.1240959725923105,-4.747318720974496,-5.314718751427484
1621785169187.574,-0.208,-0.19,0.194,-1.2181913208983632,-4.801794975256947,-5.445337952036543
1621785169192.537,-0.262,-0.176,0.197,-1.312291298058622,-4.8562739094023595,-5.575963578226113
1621785169196.794,-0.3066021251475797,-0.1597030696576151,0.19442680047225502,-1.393,-4.903,-5.688
1621785169197.5,-0.314,-0.157,0.194,-1.3990331653241157,-4.9163874617411025,-5.7112959449376435
1621785169202.463,-0.372,-0.147,0.202,-1.441440559760016,-5.01048854136529,-5.875044205204732
1621785169207.425,-0.421,-0.131,0.208,-1.4838416957256628,-5.104575733581033,-6.038768299553836
1621785169212.387,-0.461,-0.122,0.211,-1.5262407455345586,-5.198658296660627,-6.202484338596945
1621785169212.827,-0.4643683899847509,-0.12049308869103251,0.21179777657533572,-1.53,-5.207,-6.217
1621785169217.35,-0.499,-0.105,0.22,-1.5353612299913189,-5.3480849997715465,-6.408029089690674
1621785169222.312,-0.517,-0.087,0.22,-1.541242464856303,-5.502854338323764,-6.617586774090376
1621785169227.274,-0.529,-0.063,0.225,-1.5471236997212872,-5.65762367687598,-6.827144458490078
1621785169228.857,-0.5277239360393604,-0.05502460024600246,0.2272331119311193,-1.549,-5.707,-6.894
1621785169232.236,-0.525,-0.038,0.232,-1.5574315367863178,-5.8145020940255545,-7.026375127545193
1621785169237.197,-0.506,-0.024,0.236,-1.5698098929381843,-5.97232613496185,-7.220715319129495
1621785169242.159,-0.485,-0.016,0.234,-1.5821906857743326,-6.13018124362274,-7.415093766657022
1621785169244.888,-0.4707009594095941,-0.004450774907749077,0.234,-1.589,-6.217,-7.522
1621785169247.121,-0.459,0.005,0.234,-1.617696252074989,-6.25809414738894,-7.572566696617578
1621785169252.082,-0.422,0.024,0.234,-1.6814447862571007,-6.349384524008954,-7.684900278695765
1621785169257.043,-0.372,0.051,0.23,-1.7451933204392123,-6.440674900628968,-7.797233860773952
1621785169260.919,-0.32980153573538096,0.06272179562906084,0.2221854695806261,-1.795,-6.512,-7.885
1621785169262.003,-0.318,0.066,0.22,-1.811565398145187,-6.5165977431586635,-7.878306226871945
1621785169266.965,-0.26,0.086,0.213,-1.8873968660057563,-6.537644844442414,-7.847664123532367
1621785169271.926,-0.199,0.108,0.201,-1.9632096791386846,-6.558686768087472,-7.817029558225593
1621785169276.886,-0.148,0.124,0.182,-2.0390075684895,-6.5797245496215755,-7.786401023345059
1621785169276.951,-0.14738462295727506,0.12427495569994093,0.18173813742862768,-2.04,-6.58,-7.786
1621785169281.846,-0.101,0.145,0.162,-2.0250343503892028,-6.511280180358585,-7.669329017319908
1621785169286.808,-0.063,0.168,0.14,-2.0098634362575596,-6.441617819550018,-7.551057809191585
1621785169291.768,-0.031,0.208,0.124,-1.994699239873871,-6.371986305543285,-7.432838972077932
1621785169292.978,-0.02807265209686946,0.21556231541642054,0.12107265209686946,-1.991,-6.355,-7.404
1621785169296.728,-0.019,0.239,0.112,-1.963386727200707,-6.3091338858588015,-7.252595021176758
1621785169301.688,-0.017,0.26,0.099,-1.926863859349767,-6.248468783326731,-7.0523382796550775
1621785169306.647,-0.031,0.29,0.089,-1.890348182455285,-6.187815625095219,-6.8521209665133
1621785169309.003,-0.03764993108879701,0.2956999409332546,0.08472504430005906,-1.873,-6.159,-6.757
1621785169311.607,-0.045,0.302,0.08,-1.788507822616273,-6.174923525737702,-6.672507822616272
1621785169316.567,-0.066,0.312,0.08,-1.627571850768551,-6.205253766585927,-6.511571850768551
1621785169321.526,-0.091,0.33,0.087,-1.4666675654677575,-6.235578035738769,-6.350667565467758
1621785169325.029,-0.10795347806823216,0.33494476443656773,0.09194476443656771,-1.353,-6.257,-6.237
1621785169326.485,-0.115,0.337,0.094,-1.3512738323736404,-6.278349968010237,-6.240543186180422
1621785169331.444,-0.136,0.335,0.101,-1.3453949060110288,-6.351063004600433,-6.252610456082625
1621785169336.404,-0.145,0.332,0.105,-1.3395148219236512,-6.423790360418,-6.264680102367242
1621785169341.056,-0.14781419850334776,0.332,0.105,-1.334,-6.492,-6.276
1621785169341.363,-0.148,0.332,0.105,-1.3409584311096212,-6.494434492426782,-6.28522040045104
1621785169346.322,-0.133,0.325,0.103,-1.4533110962118674,-6.533742449638862,-6.4340954194983695
1621785169351.28,-0.113,0.311,0.087,-1.5656416359369763,-6.5730426660165175,-6.582941120897205
1621785169356.239,-0.084,0.304,0.075,-1.6779943010392224,-6.612350623228598,-6.7318161399445335
1621785169357.078,-0.07655691217014574,0.30180090586845215,0.07178593934619928,-1.697,-6.619,-6.757
1621785169361.198,-0.04,0.291,0.056,-1.7901011612667257,-6.619,-6.8652751074400316
1621785169366.156,-0.002,0.283,0.04,-1.9021359078301687,-6.619,-6.995569660763815
1621785169371.114,0.045,0.264,0.024,-2.0141706543936118,-6.619,-7.125864214087597
1621785169373.098,0.059805101437857,0.25599724246602323,0.01639738034272208,-2.059,-6.619,-7.178
1621785169376.072,0.082,0.244,0.005,-2.0463734719385425,-6.602659787214583,-7.159802944852605
1621785169381.029,0.115,0.229,-0.002,-2.0253285675090695,-6.5754252050117366,-7.12947352376307
1621785169385.988,0.138,0.223,-0.009,-2.0042753711550776,-6.5481798920830405,-7.099132152547023
1621785169389.115,0.14241568163908588,0.2141686367218282,-0.014046493301812452,-1.991,-6.531,-7.08
1621785169390.945,0.145,0.209,-0.017,-1.9450683474072494,-6.532142578422705,-7.015101545590342
1621785169395.903,0.15,0.206,-0.016,-1.8206313142090662,-6.535238027009725,-6.839280065847635
1621785169400.86,0.133,0.202,-0.005,-1.696218790964241,-6.538332865896412,-6.663493217083803
1621785169405.132,0.12179879850305297,0.20372326176876107,0.0010314161906637776,-1.589,-6.541,-6.512
1621785169405.818,0.12,0.204,0.002,-1.5658692550418438,-6.5502522979832625,-6.491396503102086
1621785169410.775,0.098,0.213,0.01,-1.398743449032789,-6.617102620386884,-6.342530738860687
1621785169415.731,0.073,0.227,0.026,-1.2316423377692414,-6.683943064892303,-6.193686971235194
1621785169420.688,0.045,0.237,0.04,-1.0645083001783509,-6.750796679928659,-6.044813874788494
1621785169421.148,0.04370094562647754,0.23894858156028367,0.04102068557919622,-1.049,-6.757,-6.031
1621785169425.645,0.031,0.258,0.051,-0.9085993780298179,-6.831412329644197,-6.014432726607518
1621785169430.602,0.023,0.283,0.063,-0.7538385621512851,-6.913435562059819,-5.996170950333852
1621785169435.558,0.026,0.311,0.077,-0.5991082350071648,-6.995442635446203,-5.977912771730846
1621785169437.163,0.02891472486329376,0.32233504113503125,0.0802385831814375,-0.549,-7.022,-5.972
1621785169440.514,0.035,0.346,0.087,-0.4977350022106018,-7.0506665497842755,-6.031634793346852
1621785169445.47,0.063,0.379,0.094,-0.42191136249294897,-7.093065891177412,-6.119837802814325
1621785169450.427,0.094,0.417,0.106,-0.3460727821566326,-7.135473587120577,-6.208058192185142
1621785169453.177,0.11231093596059114,0.4375304433497537,0.10710975369458128,-0.304,-7.159,-6.257
1621785169455.383,0.127,0.454,0.108,-0.304,-7.172501989784249,-6.29213272852024
1621785169460.338,0.155,0.485,0.131,-0.304,-7.202827674010825,-6.3710413966608215
1621785169465.294,0.169,0.524,0.159,-0.304,-7.2331608294579555,-6.449969505222231
1621785169469.189,0.15563950738916257,0.5412900492610838,0.19593783251231528,-0.304,-7.257,-6.512
1621785169470.25,0.152,0.546,0.206,-0.3468813993564424,-7.251764094978116,-6.5801993198420075
1621785169475.205,0.112,0.553,0.253,-0.5471393103868971,-7.2273122016683695,-6.898692968142376
1621785169480.16,0.038,0.531,0.29,-0.747387354551416,-7.202861513122779,-7.217170924008357
1621785169485.115,-0.028,0.511,0.319,-0.9476452655818706,-7.178409619813033,-7.535664572308725
1621785169485.198,-0.029105636578636185,0.5105309420575483,0.31930153724871896,-0.951,-7.178,-7.541
1621785169490.07,-0.094,0.483,0.337,-1.0286000731963951,-7.234906720344023,-7.925957225856626
1621785169495.025,-0.133,0.463,0.344,-1.1075183677203897,-7.292780136328286,-8.317453863397228
1621785169499.98,-0.124,0.457,0.337,-1.1864405508028728,-7.350656403922107,-8.70896979123778
1621785169501.208,-0.10789091446590461,0.4562565037445802,0.33576083957430036,-1.206,-7.365,-8.806
1621785169504.935,-0.059,0.454,0.332,-1.3065797251750064,-7.504228415867255,-8.931724656468758
1621785169509.889,0.026,0.452,0.321,-1.4402665588921593,-7.689285653281276,-9.0988331986152
1621785169514.843,0.145,0.452,0.309,-1.573959981088624,-7.87435201085879,-9.26594997636078
1621785169517.216,0.20103271580607016,0.45104217579818684,0.3003795821836815,-1.638,-7.963,-9.346
1621785169519.798,0.262,0.45,0.291,-1.6331607589530839,-7.781044536635958,-9.342773839302057
1621785169524.752,0.374,0.443,0.269,-1.623876243060216,-7.431946739064121,-9.336584162040145
1621785169529.706,0.471,0.422,0.239,-1.6145912695991704,-7.082831736928802,-9.33039417973278
1621785169533.223,0.5157338196874846,0.4184496968501996,0.23047927244047914,-1.608,-6.835,-9.326
1621785169534.659,0.534,0.417,0.227,-1.4980057656228551,-6.71621340431049,-9.205508762831561
1621785169539.613,0.562,0.422,0.22,-1.1185424871493725,-6.306417824621345,-8.78983243086591
1621785169544.567,0.565,0.442,0.22,-0.7390979088177424,-5.896642439865164,-8.374176583639663
1621785169549.229,0.5471198501872659,0.46929075497733097,0.22470530258229846,-0.382,-5.511,-7.983
1621785169549.521,0.546,0.471,0.225,-0.35981401025140347,-5.499195447888699,-7.95669062728826
1621785169554.474,0.52,0.518,0.243,0.016531608494020023,-5.298952343177935,-7.510399194532584
1621785169559.427,0.496,0.562,0.265,0.3928586770807908,-5.09871910849402,-7.06412975958018
1621785169564.38,0.464,0.599,0.295,0.7691857456675616,-4.898485873810105,-6.6178603246277765
1621785169565.233,0.4578000788643533,0.6014110804416404,0.3015443611987382,0.834,-4.864,-6.541
1621785169569.333,0.428,0.613,0.333,0.9821069880988709,-4.6277462923405555,-6.380080988709185
1621785169574.286,0.382,0.623,0.367,1.1610188892279525,-4.342353951785169,-6.1856922795239555
1621785169579.238,0.326,0.649,0.407,1.3399043332316143,-4.05700381446445,-5.991332316142814
1621785169581.234,0.30141898752895946,0.6618949573618573,0.4194919899442993,1.412,-3.942,-5.913
1621785169584.191,0.265,0.681,0.438,1.4681870231337362,-3.894869437831899,-5.813378929378014
1621785169589.144,0.199,0.709,0.485,1.56230214246475,-3.8159241897088445,-5.6465103460904595
1621785169594.096,0.115,0.735,0.524,1.6563940670206923,-3.7369983977293533,-5.4796828877494965
1621785169597.233,0.05988942023269572,0.743868369157957,0.5417367383159141,1.716,-3.687,-5.374
1621785169599.048,0.028,0.749,0.552,1.6603963675213675,-3.761554258241758,-5.400667048229548
1621785169603.999,-0.068,0.787,0.564,1.5087371794871793,-3.9649013736263736,-5.473401556776556
1621785169608.951,-0.159,0.812,0.583,1.3570480769230768,-4.168288598901099,-5.546150412087912
1621785169613.229,-0.2255058655362776,0.8189097003154574,0.5855911376182965,1.226,-4.344,-5.609
1621785169613.904,-0.236,0.82,0.586,1.1813147509461603,-4.389107206079844,-5.673559424978635
1621785169618.855,-0.291,0.831,0.592,0.8535852154804053,-4.719931449151508,-6.147049688682701
1621785169623.806,-0.321,0.82,0.579,0.5258556800146502,-5.050755692223172,-6.620539952386766
1621785169628.757,-0.332,0.805,0.552,0.19810998351849585,-5.381596248931754,-7.094053564888292
1621785169629.227,-0.3313356505447912,0.8019629739190456,0.5480139032687472,0.167,-5.413,-7.139
1621785169633.709,-0.325,0.773,0.51,-0.14095149202472715,-5.750934030374723,-7.433221170724262
1621785169638.66,-0.298,0.723,0.456,-0.48112734488285114,-6.124229825230863,-7.758229947340304
1621785169643.611,-0.26,0.668,0.401,-0.8213199725253757,-6.497544028085171,-8.083254750820423
1621785169645.222,-0.24080368854480005,0.6533587455002713,0.38310513338922036,-0.932,-6.619,-8.189
1621785169648.562,-0.201,0.623,0.346,-1.0036249923682765,-6.807563755418523,-8.309697509005433
1621785169653.512,-0.15,0.59,0.286,-1.1097719641003725,-7.087011905488736,-8.488569082361561
1621785169658.463,-0.077,0.559,0.236,-1.2159398772818852,-7.3665151871298615,-8.667475944807375
1621785169661.217,-0.036949112426035505,0.5395308185404339,0.19873042406311636,-1.275,-7.522,-8.767
1621785169663.414,-0.005,0.524,0.169,-1.2520787310302752,-7.538058613589568,-8.800627011362769
1621785169668.364,0.072,0.518,0.117,-1.2004364676275452,-7.574239121482498,-8.876389613360788
1621785169673.314,0.136,0.515,0.059,-1.1487942042248152,-7.610419629375429,-8.952152215358804
1621785169677.224,0.19516075650118203,0.5118447596532703,0.025869976359338062,-1.108,-7.639,-9.012
1621785169678.271,0.211,0.511,0.017,-1.0633381436637488,-7.607334282065878,-8.966744411452485
1621785169683.184,0.3,0.501,-0.019,-0.8537357190110617,-7.458723995753781,-8.754355543931446
1621785169688.095,0.403,0.494,-0.037,-0.6442270342620656,-7.310180172002646,-8.542061662487116
1621785169693.007,0.469,0.482,-0.052,-0.4346662717887968,-7.161599424606532,-8.32971501100017
1621785169693.093,0.4701024608501118,0.48187750434998755,-0.05219249316430524,-0.431,-7.159,-8.326
1621785169697.918,0.532,0.475,-0.063,-0.26711660179387375,-6.786233680518162,-7.91157871659564
1621785169702.829,0.562,0.466,-0.07,-0.10030597393806057,-6.406809135525162,-7.489755180848936
1621785169707.74,0.585,0.454,-0.068,0.06649636148248439,-6.027403452360805,-7.06795261465561
1621785169708.962,0.582759735415527,0.45175973541552694,-0.06750216342567265,0.108,-5.933,-6.963
1621785169712.649,0.576,0.445,-0.066,0.16726545499315165,-5.684549916126748,-6.714549916126749
1621785169717.559,0.538,0.431,-0.072,0.2461918773757676,-5.353677972883547,-6.383677972883547
1621785169722.469,0.471,0.419,-0.061,0.32511437541359517,-5.022822481109282,-6.052822481109281
1621785169724.826,0.43402253395015666,0.41227682435457397,-0.060039546336367704,0.363,-4.864,-5.894
1621785169727.377,0.394,0.405,-0.059,0.3739388345777846,-4.810431883611731,-5.8228975752444
1621785169732.286,0.309,0.401,-0.049,0.3949884227542144,-4.707350812100685,-5.686075252097606
1621785169737.194,0.225,0.396,-0.037,0.4160348702948195,-4.604285120468016,-5.549273343083673
1621785169740.684,0.15032091148813373,0.3874652470272153,-0.02917647644161401,0.431,-4.531,-5.452
1621785169742.101,0.12,0.384,-0.026,0.431,-4.560762727524716,-5.462546552095845
1621785169747.009,0.017,0.377,-0.023,0.431,-4.66385027256768,-5.49907607256152
1621785169751.916,-0.068,0.374,-0.017,0.431,-4.76691730573778,-5.53559832455573
1621785169756.538,-0.13583299328191095,0.3768263747200796,-0.017,0.431,-4.864,-5.57
1621785169756.822,-0.14,0.377,-0.017,0.43205706098932417,-4.868747816307981,-5.585461756504861
1621785169761.728,-0.195,0.37,-0.021,0.45032158427433644,-4.9507833869949005,-5.8526191055720735
1621785169766.635,-0.241,0.354,-0.028,0.46858974319473756,-5.032835287230601,-6.119829633509466
1621785169771.54,-0.257,0.347,-0.037,0.4868506308443609,-5.114854528368739,-6.3869338037064995
1621785169772.386,-0.25820725698073765,0.3445854860385247,-0.03820725698073764,0.49,-5.129,-6.433
1621785169776.445,-0.264,0.333,-0.044,0.5881149442997796,-5.231982265296374,-6.551096577864747
1621785169781.349,-0.271,0.325,-0.052,0.7066542734318424,-5.356402135560314,-6.693777075853993
1621785169786.253,-0.274,0.314,-0.054,0.8251877012680853,-5.480815811774857,-6.8364504707169385
1621785169788.231,-0.27278996365808733,0.314,-0.05561338178921691,0.873,-5.531,-6.894
1621785169791.157,-0.271,0.314,-0.058,0.9310029592638831,-5.576257086049845,-6.9012041892079345
1621785169796.061,-0.272,0.307,-0.052,1.028216596538278,-5.652108490929548,-6.9132784944745
1621785169800.964,-0.272,0.297,-0.052,1.1254108752947705,-5.72794479123318,-6.9253503953391595
1621785169804.071,-0.2745353122820998,0.2868587508716008,-0.05009851578842514,1.187,-5.776,-6.933
1621785169805.866,-0.276,0.281,-0.049,1.1891535520473606,-5.802636038480513,-6.9241591021213615
1621785169810.768,-0.281,0.271,-0.049,1.1950351042180563,-5.875381552170696,-6.900013782683769
1621785169815.671,-0.298,0.265,-0.045,1.2009175351504686,-5.948137934755797,-6.875864855698076
1621785169819.907,-0.307507397260274,0.25462829389788294,-0.04413569115815691,1.206,-6.011,-6.855
1621785169820.572,-0.309,0.253,-0.044,1.196128608438194,-6.025450037009622,-6.862813101406366
1621785169825.473,-0.325,0.239,-0.038,1.1233832654823588,-6.13193683691093,-6.9203902664692825
1621785169830.373,-0.34,0.218,-0.045,1.0506487941031335,-6.2384077226745625,-6.977958826794967
1621785169835.274,-0.34,0.183,-0.045,0.9779034511472983,-6.344894522575871,-7.035535991857883
1621785169835.739,-0.3395254347067909,0.18100682576852176,-0.04604404364506003,0.971,-6.355,-7.041
1621785169840.174,-0.335,0.162,-0.056,0.9023496629698755,-6.462038484675541,-7.175778824944857
1621785169845.073,-0.318,0.131,-0.061,0.8265191189400133,-6.580272230877204,-7.3246543011830765
1621785169849.972,-0.288,0.094,-0.068,0.7506885749101511,-6.698505977078867,-7.473529777421295
1621785169851.567,-0.2733469072421871,0.08455689577829836,-0.07093061855156257,0.726,-6.737,-7.522
1621785169854.87,-0.243,0.065,-0.077,0.6685951925450506,-6.769772926437916,-7.5812835102443845
1621785169859.77,-0.201,0.044,-0.084,0.583442606763762,-6.81838731177487,-7.669222907923969
1621785169864.667,-0.154,0.0,-0.091,0.4983409343372007,-6.866972630214762,-7.7571097259935815
1621785169867.391,-0.12729823511815735,-0.020582610429753713,-0.09378143384185861,0.451,-6.894,-7.806
1621785169869.564,-0.106,-0.037,-0.096,0.4361643772187066,-6.883285383546844,-7.766987806760302
1621785169874.462,-0.051,-0.08,-0.106,0.40272254977620003,-6.859132952616145,-7.679048186448526
1621785169879.359,0.0,-0.117,-0.108,0.36928739002932554,-6.834985337243402,-7.591126099706745
1621785169883.209,0.027523187394036107,-0.1429504338286626,-0.11350463747880722,0.343,-6.816,-7.522
1621785169884.255,0.035,-0.15,-0.115,0.33784221899793165,-6.804295804649152,-7.480473250393604
1621785169889.151,0.063,-0.171,-0.119,0.31369792856481343,-6.749506837897076,-7.286080758188498
1621785169894.046,0.077,-0.192,-0.115,0.2895584539869725,-6.694728799431976,-7.091727039792548
1621785169898.942,0.091,-0.213,-0.113,0.2654141635538543,-6.6399398326799,-6.897334547587442
1621785169899.026,0.09103431421446384,-0.213,-0.11287990024937657,0.265,-6.639,-6.894
1621785169903.837,0.093,-0.213,-0.106,0.2948156273640981,-6.627134597273471,-6.74796427413503
1621785169908.731,0.093,-0.218,-0.099,0.3251456824813574,-6.6150644732982355,-6.599408902132127
1621785169913.625,0.093,-0.213,-0.084,0.35547573759861667,-6.602994349322999,-6.4508535301292245
1621785169914.839,0.09324807941734012,-0.2117596029132994,-0.08176728524393895,0.363,-6.6,-6.414
1621785169918.519,0.094,-0.208,-0.075,0.39256266118944294,-6.590921702469384,-6.372798495822587
1621785169923.412,0.093,-0.199,-0.063,0.431871017559032,-6.578850632403132,-6.318014408598829
1621785169928.305,0.105,-0.197,-0.049,0.47117741262953067,-6.566780164625577,-6.263233054839158
1621785169930.648,0.10883152011178761,-0.1979578800279469,-0.04133695977642479,0.49,-6.561,-6.237
1621785169933.197,0.113,-0.199,-0.033,0.5090326108785318,-6.521321845117637,-6.224419121622666
1621785169938.089,0.113,-0.195,-0.021,0.5455593283178595,-6.445172925710225,-6.200274342298364
1621785169942.981,0.113,-0.194,-0.017,0.5820842228847728,-6.369027806528355,-6.176130767923625
1621785169946.452,0.11441900389260405,-0.18974298832218783,-0.011323984429583791,0.608,-6.315,-6.159
1621785169947.873,0.115,-0.188,-0.009,0.597387092288438,-6.296562321348558,-6.145688895412617
1621785169952.763,0.112,-0.178,-0.005,0.5608700112791829,-6.233121629764683,-6.099887810756941
1621785169957.653,0.101,-0.182,-0.003,0.5243511070595325,-6.1696777707390185,-6.0540844393628035
1621785169962.253,0.08971402186392452,-0.18670249089003144,-0.0020595018219937106,0.49,-6.11,-6.011
1621785169962.544,0.089,-0.187,-0.002,0.48439899840796324,-6.114513965098846,-6.007038765321422
1621785169967.434,0.068,-0.194,-0.002,0.39028149682365487,-6.190365241046726,-5.9404754007140985
1621785169972.323,0.045,-0.195,-0.005,0.2961874893735413,-6.266197582577245,-5.873928652024051
1621785169977.212,0.021,-0.222,-0.009,0.2020934819234277,-6.342029924107765,-5.8073819033340035
1621785169978.048,0.01740770152831885,-0.22490805114374188,-0.009855309159924082,0.186,-6.355,-5.796
1621785169982.1,0.0,-0.239,-0.014,0.1308306277056277,-6.508447835497836,-5.9142933982683985
1621785169986.989,-0.017,-0.279,-0.024,0.06426638837353123,-6.693589301175016,-6.05701951144094
1621785169991.876,-0.026,-0.314,-0.037,-0.0022712585034013466,-6.878656802721089,-6.1996886054421765
1621785169993.839,-0.02399185854852405,-0.3296635033215124,-0.03900814145147595,-0.029,-6.953,-6.257
1621785169996.764,-0.021,-0.353,-0.042,-0.05086165194933733,-7.029330513585822,-6.453199062833459
1621785170001.65,0.002,-0.389,-0.059,-0.0873822897174582,-7.156843248844007,-6.7809563119558325
1621785170006.538,0.012,-0.429,-0.077,-0.12391935109722715,-7.28441332755981,-7.108860956033589
1621785170009.626,0.025271773347324243,-0.4599674711437565,-0.09469569779643232,-0.147,-7.365,-7.316
1621785170011.424,0.033,-0.478,-0.105,-0.13025281915634135,-7.405216019304841,-7.4791426052253005
1621785170016.309,0.042,-0.522,-0.129,-0.08475460578217087,-7.514473633733971,-7.9223632960539545
1621785170021.195,0.054,-0.541,-0.157,-0.039247296858322886,-7.6237530898572246,-8.365672591148854
1621785170025.409,0.07642790744165126,-0.5453130591233946,-0.16476350642211005,0.0,-7.718,-8.748
1621785170026.08,0.08,-0.546,-0.166,-0.01624890525631702,-7.702984650378325,-8.803467467157688
1621785170030.965,0.119,-0.536,-0.166,-0.13451894718925528,-7.593693224194222,-9.207195568415678
1621785170035.849,0.143,-0.55,-0.188,-0.25276534575332293,-7.4844236464635525,-9.610842960372599
1621785170040.732,0.157,-0.59,-0.22,-0.37098219010630235,-7.375181379299674,-10.01438946570319
1621785170041.187,0.15746588352911772,-0.5940997750562359,-0.22344753811547113,-0.382,-7.365,-10.052
1621785170045.616,0.162,-0.634,-0.257,-0.3876155393901873,-7.351241928494042,-9.939127658257236
1621785170050.5,0.183,-0.674,-0.286,-0.39380807924469896,-7.336070205850487,-9.814657607181552
1621785170055.382,0.22,-0.695,-0.312,-0.39999814270236805,-7.320904550379198,-9.690237331682402
1621785170056.961,0.23681756351270256,-0.7040556111222244,-0.32105561112222447,-0.402,-7.316,-9.65
1621785170060.264,0.272,-0.723,-0.34,-0.33625104084443824,-7.157909349801117,-9.549282645369983
1621785170065.146,0.339,-0.749,-0.358,-0.2390685486991379,-6.924238070916717,-9.40041392332575
1621785170070.028,0.384,-0.752,-0.377,-0.14188605655383757,-6.690566792032317,-9.251545201281516
1621785170072.735,0.3956470588235294,-0.7547731092436974,-0.38753781512605046,-0.088,-6.561,-9.169
1621785170074.909,0.405,-0.757,-0.396,-0.06635957769590389,-6.387876621567231,-9.021652156413511
1621785170079.789,0.403,-0.764,-0.412,-0.017777996222793274,-5.999223969782346,-8.690864190841822
1621785170084.669,0.38,-0.773,-0.424,0.03080115483451501,-5.61059076132388,-8.360092773770086
1621785170088.506,0.35877462111739106,-0.782433501725604,-0.42793062571900164,0.069,-5.305,-8.1
1621785170089.55,0.353,-0.785,-0.429,0.05337023154960118,-5.254997986525207,-8.027281840006195
1621785170094.429,0.326,-0.798,-0.436,-0.01967590799969024,-5.021312243475567,-7.687431580577712
1621785170099.308,0.309,-0.796,-0.447,-0.09272570278014405,-4.787614806783861,-7.347564315031363
1621785170104.187,0.309,-0.791,-0.445,-0.16577184232943545,-4.553929063734222,-7.0077140556028805
1621785170104.269,0.30891591591591594,-0.7906468468468468,-0.44511771771771774,-0.167,-4.55,-7.002
1621785170109.065,0.304,-0.77,-0.452,-0.259503926762396,-4.400898275942191,-6.635027185278126
1621785170113.944,0.291,-0.744,-0.459,-0.3536136282664931,-4.249208296544139,-6.261684093127004
1621785170118.821,0.264,-0.709,-0.454,-0.4476809486190497,-4.09758662887061,-5.8885091314652165
1621785170120.03,0.25086143372046454,-0.7045378454144974,-0.45276051261513817,-0.471,-4.06,-5.796
1621785170123.698,0.211,-0.691,-0.449,-0.5257114609805987,-4.080487696026777,-5.560857125147214
1621785170128.575,0.145,-0.67,-0.436,-0.5984561457881361,-4.107728258848323,-5.248209756399925
1621785170133.451,0.047,-0.667,-0.419,-0.671186264179012,-4.134963367011715,-4.935624992251905
1621785170135.785,-0.0032503003604325217,-0.6626928313976772,-0.40559991990388466,-0.706,-4.148,-4.786
1621785170138.328,-0.058,-0.658,-0.391,-0.6869505742316455,-4.263588041102897,-4.804887989956758
1621785170143.203,-0.168,-0.649,-0.37,-0.6504318593946157,-4.485176175198772,-4.841097224159576
1621785170148.078,-0.269,-0.646,-0.346,-0.6139131445575858,-4.706764309294648,-4.877306458362393
1621785170151.537,-0.3321530949519231,-0.6332274639423077,-0.32826036658653845,-0.588,-4.864,-4.903
1621785170152.953,-0.358,-0.628,-0.321,-0.5377443374726757,-4.947789405143947,-5.021132272917538
1621785170157.828,-0.428,-0.604,-0.29,-0.36469638621459466,-5.23630584623971,-5.427903306822938
1621785170162.702,-0.489,-0.578,-0.255,-0.1916831000108522,-5.524764491574036,-5.834592856146226
1621785170167.285,-0.5294406813627255,-0.5610713426853708,-0.21832124248496992,-0.029,-5.796,-6.217
1621785170167.575,-0.532,-0.56,-0.216,-0.026126163007071084,-5.816227391142538,-6.238866951991068
1621785170172.449,-0.555,-0.548,-0.183,0.022167845180498694,-6.156142910308895,-6.606334821982384
1621785170177.322,-0.56,-0.531,-0.141,0.07045217714923707,-6.495990323781169,-6.97372906587272
1621785170182.195,-0.55,-0.51,-0.105,0.11873650911797545,-6.835837737253443,-7.341123309763057
1621785170183.029,-0.5469180492205905,-0.5060619517818655,-0.09695268407598616,0.127,-6.894,-7.404
1621785170187.066,-0.532,-0.487,-0.058,0.07672214896290666,-7.085107137870585,-7.758766673389286
1621785170191.938,-0.499,-0.485,-0.019,0.016042088769605486,-7.315753285033898,-8.186932608324671
1621785170196.809,-0.44,-0.482,0.012,-0.04462580865356275,-7.546353201259715,-8.61501272126468
1621785170198.766,-0.40625687797544474,-0.47918807316462037,0.026059634176898022,-0.069,-7.639,-8.787
1621785170201.681,-0.356,-0.475,0.047,-0.20702419229694918,-7.646410694888427,-8.939660314701593
1621785170206.551,-0.258,-0.48,0.075,-0.43763869836442065,-7.658792681791379,-9.194729244902394
1621785170211.421,-0.175,-0.494,0.073,-0.6682416436485521,-7.671174047981131,-9.449785388411286
1621785170214.499,-0.11307217321571772,-0.5015829991980754,0.06794466720128307,-0.814,-7.679,-9.611
1621785170216.292,-0.077,-0.506,0.065,-0.8386190520532638,-7.633181208678648,-9.588546512710682
1621785170221.161,0.054,-0.503,0.052,-0.9054733215383183,-7.508757984914797,-9.527572942856256
1621785170226.03,0.201,-0.511,0.044,-0.9723309432908092,-7.384328522208772,-9.46659631560977
1621785170230.23,0.31661271879231656,-0.5127255629670495,0.04831390741762375,-1.03,-7.277,-9.414
1621785170230.898,0.335,-0.513,0.049,-1.03,-7.240346145487286,-9.344854605855506
1621785170235.766,0.45,-0.517,0.044,-1.03,-6.973212425098575,-8.840922164612374
1621785170240.635,0.538,-0.51,0.024,-1.03,-6.706038514079915,-8.336913906051103
1621785170245.502,0.604,-0.504,0.017,-1.03,-6.438971778074451,-7.833107827004874
1621785170245.957,0.6070856282919488,-0.5026909455731127,0.01784153498871332,-1.03,-6.414,-7.786
1621785170250.369,0.637,-0.49,0.026,-0.9446972251983665,-6.080926336547569,-7.351348690237729
1621785170255.235,0.63,-0.475,0.033,-0.8506097420847503,-5.713551854784864,-6.871935823977888
1621785170260.102,0.597,-0.468,0.042,-0.7565080977003462,-5.3461220788497075,-6.392450800453409
1621785170261.68,0.5879204756409613,-0.46054181927650395,0.047512568360844915,-0.726,-5.227,-6.237
1621785170264.968,0.569,-0.445,0.059,-0.7383423370248986,-5.077218418477502,-5.976555769559342
1621785170269.833,0.522,-0.421,0.063,-0.7566038272161041,-4.8556044019198215,-5.591207374846617
1621785170274.698,0.422,-0.386,0.072,-0.7748653174073097,-4.633990385362141,-5.205858980133891
1621785170277.398,0.34541335875947204,-0.37434551111557185,0.08254453756210167,-0.785,-4.511,-4.992
1621785170279.563,0.284,-0.365,0.091,-0.8052544398005004,-4.4772426003325,-4.958104815027734
1621785170284.427,0.162,-0.335,0.113,-0.8507584095958733,-4.401402650673544,-4.881955314553845
1621785170289.291,0.056,-0.314,0.122,-0.8962623793912463,-4.32556270101459,-4.805805814079956
1621785170293.111,-0.015483357598272997,-0.30300256036949647,0.12749871981525177,-0.932,-4.266,-4.746
1621785170294.154,-0.035,-0.3,0.129,-0.9586883819232922,-4.288771430347485,-4.764920867781439
1621785170299.017,-0.129,-0.281,0.136,-1.0831279604649717,-4.394947488655436,-4.853142957046062
1621785170303.881,-0.202,-0.257,0.138,-1.2075925281283024,-4.5011448685273825,-4.94138276247902
1621785170308.743,-0.269,-0.234,0.138,-1.3320008702679182,-4.6072942748803385,-5.029582706533225
1621785170308.821,-0.2700283705749435,-0.23374290735626413,0.13793572683906605,-1.334,-4.609,-5.031
1621785170313.605,-0.333,-0.218,0.134,-1.405584637865904,-4.761307740140221,-5.195187743871158
1621785170318.466,-0.394,-0.195,0.129,-1.478323689896933,-4.916071680631772,-5.362023271721051
1621785170323.328,-0.445,-0.183,0.131,-1.5510737015561118,-5.070858939481089,-5.528883936760614
1621785170324.526,-0.45313437484302005,-0.17659109860852967,0.1314929924147285,-1.569,-5.109,-5.57
1621785170328.188,-0.478,-0.157,0.133,-1.603283848498041,-5.248467628583867,-5.7484159462653155
1621785170333.049,-0.506,-0.143,0.131,-1.6487922289943404,-5.433596958766092,-5.9852452733378945
1621785170337.908,-0.524,-0.134,0.127,-1.6942800391815411,-5.618642608371167,-6.221967550842714
1621785170340.228,-0.5263868488471393,-0.1268394534585824,0.1246131511528608,-1.716,-5.707,-6.335
1621785170342.768,-0.529,-0.119,0.122,-1.7129256753604254,-5.805378388466384,-6.43499645406616
1621785170347.628,-0.518,-0.112,0.122,-1.7070435621082753,-5.993606012535187,-6.626319927215042
1621785170352.486,-0.504,-0.098,0.12,-1.7011635173175321,-6.181767445838972,-6.817576120935007
1621785170355.926,-0.48559280474324185,-0.0880884333232841,0.12,-1.697,-6.315,-6.953
1621785170357.345,-0.478,-0.084,0.12,-1.705859893913233,-6.35315178807535,-6.99910761118111
1621785170362.202,-0.433,-0.061,0.113,-1.7361865851571858,-6.483742234044208,-7.156930188062906
1621785170367.061,-0.372,-0.054,0.112,-1.766526996126744,-6.61439175883149,-7.31482416351673
1621785170371.621,-0.3025231728159244,-0.049305619784859755,0.10542786769880366,-1.795,-6.737,-7.463
1621785170371.918,-0.298,-0.049,0.105,-1.8026073329390893,-6.737738024837374,-7.463
1621785170376.775,-0.222,-0.033,0.098,-1.9270648012698808,-6.749812256839616,-7.463
1621785170381.631,-0.145,-0.03,0.087,-2.0515035015095395,-6.761884668056895,-7.463
1621785170386.488,-0.07,-0.021,0.068,-2.175960969840331,-6.773958900059136,-7.463
1621785170387.309,-0.05968404907975461,-0.02133822789902444,0.06512506285829227,-2.197,-6.776,-7.463
1621785170391.343,-0.009,-0.023,0.051,-2.2903590007004437,-6.702958798350066,-7.326690715230757
1621785170396.198,0.033,-0.014,0.03,-2.4027197758580434,-6.615051194645497,-7.162637792824344
1621785170401.053,0.065,-0.012,0.009,-2.515080551015643,-6.52714359094093,-6.998584870417931
1621785170402.994,0.06779901418368374,-0.010000704154511618,0.0034019716326325325,-2.56,-6.492,-6.933
1621785170405.907,0.072,-0.007,-0.005,-2.510767913306138,-6.46654794008657,-6.829148164294834
1621785170410.762,0.061,0.0,-0.014,-2.4287171861862795,-6.42412926229253,-6.656067573879737
1621785170415.616,0.045,0.005,-0.028,-2.3466829632858968,-6.381719116868558,-6.483021798025721
1621785170418.674,0.03302726632457994,0.015082302042459,-0.03367129489888319,-2.295,-6.355,-6.374
1621785170420.469,0.026,0.021,-0.037,-2.244393674178126,-6.372975550122249,-6.367244856960428
1621785170425.322,0.007,0.026,-0.049,-2.1075666142369927,-6.421577017114915,-6.348980611402675
1621785170430.175,-0.005,0.038,-0.052,-1.970739554295859,-6.47017848410758,-6.330716365844922
1621785170434.351,-0.009303361175405051,0.05349210023145819,-0.061467394585891115,-1.853,-6.512,-6.315
1621785170435.027,-0.01,0.056,-0.063,-1.8521805140186915,-6.515795514018691,-6.329837009345795
1621785170439.878,-0.014,0.068,-0.073,-1.8463002803738318,-6.543030280373832,-6.436300186915888
1621785170444.73,-0.012,0.077,-0.084,-1.8404185669781932,-6.570271900311526,-6.54279015576324
1621785170449.581,0.0,0.051,-0.101,-1.8345380373831777,-6.597508037383177,-6.649258691588785
1621785170450.025,0.002561980975388797,0.049993507473954396,-0.1031044843726408,-1.834,-6.6,-6.659
1621785170454.432,0.028,0.04,-0.124,-2.087704629384359,-6.525463717531203,-6.816229365660595
1621785170459.282,0.058,0.012,-0.164,-2.366918865013946,-6.4434329276843725,-6.989267899714851
1621785170464.131,0.099,-0.017,-0.202,-2.646076881125637,-6.361418654658211,-7.162271592626642
1621785170465.693,0.10479616487996377,-0.026660274799939605,-0.21520237555991747,-2.736,-6.335,-7.218
1621785170468.982,0.117,-0.047,-0.243,-2.752587057154881,-6.246395720008105,-7.2488645240730065
1621785170473.831,0.138,-0.084,-0.278,-2.777043454542621,-6.115755217506507,-7.294371997693231
1621785170478.679,0.131,-0.112,-0.298,-2.8014936953506133,-5.985147602051154,-7.339868015399243
1621785170481.357,0.12105730687883977,-0.12139032128109578,-0.3029713465605801,-2.815,-5.913,-7.365
1621785170483.527,0.113,-0.129,-0.307,-2.6600785371328803,-5.966072379497413,-7.227676950177714
1621785170488.375,0.094,-0.126,-0.311,-2.3140018706740664,-6.0846299494918,-6.920913107189624
1621785170493.223,0.075,-0.126,-0.311,-1.9679252042152522,-6.203187519486188,-6.614149264201534
1621785170497.018,0.0765659312984789,-0.12991482824619724,-0.311,-1.697,-6.296,-6.374
1621785170498.07,0.077,-0.131,-0.311,-1.6317497933658751,-6.333564228124074,-6.333815011774246
1621785170502.916,0.08,-0.126,-0.305,-1.3311809023283376,-6.506600283829515,-6.148706673112612
1621785170507.762,0.084,-0.108,-0.291,-1.0306120112908004,-6.679636339534957,-5.963598334450976
1621785170512.609,0.079,-0.087,-0.276,-0.7299825491633267,-6.852707265723688,-5.778452692481636
1621785170512.673,0.07894699183714603,-0.08662894286002217,-0.27572170714501665,-0.726,-6.855,-5.776
1621785170517.454,0.075,-0.059,-0.255,-0.5610519419747309,-6.873022102636094,-5.860001325846202
1621785170522.299,0.072,-0.026,-0.22,-0.3938970519419747,-6.891285322102636,-5.945126501325846
1621785170527.144,0.063,0.021,-0.187,-0.22674216190921853,-6.909548541569178,-6.030251676805491
1621785170528.325,0.05910017636684303,0.033674426807760144,-0.17846913580246915,-0.186,-6.914,-6.051
1621785170531.989,0.047,0.073,-0.152,-0.09890616663806687,-6.952864452521722,-6.264520365661514
1621785170536.833,0.028,0.133,-0.105,0.016234341606477076,-7.004244356738374,-6.546800321357815
1621785170541.676,-0.005,0.182,-0.037,0.13135163720886694,-7.0556139026254625,-6.829023368641093
1621785170543.975,-0.02493819629984373,0.20336235317840398,-0.011365176185915208,0.186,-7.08,-6.963
1621785170546.519,-0.047,0.227,0.017,0.186,-7.112039519892616,-7.200612886107166
1621785170551.362,-0.094,0.267,0.066,0.186,-7.173034525277435,-7.652966707768187
1621785170556.205,-0.131,0.281,0.117,0.186,-7.234029530662255,-8.105320529429209
1621785170559.617,-0.14791120859174103,0.2831139010739676,0.15011778349215954,0.186,-7.277,-8.424
1621785170561.047,-0.155,0.284,0.164,0.16633583662508392,-7.306541975674874,-8.537869225124513
1621785170565.888,-0.148,0.291,0.218,0.09977710815157145,-7.406534856125779,-8.923290699308343
1621785170570.73,-0.094,0.305,0.262,0.03320159565332792,-7.506552951646396,-9.308809364705148
1621785170575.254,-0.0014855010338393204,0.33677265621060065,0.28816571687931813,-0.029,-7.6,-9.669
1621785170575.571,0.005,0.339,0.29,-0.03299592448587624,-7.591845879983135,-9.676768726284724
1621785170580.411,0.134,0.38,0.318,-0.09397760809481426,-7.467406099217689,-9.79532702487469
1621785170585.251,0.274,0.428,0.346,-0.1549623678580909,-7.342960041223591,-9.91389130400837
1621785170590.09,0.394,0.475,0.379,-0.21593482300401304,-7.218539092144096,-10.032431660967193
1621785170590.889,0.4081945117029863,0.47962146892655366,0.3814757869249395,-0.226,-7.198,-10.052
1621785170594.93,0.48,0.503,0.394,-0.18541426541098566,-6.881069359196615,-9.8594116415999
1621785170599.769,0.539,0.525,0.412,-0.13681289728091958,-6.501545299786035,-9.628787315122835
1621785170604.607,0.571,0.541,0.429,-0.08822378922050947,-6.122116978244233,-9.398221165409424
1621785170606.521,0.5769342988343341,0.5465386789120452,0.4373080183680678,-0.069,-5.972,-9.307
1621785170609.445,0.586,0.555,0.45,0.011819493908153705,-5.81784429865667,-9.066599422055608
1621785170614.283,0.581,0.578,0.463,0.14553570759137768,-5.562793002186817,-8.6688555920025
1621785170619.121,0.56,0.609,0.485,0.27925866916588565,-5.307728834739144,-8.271091690096846
1621785170622.151,0.5506022819063006,0.629674979806139,0.4962772617124394,0.363,-5.148,-8.022
1621785170623.957,0.545,0.642,0.503,0.3890102193887118,-5.108348865554097,-7.9177279204950315
1621785170628.793,0.527,0.67,0.515,0.45865207200450026,-5.002183730233139,-7.638541471341959
1621785170633.63,0.525,0.686,0.517,0.5283079879992499,-4.895997156072254,-7.3592986436652295
1621785170637.775,0.5164291483669039,0.6782862335302136,0.521285425816548,0.588,-4.805,-7.12
1621785170638.466,0.515,0.677,0.522,0.5996936062098635,-4.810648232433444,-7.070224951680279
1621785170643.301,0.494,0.658,0.522,0.6814951524409252,-4.850159922688447,-6.722028181308062
1621785170648.136,0.454,0.646,0.531,0.763296698671987,-4.8896716129434505,-6.373831410935844
1621785170653.002,0.387,0.639,0.539,0.8456228256125693,-4.929436685578901,-6.023401708335931
1621785170653.438,0.38104491517112876,0.6383869765617338,0.5393502991075807,0.853,-4.933,-5.992
1621785170657.981,0.319,0.632,0.543,0.6922842744383728,-4.966046994535519,-5.9061343047966
1621785170662.961,0.241,0.63,0.545,0.5161084699453553,-5.002272950819672,-5.8120087431693985
1621785170667.94,0.171,0.623,0.527,0.3399672131147542,-5.0384918032786885,-5.717901639344262
1621785170669.522,0.1433565754633716,0.6175984112974404,0.5158790820829656,0.284,-5.05,-5.688
1621785170672.919,0.084,0.606,0.492,0.07917118921872154,-5.110181660899654,-5.795693498452012
1621785170677.9,0.0,0.593,0.449,-0.2211678504219025,-5.1984256055363325,-5.953603715170279
1621785170682.879,-0.087,0.592,0.398,-0.5213891215929096,-5.286634948096886,-6.111452012383901
1621785170685.609,-0.12646975193646437,0.583228944014119,0.36730130404941663,-0.686,-5.335,-6.198
1621785170687.859,-0.159,0.576,0.342,-0.7560671654248297,-5.4528974460142345,-6.318694538446364
1621785170692.839,-0.215,0.579,0.288,-0.9111561527838901,-5.7138555624687015,-6.585843832040912
1621785170697.819,-0.244,0.569,0.236,-1.0662375373689243,-5.974800886231543,-6.852980029439884
1621785170701.697,-0.25412314932836555,0.5674425924110207,0.19862221786449652,-1.187,-6.178,-7.061
1621785170702.799,-0.257,0.567,0.188,-1.2117961760242792,-6.237113535660091,-7.103331593323217
1621785170707.779,-0.246,0.559,0.136,-1.3238458877086494,-6.504237572078908,-7.294620880121396
1621785170712.759,-0.215,0.532,0.093,-1.4358955993930196,-6.771361608497724,-7.485910166919576
1621785170717.739,-0.157,0.494,0.052,-1.54794531107739,-7.03848564491654,-7.677199453717755
1621785170717.786,-0.15645406412393373,0.49371761937444847,0.0516423178743014,-1.549,-7.041,-7.679
1621785170722.719,-0.099,0.464,0.014,-1.5312186954740628,-7.107220030648318,-7.679
1621785170727.699,-0.065,0.433,-0.024,-1.513268430715077,-7.174069292509369,-7.679
1621785170732.679,-0.03,0.412,-0.07,-1.495318165956091,-7.2409185543704195,-7.679
1621785170733.877,-0.0227831159917639,0.40766986959505835,-0.07866026080988332,-1.491,-7.257,-7.679
1621785170737.659,0.0,0.394,-0.106,-1.274309787143659,-7.157820748562499,-7.655967851561908
1621785170742.64,0.047,0.389,-0.129,-0.9889238389998939,-7.02719941437956,-7.625633987225585
1621785170747.62,0.079,0.387,-0.141,-0.7035798552637568,-6.896597287333303,-7.59530458331437
1621785170749.969,0.08607495832924797,0.3898299833316992,-0.1428866555544661,-0.569,-6.835,-7.581
1621785170752.6,0.094,0.393,-0.145,-0.4486760971465845,-6.759634077152956,-7.455935073800458
1621785170757.58,0.099,0.393,-0.161,-0.22093489176438463,-6.616986392803507,-7.219220369836623
1621785170762.562,0.099,0.401,-0.164,0.0068956326512037425,-6.474282762700808,-6.9824128274753114
1621785170766.063,0.11024816158446907,0.4101391312873811,-0.16540602019805864,0.167,-6.374,-6.816
1621785170767.542,0.115,0.414,-0.166,0.22380667627645856,-6.33162479326303,-6.759193323723541
1621785170772.522,0.126,0.419,-0.15,0.4150814505727942,-6.1889424778089674,-6.567918549427206
1621785170777.502,0.129,0.422,-0.129,0.6063562248691299,-6.046260162354905,-6.37664377513087
1621785170782.153,0.12246481427031265,0.42106640203861606,-0.11592962854062532,0.785,-5.913,-6.198
1621785170782.484,0.122,0.421,-0.115,0.7908379477221354,-5.905147549190649,-6.185501858397682
1621785170787.464,0.105,0.436,-0.106,0.8787259887434198,-5.786931944718358,-5.997347179028172
1621785170792.445,0.072,0.44,-0.105,0.9666269551102143,-5.66869895474612,-5.809164828496442
1621785170797.425,0.021,0.445,-0.087,1.0545106876829953,-5.550489145440478,-5.621019372847672
1621785170798.246,0.011439466718949125,0.44730771492990884,-0.08419777472796784,1.069,-5.531,-5.59
1621785170802.406,-0.037,0.459,-0.07,1.1170860290101352,-5.546253095223645,-5.511407780542574
1621785170807.387,-0.094,0.457,-0.045,1.174662833039995,-5.564516705104085,-5.417303756751836
1621785170812.368,-0.162,0.469,-0.028,1.232239637069855,-5.582780314984523,-5.323199732961097
1621785170814.337,-0.18611829591136386,0.4745353466026081,-0.02365079909795078,1.255,-5.59,-5.286
1621785170817.348,-0.223,0.483,-0.017,1.2458310397669514,-5.639587233913426,-5.353925154379523
1621785170822.329,-0.271,0.494,-0.01,1.2306624436723361,-5.721621478098591,-5.4662965907539185
1621785170827.311,-0.304,0.515,0.002,1.215491617229817,-5.803667784369358,-5.578684549909724
1621785170830.428,-0.3146381237133614,0.5250123517302225,0.00825771983138908,1.206,-5.855,-5.649
1621785170832.292,-0.321,0.531,0.012,1.2139925811296708,-5.887897000591689,-5.697766328341905
1621785170837.272,-0.323,0.553,0.024,1.2353459105184106,-5.975786066481574,-5.828052584467404
1621785170842.253,-0.321,0.548,0.033,1.2567034272450046,-6.063692367211324,-5.958364389422421
1621785170846.52,-0.3132917626304699,0.5574211790072034,0.043277649826040085,1.275,-6.139,-6.07
1621785170847.235,-0.312,0.559,0.045,1.2767329520457544,-6.145976242850858,-6.074798944126705
1621785170852.216,-0.316,0.567,0.049,1.288803859398941,-6.194569382708558,-6.108226072181683
1621785170857.197,-0.316,0.571,0.061,1.3008747667521277,-6.243162522566258,-6.141653200236662
1621785170862.179,-0.318,0.572,0.079,1.3129480407178726,-6.291765189556564,-6.175086881987954
