time,gyro_x,gyro_y,gyro_z,acc_x,acc_y,acc_z
1621785018091.781,-0.483,-0.787,-0.681,,,
1621785018096.783,-0.517,-0.77,-0.667,,,
1621785018101.784,-0.541,-0.756,-0.653,,,
1621785018106.785,-0.555,-0.737,-0.642,,,
1621785018111.786,-0.56,-0.712,-0.641,,,
1621785018114.521,-0.5545311203319503,-0.7027029045643153,-0.6371717842323652,-0.49,-4.207,-8.14
1621785018116.787,-0.55,-0.695,-0.634,-0.4956092217975253,-4.237289797706636,-8.174356483509843
1621785018121.788,-0.529,-0.681,-0.632,-0.5079879439802995,-4.304134897493617,-8.250176156879334
1621785018126.789,-0.497,-0.658,-0.623,-0.5203666661630736,-4.370979997280597,-8.325995830248825
1621785018130.681,-0.47521417415072237,-0.6377703045685279,-0.6175535435376805,-0.53,-4.423,-8.385
1621785018131.791,-0.469,-0.632,-0.616,-0.539411091974861,-4.429045080976553,-8.382252235919749
1621785018136.792,-0.44,-0.613,-0.604,-0.5818075749335267,-4.456277858351463,-8.369873700749336
1621785018141.793,-0.412,-0.597,-0.59,-0.6242040578921925,-4.483510635726372,-8.357495165578923
1621785018146.794,-0.393,-0.572,-0.578,-0.6666005408508582,-4.510743413101281,-8.345116630408508
1621785018146.841,-0.3928209822300332,-0.5717927162663542,-0.5778775141573911,-0.667,-4.511,-8.345
1621785018151.795,-0.374,-0.55,-0.565,-0.7482216213766748,-4.495981662462426,-8.297186517227317
1621785018156.796,-0.36,-0.534,-0.567,-0.8302157908251893,-4.480820476413456,-8.248918251438758
1621785018161.798,-0.346,-0.527,-0.55,-0.912229974472456,-4.465655589625848,-8.20063820370678
1621785018163.004,-0.34455330990041005,-0.5236243897676235,-0.5490355399336068,-0.932,-4.462,-8.189
1621785018166.799,-0.34,-0.513,-0.546,-0.9456194864048338,-4.47820249244713,-8.145088897280967
1621785018171.8,-0.321,-0.489,-0.536,-0.9635661933534744,-4.499552885196374,-8.087226238670695
1621785018176.801,-0.316,-0.463,-0.527,-0.9815129003021148,-4.520903277945619,-8.029363580060423
1621785018179.166,-0.311743848857645,-0.45448769771529,-0.522743848857645,-0.99,-4.531,-8.002
1621785018181.802,-0.307,-0.445,-0.518,-0.9996228492877536,-4.553344582244445,-7.995639133521655
1621785018186.803,-0.297,-0.412,-0.513,-1.0178792579948337,-4.595736582123597,-7.983571337935619
1621785018191.804,-0.284,-0.386,-0.508,-1.036135666701914,-4.638128582002749,-7.971503542349582
1621785018195.328,-0.27554588051542367,-0.3726143108160875,-0.5016594103865677,-1.049,-4.668,-7.963
1621785018196.806,-0.272,-0.367,-0.499,-1.0418668882175226,-4.673395558912387,-7.963
1621785018201.807,-0.253,-0.335,-0.49,-1.0177316616314198,-4.6916516918429005,-7.963
1621785018206.808,-0.237,-0.3,-0.478,-0.9935952567975831,-4.709908716012085,-7.963
1621785018211.49,-0.22108470025385668,-0.26723320640499904,-0.4686380589728569,-0.971,-4.727,-7.963
1621785018211.809,-0.22,-0.265,-0.468,-0.9698352214367711,-4.7293098151169115,-7.964164778563229
1621785018216.81,-0.208,-0.227,-0.461,-0.9515801915292127,-4.76551046764546,-7.982419808470787
1621785018221.811,-0.192,-0.188,-0.456,-0.9333251616216542,-4.801711120174008,-8.000674838378346
1621785018226.812,-0.175,-0.155,-0.447,-0.9150701317140959,-4.837911772702556,-8.018929868285904
1621785018227.653,-0.17163705583756345,-0.1470970812182741,-0.44666370558375634,-0.912,-4.844,-8.022
1621785018231.814,-0.155,-0.108,-0.445,-0.8741547002220578,-4.886994320155893,-8.04208117947401
1621785018236.815,-0.122,-0.068,-0.445,-0.8286683937823834,-4.938669239716612,-8.066216770646083
1621785018241.816,-0.093,-0.044,-0.429,-0.7831820873427091,-4.99034415927733,-8.090352361818153
1621785018243.815,-0.08020874829134934,-0.03200820152314001,-0.429,-0.765,-5.011,-8.1
1621785018246.817,-0.061,-0.014,-0.429,-0.7612851963746223,-4.9965122658610275,-8.092756132930512
1621785018251.818,-0.028,0.0,-0.422,-0.7550963746223565,-4.97237586102719,-8.080687930513594
1621785018256.819,0.0,0.023,-0.428,-0.7489078549848942,-4.948240634441087,-8.068620317220544
1621785018259.977,0.01894405389572349,0.028051747705526264,-0.4267370630736184,-0.745,-4.933,-8.061
1621785018261.82,0.03,0.031,-0.426,-0.7573165193745751,-4.896050441876275,-8.082211783367324
1621785018266.822,0.056,0.045,-0.431,-0.7907435757987763,-4.795769272603671,-8.13978060276456
1621785018271.823,0.075,0.052,-0.436,-0.8241641060503059,-4.695507681849082,-8.197338182642193
1621785018276.138,0.09743331380589729,0.06580511618824449,-0.4454910173794181,-0.853,-4.609,-8.247
1621785018276.824,0.101,0.068,-0.447,-0.8367851963746223,-4.601104833836858,-8.244538066465257
1621785018281.825,0.127,0.087,-0.452,-0.7185844712990936,-4.543551601208459,-8.226591359516616
1621785018286.826,0.15,0.103,-0.452,-0.6003837462235649,-4.48599836858006,-8.208644652567976
1621785018291.827,0.169,0.12,-0.445,-0.4821830211480362,-4.4284451359516614,-8.190697945619336
1621785018292.3,0.17022993555946106,0.12236526069127124,-0.4440538957234915,-0.471,-4.423,-8.189
1621785018296.828,0.182,0.145,-0.435,-0.3636940403353727,-4.41739655563109,-8.0239785633356
1621785018301.83,0.182,0.169,-0.419,-0.245146008006647,-4.411206057859355,-7.8416684039580025
1621785018306.831,0.175,0.188,-0.408,-0.12662690535538934,-4.405017070775738,-7.659402734345494
1621785018308.461,0.16848174184729545,0.19386643233743409,-0.40115582893966023,-0.088,-4.403,-7.6
1621785018311.832,0.155,0.206,-0.387,-0.006241556401425888,-4.411134130868225,-7.550986647332487
1621785018316.833,0.122,0.229,-0.365,0.11504609993353879,-4.423201015044408,-7.478275934988822
1621785018321.834,0.082,0.232,-0.333,0.23633375626850342,-4.435267899220591,-7.405565222645158
1621785018324.624,0.056894551845342714,0.2359052919351689,-0.3184946299550869,0.304,-4.442,-7.365
1621785018326.835,0.037,0.239,-0.307,0.304,-4.45677525492862,-7.436140116322985
1621785018331.836,-0.012,0.246,-0.278,0.304,-4.490195785180149,-7.597053780497016
1621785018336.838,-0.056,0.255,-0.25,0.304,-4.52362284160435,-7.757998866983911
1621785018340.785,-0.08362240663900415,0.25184315352697095,-0.2357941908713693,0.304,-4.55,-7.885
1621785018341.839,-0.091,0.251,-0.232,0.2656398138635402,-4.5640914969480875,-7.930405934610503
1621785018346.84,-0.117,0.239,-0.215,0.08366435003323869,-4.630939626518402,-8.145805463225962
1621785018351.841,-0.126,0.227,-0.209,-0.09831111379706287,-4.697787756088717,-8.36120499184142
1621785018356.842,-0.12,0.216,-0.201,-0.28028657762736436,-4.764635885659032,-8.576604520456879
1621785018356.944,-0.11965309509861355,0.21583675063464167,-0.20087756297598128,-0.284,-4.766,-8.581
1621785018361.843,-0.103,0.208,-0.195,-0.4237450864868948,-4.759937306443085,-8.741358244580406
1621785018366.845,-0.079,0.206,-0.19,-0.566429095853161,-4.753747110808974,-8.905088919102651
1621785018371.846,-0.063,0.183,-0.178,-0.7090852481305234,-4.747558123725358,-9.06878762746431
1621785018373.105,-0.06174121265377856,0.17746133567662567,-0.17548242530755712,-0.745,-4.746,-9.11
1621785018376.847,-0.058,0.161,-0.168,-0.8427230271805641,-4.68694935561364,-9.114631423089126
1621785018381.848,-0.065,0.148,-0.155,-0.9733264387266382,-4.608030232523003,-9.12082115823349
1621785018386.849,-0.079,0.127,-0.157,-1.1039362261471286,-4.5291072567120425,-9.127011195551997
1621785018389.264,-0.08141432337434096,0.11347978910369069,-0.1521713532513181,-1.167,-4.491,-9.13
1621785018391.85,-0.084,0.099,-0.147,-1.160758656635243,-4.519326096809282,-9.04998277737491
1621785018396.851,-0.086,0.07,-0.143,-1.14868958484409,-4.574101114938361,-8.895251087744743
1621785018401.853,-0.084,0.037,-0.141,-1.1366181562726614,-4.628886829224076,-8.740489182982838
1621785018405.424,-0.07614523530560437,0.022004540128881075,-0.13742965241163835,-1.128,-4.668,-8.63
1621785018406.854,-0.073,0.016,-0.136,-1.0785361302896164,-4.693130123430678,-8.565758909821577
1621785018411.855,-0.066,0.005,-0.133,-0.9055434877853483,-4.781019050928374,-8.341085102204227
1621785018416.856,-0.056,0.0,-0.122,-0.7325508452810804,-4.86890797842607,-8.116411294586877
1621785018421.584,-0.060727104081234135,0.0,-0.122,-0.569,-4.952,-7.904
1621785018421.857,-0.061,0.0,-0.122,-0.5579044410876133,-4.952675528700906,-7.900858791540785
1621785018426.858,-0.051,0.007,-0.087,-0.3546115709969788,-4.965052567975831,-7.843305558912387
1621785018431.86,-0.058,-0.01,-0.073,-0.15126907854984895,-4.977432628398791,-7.78573827794562
1621785018436.861,-0.072,0.019,-0.065,0.05202379154078551,-4.989809667673716,-7.72818504531722
1621785018437.746,-0.07341573911345439,0.02360115211872681,-0.0618145869947276,0.088,-4.992,-7.718
1621785018441.862,-0.08,0.045,-0.047,0.170518558803535,-4.986906261802251,-7.857823113528212
1621785018446.863,-0.079,0.052,-0.028,0.2707801495581237,-4.980717274718635,-8.027710808973486
1621785018451.864,-0.08,0.058,-0.014,0.3710417403127124,-4.974528287635018,-8.197598504418762
1621785018453.907,-0.07387229056824839,0.06943839093926968,-0.009097832454598711,0.412,-4.972,-8.267
1621785018456.865,-0.065,0.086,-0.002,0.41016942904195686,-4.968338858083914,-8.317340701346186
1621785018461.866,-0.044,0.094,0.002,0.40707456146977505,-4.96214912293955,-8.402449559581186
1621785018466.868,-0.024,0.105,0.009,0.4039790895493073,-4.955958179098615,-8.48757503739405
1621785018470.066,-0.009931556336652998,0.11395264596758445,0.013476322983792227,0.402,-4.952,-8.542
1621785018471.869,-0.002,0.119,0.016,0.38013240270727583,-4.929016708967851,-8.528834813874788
1621785018476.87,0.026,0.124,0.023,0.3194746192893401,-4.865264140681654,-8.492316352429297
1621785018481.871,0.049,0.127,0.028,0.2588197969543147,-4.801514684554025,-8.455799673676577
1621785018486.226,0.06293321616871705,0.127,0.01842091388400703,0.206,-4.746,-8.424
1621785018486.872,0.065,0.127,0.017,0.19344626263541997,-4.734645664294456,-8.40556919450614
1621785018491.874,0.075,0.129,0.016,0.0962425698442198,-4.646728948521524,-8.26285931432543
1621785018496.875,0.075,0.126,0.012,-0.0009421452638895267,-4.558829397277246,-8.120177296284544
1621785018501.876,0.061,0.124,0.003,-0.09812686037199889,-4.470929846032969,-7.977495278243658
1621785018502.384,0.059374536223393864,0.12420318297207576,0.00391432337434095,-0.108,-4.462,-7.963
1621785018506.877,0.045,0.126,0.012,-0.15693601462522852,-4.445595313279043,-7.908503074621905
1621785018511.878,0.026,0.129,0.012,-0.21140568389562905,-4.42733559460317,-7.847843670207141
1621785018516.879,0.0,0.136,0.014,-0.26587535316602956,-4.4090758759272966,-7.787184265792376
1621785018518.543,-0.005656707674282367,0.13267252489748096,0.016994727592267136,-0.284,-4.403,-7.767
1621785018521.88,-0.017,0.126,0.023,-0.3143545194966083,-4.421171413031983,-7.803342826063966
1621785018526.881,-0.042,0.122,0.023,-0.3598485443640374,-4.448405931319968,-7.857811862639936
1621785018531.883,-0.058,0.113,0.023,-0.40534923176866944,-4.475644438065598,-7.912288876131196
1621785018534.703,-0.06363854715875805,0.11130843585237259,0.023563854715875805,-0.431,-4.491,-7.943
1621785018536.884,-0.068,0.11,0.024,-0.42708584118926757,-4.514889865844815,-7.989430021754894
1621785018541.885,-0.065,0.099,0.017,-0.41811140319071793,-4.569664883973894,-8.09588542422045
1621785018546.886,-0.056,0.087,0.012,-0.40913696519216824,-4.624439902102973,-8.202340826686005
1621785018550.863,-0.0488427065026362,0.08859050966608084,0.010409490333919157,-0.402,-4.668,-8.287
1621785018551.887,-0.047,0.089,0.01,-0.3858436437797417,-4.674209109449355,-8.294412916383413
1621785018556.888,-0.026,0.087,0.01,-0.3069340584636302,-4.704535146159076,-8.33061849082257
1621785018561.889,-0.007,0.068,0.005,-0.22802447314751872,-4.734861182868797,-8.366824065261726
1621785018566.891,0.01,0.063,0.0,-0.14909562655789715,-4.7651946219502985,-8.403038477226376
1621785018567.024,0.010531146260495998,0.0630531146260496,0.00013278656512399922,-0.147,-4.766,-8.404
1621785018571.892,0.03,0.065,0.005,-0.08194290375203914,-4.766,-8.339244094012447
1621785018576.893,0.045,0.066,0.003,-0.015110929853181077,-4.766,-8.272721527400158
1621785018581.894,0.059,0.065,0.0,0.05172104404567701,-4.766,-8.206198960787868
1621785018583.187,0.06132688927943761,0.06396582698691662,0.0,0.069,-4.766,-8.189
1621785018586.895,0.068,0.061,0.0,0.06441175759772824,-4.734570539544438,-8.105723400398768
1621785018591.896,0.066,0.068,-0.005,0.05822361186635249,-4.692181741284514,-7.993408555374297
1621785018596.898,0.065,0.072,-0.005,0.05203425774877651,-4.649784665579118,-7.881071778140293
1621785018599.35,0.05862565905096661,0.07347100175746923,-0.006961335676625659,0.049,-4.629,-7.826
1621785018601.899,0.052,0.075,-0.009,0.03669593400117856,-4.613541045283531,-7.805808712207062
1621785018606.9,0.042,0.082,-0.009,0.012554507955215087,-4.583209509995013,-7.766192013054712
1621785018611.901,0.019,0.087,-0.005,-0.011586918090748376,-4.552877974706496,-7.726575313902362
1621785018615.508,0.007459848669758358,0.08988503783256041,-0.006442518916280206,-0.029,-4.531,-7.698
1621785018616.902,0.003,0.091,-0.007,-0.04426991705319776,-4.531,-7.7039526795292135
1621785018621.903,-0.01,0.087,-0.009,-0.09904907308081647,-4.531,-7.725307265777268
1621785018626.904,-0.031,0.094,-0.007,-0.1538282291084352,-4.531,-7.746661852025323
1621785018631.667,-0.04623545490042952,0.08066897696212418,-0.0050955681374463095,-0.206,-4.531,-7.767
1621785018631.906,-0.047,0.08,-0.005,-0.2074492749244713,-4.532153504531721,-7.769898549848943
1621785018636.907,-0.059,0.079,-0.005,-0.23777302114803625,-4.556288731117824,-7.830546042296072
1621785018641.908,-0.075,0.07,-0.009,-0.2680967673716012,-4.580423957703927,-7.891193534743203
1621785018646.909,-0.087,0.066,-0.009,-0.29842051359516614,-4.60455918429003,-7.951841027190333
1621785018647.829,-0.08810398359695372,0.06471201913688733,-0.008264010935364186,-0.304,-4.609,-7.963
1621785018651.91,-0.093,0.059,-0.005,-0.2843029112719252,-4.633747624299376,-8.04481867625508
1621785018656.911,-0.089,0.054,-0.003,-0.2601644030155157,-4.664075493647172,-8.145086325935551
1621785018661.912,-0.086,0.042,-0.002,-0.23602471635116556,-4.694404843558792,-8.245358870541313
1621785018663.989,-0.08060215736040609,0.03161953338539633,-0.004076093322920735,-0.226,-4.707,-8.287
1621785018666.914,-0.073,0.017,-0.007,-0.21532126293526702,-4.710619910869401,-8.269262436739936
1621785018671.915,-0.066,0.007,-0.009,-0.19706375103859808,-4.716808897953018,-8.238936400030214
1621785018676.916,-0.063,-0.007,-0.014,-0.17880623914192917,-4.7229978850366345,-8.208610363320492
1621785018680.15,-0.05588683850810389,-0.0160531146260496,-0.020466510447178284,-0.167,-4.727,-8.189
1621785018681.917,-0.052,-0.021,-0.024,-0.14338641855969067,-4.729077120589658,-8.160029633881102
1621785018686.919,-0.049,-0.028,-0.028,-0.07654543257612373,-4.734956651764137,-8.078025646447559
1621785018691.92,-0.054,-0.021,-0.03,-0.00971749637506042,-4.740835035041083,-7.996037669163847
1621785018696.314,-0.0575145479398555,-0.01484954110525288,-0.03,0.049,-4.746,-7.924
1621785018696.921,-0.058,-0.014,-0.03,0.05489615686748444,-4.746751102785667,-7.921784246782283
1621785018701.922,-0.061,-0.003,-0.019,0.10348134328358208,-4.752940298507463,-7.9035261194029856
1621785018706.923,-0.068,0.005,-0.017,0.15206415795516343,-4.759129192096199,-7.885268883316213
1621785018711.924,-0.075,0.023,-0.012,0.2006469726267448,-4.765318085684935,-7.8670116472294405
1621785018712.475,-0.07477963288420231,0.024873120484280413,-0.011669449326303457,0.206,-4.766,-7.865
1621785018716.925,-0.073,0.04,-0.009,0.19526122818944028,-4.792984606088073,-7.902723377898633
1621785018721.926,-0.077,0.049,-0.002,0.18319270337638793,-4.823310642797795,-7.945117939421407
1621785018726.928,-0.077,0.054,0.003,0.17112182188987085,-4.85364260140494,-7.987520779515069
1621785018728.636,-0.07676340090600682,0.05452218566559728,0.003367579796541533,0.167,-4.864,-8.002
1621785018744.798,-0.07452457014237782,0.05946339365052296,0.0068458220108139,0.029,-4.805,-8.228
1621785018760.958,-0.07228604375151125,0.06440392987001262,0.01032359135227768,-0.088,-4.805,-8.1
1621785018777.12,-0.07004721298788225,0.06934513785493829,0.013801833566550046,-0.049,-4.805,-8.041
1621785018793.283,-0.06780828076666577,0.07428656976167598,0.01728023340509194,0.01,-4.786,-8.061
1621785018809.444,-0.06556958527982007,0.07922747918418564,0.0207582654536716,-0.01,-4.844,-8.228
1621785018825.608,-0.0633305177818203,0.08416920965333934,0.0242368754579062,0.029,-4.844,-8.208
1621785018841.771,-0.061091551741408,0.08911071620068102,0.027715327837871274,0.01,-4.766,-7.983
1621785018857.933,-0.058852720977779,0.0940519241856067,0.03119357005214364,0.108,-4.766,-7.737
1621785018874.097,-0.05661365347977923,0.0989936546547604,0.034672180056378246,0.147,-4.766,-7.904
1621785018890.261,-0.05437455216258363,0.10393545976451808,0.03815084260203602,0.127,-4.766,-8.081
1621785018906.424,-0.052135586122171326,0.10887696631185977,0.041629294982001096,0.147,-4.688,-8.326
1621785018922.585,-0.04989692445452146,0.11381780109376544,0.04510727448915758,0.265,-4.57,-8.228
1621785018938.746,-0.047658228967675756,0.1187587105162751,0.04858530653773724,0.382,-4.423,-8.081
1621785018954.908,-0.045419432023242584,0.12369984386059679,0.05206349621058643,0.431,-4.384,-8.228
1621785018971.071,-0.043180465982830284,0.12864135040793848,0.0555419485905515,0.451,-4.384,-8.404
1621785018987.233,-0.040941669038397105,0.13358248375226014,0.05902013826340069,0.431,-4.286,-8.189
1621785019003.394,-0.03870297355155141,0.1385233931747698,0.06249817031198035,0.324,-4.168,-7.826
1621785019019.556,-0.03646417660711824,0.14346452651909147,0.06597635998482954,0.382,-4.227,-7.6
1621785019035.721,-0.03422494001313933,0.14840663019126518,0.06945523269618002,0.167,-4.403,-7.679
1621785019051.882,-0.03198624452629364,0.15334753961377484,0.07293326474475968,-0.108,-4.629,-8.12
1621785019068.043,-0.029747582858643762,0.15828837439568053,0.07641124425191617,-0.245,-4.609,-8.561
1621785019084.205,-0.027508752095014764,0.1632295823806062,0.07988948646618854,-0.245,-4.246,-8.306
1621785019100.369,-0.025269684597014987,0.1681713128497599,0.08336809647042313,0.127,-4.04,-7.659
1621785019116.53,-0.023030989110169292,0.17311222227226955,0.0868461285190028,0.363,-4.08,-7.365
1621785019132.689,-0.020792597996086022,0.1780524599293432,0.09032368769477388,0.343,-4.207,-7.639
1621785019148.849,-0.018554037786023624,0.18299307078943686,0.09380150957766083,0.049,-4.364,-7.885
1621785019165.008,-0.016315646671940354,0.18793330844651052,0.0972790687534319,-0.226,-4.609,-8.002
1621785019181.168,-0.014077120281073774,0.1928738446660002,0.10075683809489568,-0.51,-4.952,-8.159
1621785019197.329,-0.011838424794228086,0.19781475408850985,0.10423487014347535,-0.588,-5.335,-8.581
1621785019213.489,-0.009599898403361506,0.20275529030799952,0.10771263948493913,-0.569,-5.452,-8.983
1621785019229.648,-0.0073615072892782435,0.20769552796507315,0.1111901986607102,-0.471,-5.286,-8.983
1621785019245.807,-0.005123116175194967,0.2126357656221468,0.11466775783648127,-0.206,-5.09,-8.581
1621785019261.967,-0.002884555965132568,0.21757637648224049,0.11814557971936823,-0.029,-4.825,-8.345
1621785019278.128,-0.0006458942974826992,0.22251721126414614,0.12162355922652471,0.127,-4.629,-8.483
1621785019294.289,0.0015928011893630023,0.2274581206866558,0.12510159127510437,0.304,-4.491,-8.502
1621785019310.448,0.003831192303446279,0.23239835834372946,0.12857915045087545,0.402,-4.344,-8.306
1621785019326.609,0.006069853971096148,0.23733919312563512,0.13205712995803193,0.382,-4.305,-8.345
1621785019342.769,0.008308414181158547,0.2422798039857288,0.13553495184091888,0.324,-4.227,-8.463
1621785019358.931,0.010547211125591718,0.24722093733005046,0.1390131415137681,0.245,-4.109,-8.444
1621785019375.093,0.012786041889220723,0.25216214531497616,0.14249138372804043,0.226,-4.04,-8.267
1621785019391.254,0.015024703556870592,0.2571029800968818,0.14596936323519694,0.324,-4.021,-8.081
1621785019407.413,0.017263128490149687,0.2620432923945595,0.14944697495239118,0.343,-4.129,-8.14
1621785019423.573,0.019501654881016253,0.2669838286140491,0.15292474429385497,0.343,-4.305,-8.483
1621785019439.733,0.021740181271882833,0.2719243648335388,0.15640251363531874,0.363,-4.344,-8.463
1621785019455.892,0.02397860620516193,0.27686467713121643,0.159880125352513,0.382,-4.384,-8.326
1621785019472.052,0.026217132596028495,0.28180521335070613,0.16335789469397677,0.363,-4.442,-8.483
1621785019488.211,0.02845552371011177,0.28674545100777976,0.16683545386974785,0.382,-4.511,-8.581
1621785019504.371,0.03069408392017417,0.29168606186787344,0.1703132757526348,0.431,-4.491,-8.483
1621785019520.532,0.03293274558782404,0.2966268966497791,0.17379125525979128,0.53,-4.364,-8.267
1621785019536.693,0.03517144107466974,0.3015678060722888,0.17726928730837094,0.53,-4.187,-8.179
1621785019552.852,0.037409832188753,0.3065080437293624,0.18074684648414202,0.51,-4.148,-8.12
1621785019569.012,0.03964835857961958,0.31144857994885206,0.1842246158256058,0.402,-4.227,-8.12
1621785019585.174,0.04188718934324859,0.31638978793377776,0.18770285803987816,0.304,-4.305,-8.228
1621785019601.335,0.044125851010898456,0.3213306227156834,0.19118083754703466,0.265,-4.384,-8.345
1621785019617.497,0.04636468177452745,0.3262718307006091,0.19465907976130703,0.304,-4.423,-8.306
1621785019633.658,0.04860334344217733,0.33121266548251477,0.1981370592684635,0.402,-4.442,-8.306
1621785019649.82,0.05084217420580632,0.3361538734674404,0.20161530148273588,0.431,-4.364,-8.287
1621785019665.982,0.053080971150239506,0.3410950068117621,0.20509349115558506,0.49,-4.246,-8.208
1621785019682.142,0.05531953136030189,0.34603561767185576,0.208571313038472,0.49,-4.168,-8.12
1621785019698.304,0.057558328304735076,0.3509767510161774,0.2120495027113212,0.412,-4.109,-8.041
1621785019714.464,0.05979688851479746,0.3559173618762711,0.21552732459420815,0.431,-4.148,-7.963
1621785019730.625,0.062035550182447344,0.36085819665817676,0.21900530410136465,0.412,-4.207,-7.983
1621785019746.785,0.06427407657331392,0.36579873287766645,0.22248307344282842,0.382,-4.286,-8.002
1621785019762.947,0.06651290733694291,0.3707399408625921,0.2259613156571008,0.343,-4.403,-8.002
1621785019779.108,0.0687515690045928,0.37568077564449776,0.22943929516425726,0.265,-4.442,-8.081
1621785019795.269,0.07099026449143848,0.38062168506700744,0.23291732721283695,0.186,-4.491,-8.159
1621785019811.448,0.07323142877957943,0.38556804325360927,0.23639919478530846,0.186,-4.511,-8.179
1621785019827.593,0.07546789219950066,0.3905040263962548,0.2398737590999585,0.206,-4.491,-8.14
1621785019843.756,0.07770685823991295,0.39544553294359647,0.24335221147992356,0.284,-4.491,-8.12
1621785019859.919,0.07994579046112944,0.40038696485033415,0.24683061131846545,0.304,-4.511,-8.12
1621785019876.08,0.08218448594797513,0.40532787427284384,0.2503086433670451,0.284,-4.531,-8.12
1621785019892.24,0.08442301233884171,0.4102684104923335,0.2537864127085089,0.284,-4.462,-8.159
1621785019908.401,0.08666167400649157,0.41520924527423914,0.2572643922156654,0.265,-4.403,-8.12
1621785019924.562,0.08890036949333728,0.4201501546967488,0.26074242426424504,0.186,-4.384,-8.041
1621785019940.724,0.09113920025696627,0.4250913626816745,0.26422066647851744,0.147,-4.423,-8.14
1621785019956.886,0.09337799720139946,0.4300324960259962,0.2676988561513666,0.147,-4.442,-8.228
1621785019973.048,0.09561682796502845,0.43497370401092184,0.27117709836563897,0.108,-4.442,-8.267
1621785019989.207,0.09785521907911172,0.4399139416679955,0.27465465754141005,0.127,-4.423,-8.287
1621785020005.369,0.10009401602354488,0.4448550750123172,0.27813284721425924,0.206,-4.423,-8.247
1621785020021.531,0.1023328467871739,0.4497962829972429,0.2816110894285316,0.226,-4.403,-8.267
1621785020037.692,0.10457150845482376,0.45473711777914855,0.2850890689356881,0.304,-4.364,-8.306
1621785020053.854,0.10681033921845275,0.4596783257640742,0.2885673111499604,0.382,-4.384,-8.287
1621785020070.016,0.10904916998208176,0.4646195337489999,0.2920455533642328,0.412,-4.403,-8.365
1621785020086.177,0.11128783164973162,0.46956036853090555,0.2955235328713893,0.451,-4.384,-8.365
1621785020102.339,0.11352666241336064,0.47450157651583125,0.29900177508566167,0.471,-4.325,-8.306
1621785020118.5,0.11576532408101049,0.4794424112977369,0.3024797545928182,0.471,-4.344,-8.267
1621785020134.661,0.11800398574866038,0.48438324607964256,0.3059577340999746,0.431,-4.364,-8.326
1621785020150.824,0.12024295178907267,0.48932475262698427,0.3094361864799397,0.402,-4.286,-8.365
1621785023641.683,0.6038087186284126,1.5565778327437654,1.0607028257105147,0.304,-3.481,-8.444
1621785023643.064,0.604,1.557,1.061,0.3986782493088184,-3.553119532867006,-8.502618482875317
1621785023648.081,0.503,1.642,1.11,0.7426736565394086,-3.8151521354866977,-8.715597588796062
1621785023653.125,0.412,1.705,1.162,1.0885104017162452,-4.078587345711653,-8.92971672886042
1621785023657.843,0.35155997690420054,1.7672997161141317,1.214071404513304,1.412,-4.325,-9.13
1621785023658.199,0.347,1.772,1.218,1.4199958604644136,-4.3472474354519495,-9.134317324107508
1621785023663.302,0.307,1.84,1.257,1.534625130304724,-4.66618837908477,-9.196210814159025
1621785023668.435,0.278,1.878,1.283,1.649928948044296,-4.987006163979998,-9.25846852291097
1621785023673.598,0.26,1.897,1.299,1.7659018295538669,-5.30968553126558,-9.321087489235698
1621785023674.003,0.2594538400037624,1.896765931430184,1.2995461599962375,1.775,-5.335,-9.326
1621785023678.789,0.253,1.894,1.306,1.8650298507462686,-5.529571091908877,-9.302900235663786
1621785023684.009,0.258,1.885,1.311,1.9632204362801378,-5.741779034987008,-9.277706598586017
1621785023689.259,0.265,1.866,1.318,2.06197588978186,-5.955207761798296,-9.252368028279653
1621785023690.164,0.2680858807751006,1.861542616658188,1.3173142487166443,2.079,-5.992,-9.248
1621785023694.538,0.283,1.84,1.314,1.8889374043384177,-6.068355993033198,-9.134293397371614
1621785023699.847,0.302,1.799,1.293,1.65825471050826,-6.16103075684805,-8.996285467356309
1621785023705.184,0.314,1.73,1.262,1.426341426083285,-6.254199899720272,-8.857541325803556
1621785023708.667,0.31983954154727795,1.6800394778732888,1.2289092645654252,1.275,-6.315,-8.767
1621785023710.552,0.323,1.653,1.211,1.1704745067967932,-6.343526524921576,-8.725878745207389
1621785023715.948,0.337,1.555,1.155,0.8712616521436041,-6.425186057859881,-8.608165758103869
1621785023721.374,0.351,1.459,1.101,0.570383645869641,-6.5073000348553505,-8.48979768560474
1621785023726.178,0.3659708646616541,1.3841456766917295,1.055206766917293,0.304,-6.58,-8.385
1621785023726.829,0.368,1.374,1.049,0.2817807862535798,-6.560667822250236,-8.38715614080763
1621785023732.313,0.396,1.279,0.997,0.09464618588909138,-6.397848408446265,-8.405315583935105
1621785023737.827,0.421,1.182,0.953,-0.09351314761780788,-6.234137409391743,-8.423574466627386
1621785023743.37,0.445,1.1,0.918,-0.2826722207758396,-6.069556571068389,-8.441930363529234
1621785023743.995,0.44600955218648675,1.0924844448339321,0.9172147927438437,-0.304,-6.051,-8.444
1621785023748.942,0.454,1.033,0.911,-0.13807014708259252,-5.7619873121060285,-8.438541781154033
1621785023754.544,0.45,0.997,0.908,0.04983955605840207,-5.434690641668014,-8.432360540919131
1621785023760.175,0.438,0.984,0.915,0.23872377565863917,-5.105696581541943,-8.426147244221754
1621785023762.121,0.42906043221325973,0.9919080791959625,0.9198136134236294,0.304,-4.992,-8.424
1621785023765.835,0.412,1.007,0.929,0.7328419686030337,-4.9148165065907135,-8.38047092799894
1621785023771.524,0.389,1.066,0.951,1.3897493806716568,-4.796585520302047,-8.313792356097238
1621785023777.243,0.361,1.157,0.986,2.0501242895939593,-4.67773044975823,-8.246761820229185
1621785023780.55,0.3339586306489976,1.215110176690452,1.0032604485219163,2.432,-4.609,-8.208
1621785023782.991,0.314,1.258,1.016,2.539373667335714,-4.69721841357558,-8.12369082188567
1621785023788.769,0.265,1.36,1.035,2.7935457602377287,-4.90604669864192,-7.924116375153142
1621785023794.576,0.182,1.459,1.047,3.048985115866851,-5.115916169225556,-7.723546881109402
1621785023799.282,0.1110404517883288,1.5122196611587533,1.0453872829951891,3.256,-5.286,-7.561
1621785023800.412,0.094,1.525,1.045,3.2373633962457684,-5.3709924094778945,-7.604089727151503
1621785023806.277,0.019,1.602,1.045,3.1406455021027795,-5.8120752897733094,-7.827711355010771
1621785023812.171,-0.012,1.642,1.045,3.043452533593189,-6.255324751256539,-8.052431403220844
1621785023818.095,0.01,1.681,1.045,2.9457603343932712,-6.700850959072725,-8.278305723663966
1621785023818.323,0.012489747375328084,1.68153625328084,1.0451532152230971,2.942,-6.718,-8.287
1621785023824.048,0.075,1.695,1.049,2.7040701404575915,-6.894967731351194,-8.495928458752415
1621785023830.032,0.154,1.677,1.049,2.4553852424881057,-7.079934856955364,-8.714301018412186
1621785023836.043,0.218,1.644,1.056,2.205574109362577,-7.26573965497659,-8.933662535808484
1621785023837.669,0.2344185257032008,1.6326954413191077,1.054115906886518,2.138,-7.316,-8.993
1621785023842.084,0.279,1.602,1.049,1.9111047590653298,-7.229959527447546,-8.81013591473186
1621785023848.155,0.323,1.56,1.044,1.599104982670592,-7.1116467409533035,-8.558682629597884
1621785023854.254,0.354,1.511,1.044,1.2856748779487943,-6.992791562628107,-8.306076584802296
1621785023857.322,0.3680117070839804,1.4874803488233186,1.0419983275594313,1.128,-6.933,-8.179
1621785023860.385,0.382,1.464,1.04,1.0481986495743223,-6.844297729719151,-8.054080193756729
1621785023866.543,0.387,1.422,1.037,0.887762696937078,-6.66596699774929,-7.802936221743811
1621785023872.73,0.389,1.381,1.04,0.7265698209218123,-6.486794916332323,-7.550607373519914
1621785023877.281,0.38375260385249527,1.351764507178188,1.046746652189649,0.608,-6.355,-7.365
1621785023878.801,0.382,1.342,1.049,0.6031193930697278,-6.31843680909864,-7.341424186862245
1621785023884.483,0.375,1.302,1.049,0.5848755181760205,-6.181762356505103,-7.253296994579082
1621785023890.17,0.377,1.269,1.054,0.5666151812287415,-6.044964578018708,-7.1650902822066325
1621785023895.656,0.38181900064336266,1.2555067981985846,1.0626742011580528,0.549,-5.913,-7.08
1621785023895.862,0.382,1.255,1.063,0.5521881560810095,-5.908726752200191,-7.077483034672888
1621785023901.557,0.387,1.222,1.075,0.6403006308981021,-5.790625119287457,-7.00792055455413
1621785023907.258,0.4,1.194,1.077,0.728511319054183,-5.672391846039656,-6.9382805375888035
1621785023912.962,0.405,1.166,1.072,0.8167635590075284,-5.554102878803944,-6.868607716573004
1621785023914.076,0.4053902668491276,1.1628778652069791,1.0725854002736914,0.834,-5.531,-6.855
1621785023918.671,0.407,1.15,1.075,0.9387477163064313,-5.4603388327054,-6.80125770374777
1621785023924.384,0.394,1.14,1.07,1.068985286535792,-5.372482609557803,-6.73443747769185
1621785023930.101,0.382,1.115,1.072,1.1993119042897744,-5.2845663163460905,-6.667571564544914
1621785023932.544,0.37687681870546574,1.1068882962836541,1.0724269317745445,1.255,-5.247,-6.639
1621785023935.823,0.37,1.096,1.073,1.3435657764589515,-5.233006607319486,-6.602510900098912
1621785023941.548,0.358,1.091,1.072,1.4981981536432574,-5.208574691724365,-6.538802360698978
1621785023947.28,0.33,1.08,1.07,1.6530151665018133,-5.184113603692714,-6.475017751401253
1621785023951.056,0.3115614408583837,1.0747318402452526,1.075926679724091,1.755,-5.168,-6.433
1621785023953.014,0.302,1.072,1.079,1.7736717701838844,-5.170109804540552,-6.424771762291847
1621785023958.753,0.279,1.091,1.096,1.82839961329019,-5.17629374161471,-6.400654407702628
1621785023964.496,0.251,1.061,1.127,1.8831670349617236,-5.182482150843132,-6.3765196117117835
1621785023969.617,0.21981239644844724,1.0396142147075067,1.1394750414206212,1.932,-5.188,-6.355
1621785023970.243,0.216,1.037,1.141,1.924092443371217,-5.191936953725819,-6.352341715005644
1621785023975.995,0.188,1.028,1.15,1.85142865954487,-5.228114241843618,-6.32791431533636
1621785023981.752,0.166,1.011,1.155,1.77870627838001,-5.264320703955484,-6.303467216987323
1621785023987.512,0.154,0.988,1.178,1.7059438042993256,-5.300547127221186,-6.2790066405942415
1621785023988.22,0.15228068095197764,0.9866491064622681,1.1797193190480224,1.697,-5.305,-6.276
1621785023993.277,0.14,0.977,1.192,1.6809998167107434,-5.318288287816501,-6.281423790945511
1621785023999.046,0.133,0.944,1.206,1.662747990364222,-5.333446584273782,-6.2876108507239925
1621785024004.819,0.117,0.932,1.21,1.644482260218376,-5.34861642795423,-6.293802623654788
1621785024006.868,0.1155813540698166,0.9245521088665372,1.2128372918603667,1.638,-5.354,-6.296
1621785024010.596,0.113,0.911,1.218,1.6202513745412754,-5.361976910318528,-6.327309373000222
1621785024016.378,0.105,0.881,1.22,1.592724151441146,-5.374348695981507,-6.375868631727417
1621785024022.166,0.106,0.857,1.22,1.5651678703425578,-5.386733541419075,-6.42447915006987
1621785024025.562,0.10306738067127678,0.8458560465508517,1.221759571597234,1.549,-5.394,-6.453
1621785024027.956,0.101,0.838,1.223,1.5627992103925885,-5.386461542470715,-6.514329823967061
1621785024033.751,0.11,0.838,1.218,1.596201011114441,-5.368214262446741,-6.662782271619737
1621785024039.55,0.119,0.819,1.227,1.6296267345954891,-5.34995391350802,-6.811341042646618
1621785024044.299,0.12309188438722705,0.8140897387353274,1.2253632462451092,1.657,-5.335,-6.933
1621785024045.353,0.124,0.813,1.225,1.66579602616347,-5.330069743296908,-6.943476795494069
1621785024051.161,0.126,0.81,1.23,1.7142668777740286,-5.302901367871882,-7.00120959327225
1621785024056.973,0.122,0.806,1.23,1.762772367430633,-5.27571357749111,-7.058983647831391
1621785024062.817,0.115,0.817,1.236,1.811544773795001,-5.248376177745477,-7.117075622290861
1621785024063.111,0.11464792553635529,0.8173520744636447,1.2358994072961016,1.814,-5.247,-7.12
1621785024068.666,0.108,0.824,1.234,1.8486450655517705,-5.247,-7.1141279549912255
1621785024074.519,0.093,0.843,1.237,1.8851492980282853,-5.247,-7.107940796944359
1621785024080.377,0.073,0.855,1.244,1.9216839836894808,-5.247,-7.101748477340766
1621785024082.031,0.07017931637453682,0.8609234356134726,1.2445641367250926,1.932,-5.247,-7.1
1621785024086.241,0.063,0.876,1.246,1.9364378675382496,-5.259869815860924,-7.126183418475673
1621785024092.109,0.049,0.883,1.244,1.942623447814394,-5.277807998661743,-7.1626783421049245
1621785024097.984,0.044,0.887,1.244,1.948816491449307,-5.29576782520299,-7.199217299550911
1621785024101.004,0.03937608506043112,0.9049818914316567,1.2450275366532375,1.952,-5.305,-7.218
1621785024103.862,0.035,0.922,1.246,1.9548540835311476,-5.327081593635722,-7.2459399756207095
1621785024109.746,0.031,0.927,1.267,1.9607297363187273,-5.372540591518573,-7.303459523962276
1621785024115.635,0.023,0.932,1.274,1.9666102649643935,-5.41803731314557,-7.361026804388272
1621785024120.031,0.02001615709669401,0.9387136465324385,1.2717621178225205,1.971,-5.452,-7.404
1621785024121.528,0.019,0.941,1.271,1.9556205661053387,-5.461259046936582,-7.407060193479039
1621785024127.427,0.017,0.951,1.264,1.8950207810820494,-5.497742590981216,-7.419118313968368
1621785024133.33,0.021,0.951,1.255,1.8343783590111071,-5.534251804268823,-7.431184918360034
1621785024139.11,0.029802205973478747,0.9490439542281158,1.256956045771884,1.775,-5.57,-7.443
1621785024139.24,0.03,0.949,1.257,1.77406993006993,-5.57,-7.443264764432647
1621785024145.154,0.033,0.949,1.248,1.7317202797202795,-5.57,-7.455320504313205
1621785024151.073,0.038,0.953,1.246,1.6893356643356643,-5.57,-7.467386197743862
1621785024156.997,0.044,0.963,1.248,1.6469143356643356,-5.57,-7.479462342402123
1621785024158.242,0.04714947498455837,0.9594305950175005,1.2465302450072062,1.638,-5.57,-7.482
1621785024162.926,0.059,0.946,1.241,1.5876968817614865,-5.546069390352552,-7.453429782359679
1621785024168.859,0.077,0.927,1.234,1.5239829196894488,-5.515758864706632,-7.417242726231386
1621785024174.799,0.089,0.915,1.227,1.460190301641848,-5.485410920198549,-7.381010996563574
1621785024177.424,0.08679183438757906,0.9123502012650949,1.2252334675100633,1.432,-5.472,-7.365
1621785024180.743,0.084,0.909,1.223,1.3760987942632315,-5.419549485975378,-7.365
1621785024186.692,0.087,0.899,1.223,1.2758968904683337,-5.325532884883869,-7.365
1621785024192.646,0.082,0.894,1.213,1.1756086305368703,-5.231435258281508,-7.365
1621785024196.66,0.07593768436578172,0.8852433218616848,1.2082848656178302,1.108,-5.168,-7.365
1621785024198.605,0.073,0.881,1.206,1.0476989418793035,-5.15418520909275,-7.332328523693803
1621785024204.57,0.065,0.845,1.189,0.8627691373025517,-5.111818347509113,-7.232132442284326
1621785024210.539,0.058,0.803,1.161,0.6777182310652086,-5.069423741899555,-7.1318707472661
1621785024215.949,0.04351048265151825,0.7758321549715967,1.152849646491479,0.51,-5.031,-7.041
1621785024216.513,0.042,0.773,1.152,0.5034097479076461,-5.022689283865836,-7.0404459522577225
1621785024222.493,0.017,0.738,1.155,0.43353025234482495,-4.93456691114281,-7.034571127409521
1621785024228.478,-0.007,0.689,1.155,0.36359084539934605,-4.8463689864549275,-7.028691265763662
1621785024234.467,-0.052,0.649,1.148,0.29360579168612794,-4.75811349836525,-7.022807566557684
1621785024235.289,-0.05762286668567471,0.6428285609547473,1.1478628569101055,0.284,-4.746,-7.022
1621785024240.461,-0.093,0.604,1.147,0.12414537614537613,-4.802003490670158,-6.896671800005134
1621785024246.46,-0.126,0.565,1.134,-0.0612751212751213,-4.866963732963733,-6.751299607299607
1621785024252.197,-0.152,0.52,1.107,-0.23859875259875257,-4.929087318087318,-6.612275467775468
1621785024254.313,-0.1582710789529687,0.5089333900829964,1.1044177910193658,-0.304,-4.952,-6.561
1621785024257.933,-0.169,0.49,1.1,-0.3481408343102517,-4.9941877000487365,-6.5092419420698375
1621785024263.669,-0.188,0.442,1.108,-0.41807911063106734,-5.061031362373056,-6.427234671162687
1621785024269.403,-0.206,0.384,1.103,-0.48799654895348993,-5.127855108734309,-6.345251834191704
1621785024272.848,-0.21741682991227324,0.34494242398432845,1.0915831700877268,-0.53,-5.168,-6.296
1621785024275.136,-0.225,0.319,1.084,-0.5868097302568293,-5.180102942532977,-6.312919419663447
1621785024280.868,-0.239,0.239,1.065,-0.7291250148246735,-5.210422285766996,-6.355304623980392
1621785024286.6,-0.265,0.183,1.051,-0.8714463610368047,-5.240742920394798,-6.397691633613135
1621785024291.375,-0.2824967197750703,0.14717338331771324,1.0418350515463917,-0.99,-5.266,-6.433
1621785024292.331,-0.286,0.14,1.04,-0.9971246934739617,-5.286754541858932,-6.46944951878708
1621785024298.062,-0.302,0.103,1.033,-1.0398328279499012,-5.411165194462756,-6.687941858932103
1621785024303.791,-0.312,0.065,1.023,-1.0825264073829928,-5.535533447593935,-6.906359736321687
1621785024309.519,-0.305,0.035,1.009,-1.1252127092946604,-5.659880500988794,-7.124740382333553
1621785024309.893,-0.3040203768437207,0.03238767158325518,1.0071713701082785,-1.128,-5.668,-7.139
1621785024315.246,-0.29,-0.005,0.981,-1.1505573156416107,-5.750420960998193,-7.3376778954588024
1621785024320.973,-0.265,-0.035,0.958,-1.1746897133888177,-5.838597029689911,-7.550228629463049
1621785024326.698,-0.236,-0.054,0.937,-1.1988149095849217,-5.926746785021829,-7.76271593442104
1621785024328.403,-0.22498422712933752,-0.05935902463978174,0.9271751214937335,-1.206,-5.953,-7.826
1621785024332.425,-0.199,-0.072,0.904,-1.2210000791765636,-5.969956611243072,-7.847304460279757
1621785024338.148,-0.155,-0.101,0.878,-1.2423438242280285,-5.99408432304038,-7.8776187648456055
1621785024343.872,-0.113,-0.126,0.845,-1.2636921219319082,-6.018217181314331,-7.907939535497493
1621785024346.904,-0.08915501130690788,-0.13341844092673977,0.8275136749583991,-1.275,-6.031,-7.924
1621785024349.594,-0.068,-0.14,0.812,-1.2693271416689769,-6.025327141668977,-7.93825487478052
1621785024355.315,-0.028,-0.154,0.777,-1.2572621489959999,-6.013262148996,-7.968572035856206
1621785024361.036,0.005,-0.168,0.747,-1.2451971563230226,-6.001197156323022,-7.998889196931892
1621785024365.397,0.028017352461128773,-0.1772069409844515,0.7216809122927583,-1.236,-5.992,-8.022
1621785024366.72,0.035,-0.18,0.714,-1.2576268614169166,-6.004284645770833,-8.030680168868015
1621785024372.289,0.056,-0.194,0.681,-1.3486640150949543,-6.05599622626142,-8.067218890412262
1621785024377.853,0.07,-0.201,0.649,-1.4396173591974697,-6.107660200632576,-8.103723974099665
1621785024383.382,0.08392192851497322,-0.21492192851497322,0.6042509440590147,-1.53,-6.159,-8.14
1621785024383.413,0.084,-0.215,0.604,-1.5305581240305859,-6.159863969087594,-8.140948638058179
1621785024388.969,0.087,-0.22,0.557,-1.6305677977632045,-6.3146777055157965,-8.310934120656345
1621785024394.522,0.096,-0.215,0.518,-1.7305247353669488,-6.46940980706958,-8.4808299681624
1621785024400.071,0.105,-0.206,0.475,-1.8304113581321941,-6.6240330621241394,-8.650606302212305
1621785024401.326,0.10726272231026589,-0.206,0.46346011621764394,-1.853,-6.659,-8.689
1621785024405.617,0.115,-0.206,0.424,-2.008270521192622,-6.811634756172377,-8.923822701803656
1621785024411.158,0.15,-0.171,0.374,-2.2087723275756295,-7.008732982508759,-9.227050742321168
1621785024416.696,0.197,-0.127,0.333,-2.409168123133972,-7.205726997586945,-9.53011845782607
1621785024419.234,0.2291017337980324,-0.10407019014426258,0.3132803635240658,-2.501,-7.296,-9.669
1621785024422.23,0.267,-0.077,0.29,-2.4927833406209006,-7.279566681241802,-9.621376912986445
1621785024427.76,0.339,-0.04,0.244,-2.4776174710319196,-7.24923494206384,-9.533476770878881
1621785024433.286,0.421,-0.017,0.213,-2.4624629837122867,-7.218925967424574,-9.445642599475295
1621785024437.101,0.4748790611324758,-0.0114739424479512,0.1984940989258719,-2.452,-7.198,-9.385
1621785024438.809,0.499,-0.009,0.192,-2.3269876080020815,-7.128452876175871,-9.179232476619518
1621785024444.329,0.579,-0.003,0.209,-1.9229667127658119,-6.903687228711096,-8.514223370897291
1621785024449.845,0.634,-0.044,0.225,-1.5192495926387424,-6.679090577973738,-7.849714272021471
1621785024454.931,0.6349228724582466,-0.025542550835068446,0.23515159704071234,-1.147,-6.472,-7.237
1621785024455.356,0.635,-0.024,0.236,-1.1273353782389108,-6.454199096947739,-7.1899052618577075
1621785024460.864,0.611,-0.002,0.271,-0.8725085364514713,-6.223523523276241,-6.579621294466404
1621785024466.368,0.553,0.003,0.332,-0.6178737099253404,-5.993021766578832,-5.9697971837944666
1621785024471.869,0.454,0.019,0.38,-0.3633744235836627,-5.762642704216074,-5.360297677865613
1621785024472.72,0.43448880597014927,0.02658768656716418,0.38418097014925373,-0.324,-5.727,-5.266
1621785024477.365,0.328,0.068,0.407,-0.3674383561643836,-5.6859167354348905,-5.18383347086978
1621785024482.86,0.201,0.101,0.449,-0.41882648401826483,-5.637314710898388,-5.0866294217967765
1621785024488.349,0.073,0.129,0.497,-0.47015753424657536,-5.588766669417396,-4.989533338834791
1621785024490.471,0.03122006587732573,0.13789757856316212,0.5132477521588178,-0.49,-5.57,-4.952
1621785024493.834,-0.035,0.152,0.539,-0.5086097325613455,-5.668745519713262,-5.1922174662255305
1621785024499.316,-0.117,0.187,0.579,-0.5389446098704163,-5.829706093189964,-5.583785015164047
1621785024504.794,-0.18,0.202,0.616,-0.5692578715191619,-5.990551971326164,-5.975073545629996
1621785024508.181,-0.20041420672433782,0.21622808347453848,0.6357955943993578,-0.588,-6.09,-6.217
1621785024510.269,-0.213,0.225,0.648,-0.5995790244374145,-6.1548661675116385,-6.389740140076531
1621785024515.739,-0.208,0.237,0.672,-0.6299108428076089,-6.32478625205487,-6.842241348823716
1621785024521.207,-0.176,0.241,0.689,-0.6602318308030226,-6.494645664396525,-7.294580986061418
1621785024525.854,-0.13006524848051484,0.24525321773328565,0.7026102967465141,-0.686,-6.639,-7.679
1621785024526.67,-0.122,0.246,0.705,-0.6887140438534914,-6.6453021018292935,-7.692064211091382
1621785024532.13,-0.051,0.255,0.707,-0.7068758860855322,-6.687474515147762,-7.779487316072731
1621785024537.585,0.019,0.265,0.705,-0.7250214862837401,-6.729609213913092,-7.866832239060715
1621785024543.131,0.093,0.269,0.71,-0.7434700004129331,-6.772447289094438,-7.955635256224966
1621785024543.591,0.0977299154334038,0.269,0.71,-0.745,-6.776,-7.963
1621785024548.674,0.15,0.269,0.71,-0.7563523902997588,-6.731441868073447,-7.707003598740441
1621785024554.215,0.199,0.281,0.723,-0.7687276953066426,-6.6828687959214275,-7.427940470835208
1621785024559.755,0.229,0.307,0.731,-0.7811002739950109,-6.634306424569583,-7.148938821412505
1621785024561.501,0.23341559357911448,0.31583118715822894,0.7351001940377492,-0.785,-6.619,-7.061
1621785024565.291,0.243,0.335,0.744,-0.8659501890604311,-6.515163370053373,-6.971573351352089
1621785024570.825,0.25,0.347,0.749,-0.9841476855454087,-6.363548780321334,-6.840999153664496
1621785024576.357,0.255,0.37,0.749,-1.1023034658803939,-6.211987700834049,-6.710471040310141
1621785024579.386,0.24623451229743454,0.3831482315538482,0.7495478429814103,-1.167,-6.129,-6.639
1621785024581.886,0.239,0.394,0.75,-1.1930356776706992,-6.085047296835486,-6.6417995352334085
1621785024587.414,0.225,0.417,0.757,-1.2506065614107034,-5.987857740414189,-6.64798995283986
1621785024592.939,0.197,0.431,0.77,-1.3081443920442895,-5.890723983323081,-6.654176816348849
1621785024597.246,0.1712691593741713,0.44347555909131087,0.7723391673296208,-1.353,-5.815,-6.659
1621785024598.463,0.164,0.447,0.773,-1.3751062315190012,-5.824415617128464,-6.664321870550871
1621785024603.983,0.138,0.468,0.78,-1.475391523381886,-5.867129722921915,-6.688464625999343
1621785024609.501,0.117,0.469,0.784,-1.5756413317270836,-5.90982871536524,-6.712598839119483
1621785024615.017,0.11,0.473,0.78,-1.6758556565545943,-5.9525125944584385,-6.736724509911292
1621785024615.08,0.11011423511179987,0.47297715297764,0.7798971883993802,-1.677,-5.953,-6.737
1621785024620.531,0.12,0.471,0.771,-1.6500697661668358,-6.106012692233889,-6.785045985361441
1621785024626.042,0.136,0.489,0.764,-1.6228428136736204,-6.260711285945339,-6.833621343786836
1621785024631.552,0.169,0.504,0.759,-1.5956206858740645,-6.415382466624633,-6.882188094520135
1621785024632.892,0.17873356386044245,0.5083801037371991,0.7582699827104669,-1.589,-6.453,-6.894
1621785024637.059,0.209,0.522,0.756,-1.5384024676447579,-6.496570097305903,-6.8480874243443175
1621785024642.564,0.248,0.545,0.749,-1.4715596530475001,-6.554129187653542,-6.787433759246806
1621785024648.066,0.288,0.548,0.737,-1.404752412060991,-6.611657645169703,-6.726812373907196
1621785024650.681,0.30559175248579545,0.5603617720170454,0.7308191139914773,-1.373,-6.639,-6.698
1621785024653.566,0.325,0.574,0.724,-1.3538360682773976,-6.589628514884143,-6.605590871608807
1621785024659.064,0.353,0.597,0.714,-1.3173148071795717,-6.495539842225337,-6.42948411258624
1621785024664.561,0.374,0.62,0.698,-1.28080003298425,-6.401467881586543,-6.253408633627442
1621785024668.445,0.37753549046624296,0.632020667585226,0.6930503133472599,-1.255,-6.335,-6.129
1621785024670.054,0.379,0.637,0.691,-1.2692395298586547,-6.284300017891796,-6.078300017891795
1621785024675.545,0.372,0.658,0.672,-1.317837597544695,-6.111266133582901,-5.9052661335829
1621785024681.033,0.346,0.686,0.653,-1.3664097358895662,-5.938324570940971,-5.732324570940971
1621785024686.184,0.3140816017797553,0.7104081868743047,0.6314081423804226,-1.412,-5.776,-5.57
1621785024686.52,0.312,0.712,0.63,-1.4203638769434337,-5.768755099790495,-5.57
1621785024692.004,0.269,0.726,0.613,-1.5568968739662585,-5.650488422097254,-5.57
1621785024697.486,0.222,0.737,0.59,-1.6933873221964935,-5.532258600727754,-5.57
1621785024702.965,0.166,0.744,0.564,-1.8297987512404896,-5.4140972268166285,-5.57
1621785024703.897,0.15766593886462882,0.7436598342393727,0.5595778451118438,-1.853,-5.394,-5.57
1621785024708.444,0.117,0.742,0.538,-1.9312833519985622,-5.414085860052263,-5.69386280365562
1621785024713.919,0.068,0.749,0.51,-2.0255386093713272,-5.438269774772906,-5.842996944432923
1621785024719.368,0.031,0.745,0.483,-2.1193483346468125,-5.462339375337011,-5.991426147911568
1621785024721.555,0.019354238579817995,0.7417873761599498,0.46854319271977407,-2.157,-5.472,-6.051
1621785024724.814,0.002,0.737,0.447,-2.160705739468388,-5.508316246790201,-6.18181260323409
1621785024730.258,-0.014,0.73,0.415,-2.1668960371989727,-5.5689811645499345,-6.400330113123742
1621785024735.699,-0.026,0.705,0.384,-2.173082726073982,-5.629610715525019,-6.618720230411548
1621785024739.144,-0.032967456683723854,0.6961323278570787,0.3649978454080258,-2.177,-5.668,-6.757
1621785024741.138,-0.037,0.691,0.354,-2.1859697344640625,-5.693660253023773,-6.8181985680522725
1621785024746.575,-0.04,0.663,0.326,-2.2104286528569443,-5.763631336021132,-6.985076504935353
1621785024752.008,-0.04,0.632,0.298,-2.2348699986097595,-5.833552147921591,-7.151834547476714
1621785024756.705,-0.037404927835978596,0.5939389415943528,0.2694542061957646,-2.256,-5.894,-7.296
1621785024757.438,-0.037,0.588,0.265,-2.2535336907331334,-5.91159857968391,-7.313640381535891
1621785024762.866,-0.024,0.553,0.234,-2.2352680498503097,-6.041934762932535,-7.444286151918123
1621785024768.292,-0.007,0.51,0.204,-2.2170089814105687,-6.1722240479008565,-7.574884912622712
1621785024773.716,0.009,0.469,0.183,-2.1987564854139108,-6.302466434588874,-7.705436663649655
1621785024774.238,0.011118738738738738,0.46553297297297297,0.1811701801801802,-2.197,-6.315,-7.718
1621785024779.136,0.031,0.433,0.164,-2.0680172096396294,-6.375434452750196,-7.8030558964632375
1621785024784.553,0.047,0.394,0.145,-1.925365921008591,-6.442273234408122,-7.89712529287069
1621785024789.968,0.066,0.347,0.136,-1.7827660660493139,-6.509087916992078,-7.991160772062925
1621785024791.744,0.06960959985564127,0.3309208733703252,0.13271854558578067,-1.736,-6.531,-8.022
1621785024795.38,0.077,0.298,0.126,-1.6931478336173422,-6.518726806715646,-8.01783959549683
1621785024800.79,0.089,0.25,0.115,-1.6293860658714419,-6.5004649411961895,-8.011649132608879
1621785024806.197,0.106,0.197,0.105,-1.5656617034947062,-6.482213788864989,-8.005462301310166
1621785024809.223,0.11495560673802105,0.17069290520706318,0.09884302036761053,-1.53,-6.472,-8.002
1621785024811.603,0.122,0.15,0.094,-1.5113159168485255,-6.44799709025796,-7.975269486878183
1621785024817.004,0.136,0.11,0.086,-1.468918820994908,-6.393530748139444,-7.914613787700745
1621785024822.403,0.155,0.079,0.079,-1.426535140730793,-6.339081640646858,-7.853977281629456
1621785024826.675,0.16370704786030943,0.05367040622455442,0.07741690038903465,-1.393,-6.296,-7.806
1621785024827.8,0.166,0.047,0.077,-1.385380696149319,-6.285216747940138,-7.776878762401211
1621785024833.194,0.175,0.028,0.072,-1.348848382938176,-6.23351423687013,-7.637251022924724
1621785024838.585,0.18,0.012,0.075,-1.3123375651589035,-6.18184214730116,-7.497705439717505
1621785024843.974,0.185,0.0,0.075,-1.2758383218429459,-6.1301864385404405,-7.3582040945014295
1621785024844.098,0.185,-0.00011490866234531526,0.07504596346493812,-1.275,-6.129,-7.355
1621785024849.36,0.185,-0.005,0.077,-1.206640859400216,-6.093308059332856,-7.215559452139379
1621785024854.744,0.178,-0.016,0.075,-1.1367022972536802,-6.0567914649377625,-7.072897163867021
1621785024860.124,0.176,-0.01,0.079,-1.0668113080452994,-6.020299709510378,-6.93033191596851
1621785024861.495,0.17294062102778282,-0.009235155256945706,0.08103958598147812,-1.049,-6.011,-6.894
1621785024865.502,0.164,-0.007,0.087,-0.9994043740424754,-5.979397205785205,-6.830563734240376
1621785024870.878,0.15,-0.003,0.094,-0.932861863465782,-5.936995699045638,-6.745451220712047
1621785024876.25,0.126,0.0,0.098,-0.8663677034871463,-5.894625001756926,-6.660400550971931
1621785024878.865,0.11967077272727272,0.010224136363636364,0.09946059090909092,-0.834,-5.874,-6.619
1621785024881.621,0.113,0.021,0.101,-0.834,-5.870980403474441,-6.615980403474441
1621785024886.99,0.101,0.037,0.103,-0.834,-5.865098221953176,-6.6100982219531765
1621785024892.354,0.086,0.056,0.101,-0.834,-5.859221390058142,-6.604221390058141
1621785024896.207,0.07450493922702235,0.07755323894933308,0.10387376519324441,-0.834,-5.855,-6.6
1621785024897.717,0.07,0.086,0.105,-0.8313834503765124,-5.87977000310235,-6.603401514510534
1621785024903.076,0.058,0.103,0.098,-0.8220975547846687,-5.967676481371803,-6.61547317877993
1621785024908.433,0.052,0.112,0.099,-0.8128146205262713,-6.055554925684632,-6.627540993315847
1621785024913.52,0.04440047414972189,0.13479857755083433,0.09425029634357618,-0.804,-6.139,-6.639
1621785024913.788,0.044,0.136,0.094,-0.8027905439755973,-6.143868835790544,-6.641124300965938
1621785024919.14,0.047,0.159,0.091,-0.7786443823080834,-6.241072614811049,-6.6835348669717
1621785024924.49,0.059,0.169,0.087,-0.754505931198102,-6.338245353894821,-6.725931890075128
1621785024929.836,0.065,0.188,0.08,-0.7303862057278427,-6.435342710275095,-6.7682960232728915
1621785024930.808,0.06809260359084472,0.1921841107405546,0.08,-0.726,-6.453,-6.776
1621785024935.18,0.082,0.211,0.08,-0.6961115181690878,-6.457812552159215,-6.800822637452791
1621785024940.521,0.087,0.22,0.077,-0.6595967297056452,-6.463692051996549,-6.83114847871904
1621785024945.86,0.098,0.229,0.079,-0.6230952940011598,-6.469569401813373,-6.861463230405816
1621785024948.068,0.10213723696248857,0.22941372369624888,0.07734510521500457,-0.608,-6.472,-6.874
1621785024951.197,0.108,0.23,0.075,-0.6150447357293869,-6.457910528541227,-6.888270105708245
1621785024956.563,0.113,0.236,0.07,-0.6271262156448203,-6.43374756871036,-6.912742847075405
1621785024961.927,0.112,0.243,0.073,-0.6392032980972516,-6.409593403805497,-6.9372066807611
1621785024965.39,0.11522906706734053,0.23395861221144654,0.0723541865865319,-0.647,-6.394,-6.953
1621785024967.289,0.117,0.229,0.072,-0.6556639269148892,-6.38752947230407,-6.950806600781041
1621785024972.649,0.119,0.223,0.073,-0.6801153797352356,-6.3692682607040645,-6.9446163595607
1621785024978.006,0.119,0.222,0.066,-0.7045545812127278,-6.351016198841127,-6.938429219946145
1621785024982.707,0.1137328348682411,0.21673283486824108,0.06336641743412054,-0.726,-6.335,-6.933
1621785024983.361,0.113,0.216,0.063,-0.7315607596724089,-6.330536260943236,-6.933756565941824
1621785024988.714,0.115,0.204,0.066,-0.7770722253600677,-6.294003247670149,-6.939948602089805
1621785024994.064,0.099,0.18,0.056,-0.8225567071448743,-6.2574918949449305,-6.946136966958487
1621785024999.412,0.094,0.162,0.061,-0.8680266591358373,-6.2209922055916405,-6.952323354984468
1621785024999.997,0.0924681006530575,0.16035867927113304,0.06001520756267982,-0.873,-6.217,-6.953
1621785025004.758,0.08,0.147,0.052,-0.8892671464321565,-6.222514286926154,-6.977262862475081
1621785025010.101,0.075,0.133,0.049,-0.9075229538096113,-6.228702696206648,-7.004491863309251
1621785025015.442,0.066,0.112,0.042,-0.9257712536583297,-6.234888560562146,-7.031709666473441
1621785025017.265,0.0656584953121427,0.1058529156185685,0.040633981248570775,-0.932,-6.237,-7.041
1621785025020.78,0.065,0.094,0.038,-0.9279228634535879,-6.229049583734496,-7.0689283853429234
1621785025026.117,0.063,0.082,0.033,-0.921732683921391,-6.216978733646712,-7.111331115138472
1621785025031.451,0.063,0.063,0.028,-0.9155459024749392,-6.204914509826132,-7.153710568046667
1621785025034.508,0.06701419673932955,0.05611851987543506,0.019971606521340904,-0.912,-6.198,-7.178
1621785025036.782,0.07,0.051,0.014,-0.8977376114789661,-6.190208509974621,-7.1703405691275925
1621785025042.112,0.075,0.033,0.002,-0.8643065972862227,-6.1719452707396965,-7.152386876320379
1621785025047.438,0.075,0.012,-0.003,-0.830901614938536,-6.153696252605312,-7.134447163578103
1621785025051.727,0.07902732566136353,-8.197698409059644e-05,-0.006221860529090826,-0.804,-6.139,-7.12
1621785025052.763,0.08,-0.003,-0.007,-0.8016503422031637,-6.134842913128674,-7.110541121176838
1621785025058.085,0.075,-0.024,-0.016,-0.7895786499304235,-6.113485303723057,-7.061944821514782
1621785025063.406,0.075,-0.044,-0.017,-0.7775091727487008,-6.092131613324625,-7.013357439014
1621785025068.723,0.08,-0.063,-0.03,-0.7654491097038025,-6.070794578706728,-6.964807954448641
1621785025068.921,0.07988826636050517,-0.06344693455797934,-0.03003724454649828,-0.765,-6.07,-6.963
1621785025074.039,0.077,-0.075,-0.031,-0.7474130017489229,-6.058374696071322,-6.919181546730368
1621785025079.351,0.072,-0.082,-0.038,-0.7291599055866002,-6.046309090133516,-6.873703493580173
1621785025084.662,0.063,-0.101,-0.042,-0.7109101650812609,-6.03424570234185,-6.828233801134667
1621785025086.091,0.06057706637229198,-0.10423057817027737,-0.04388450393266179,-0.706,-6.031,-6.816
1621785025089.97,0.054,-0.113,-0.049,-0.7281716173496995,-6.053171617349699,-6.842470196223621
1621785025095.276,0.045,-0.126,-0.052,-0.7584999003218181,-6.083499900321818,-6.878678452425028
1621785025100.58,0.031,-0.133,-0.058,-0.7888184148321135,-6.113818414832113,-6.914875046279156
1621785025103.236,0.029496891263298484,-0.13901243494680607,-0.06301036245567172,-0.804,-6.129,-6.933
1621785025105.881,0.028,-0.145,-0.068,-0.8146604965560515,-6.16391698871982,-6.979967984826661
1621785025111.18,0.026,-0.147,-0.08,-0.8360169131383427,-6.233866990858919,-7.0740600231022635
1621785025116.477,0.031,-0.147,-0.087,-0.8573664418236527,-6.303794432639791,-7.168121714701311
1621785025120.356,0.03541455959988886,-0.1543575993331481,-0.09877215893303695,-0.873,-6.355,-7.237
1621785025121.749,0.037,-0.157,-0.103,-0.8681155765770994,-6.363113110092276,-7.252481138645464
1621785025126.958,0.049,-0.159,-0.115,-0.8498516336834774,-6.393449828796936,-7.310368550867622
1621785025132.165,0.075,-0.166,-0.133,-0.8315945389124253,-6.423775172653938,-7.36823425802333
1621785025137.183,0.09525784953301732,-0.1553887454827052,-0.1493992115267283,-0.814,-6.453,-7.424
1621785025137.367,0.096,-0.155,-0.15,-0.8130367484591231,-6.453,-7.422817827654379
1621785025142.567,0.115,-0.157,-0.168,-0.7857906733341086,-6.453,-7.3893794627282245
1621785025147.763,0.131,-0.168,-0.185,-0.7585650657053146,-6.453,-7.355966217001977
1621785025152.956,0.15,-0.166,-0.199,-0.7313548086986859,-6.453,-7.32257181067566
1621785025153.978,0.15098457051462977,-0.16698457051462978,-0.2023475397497413,-0.726,-6.453,-7.316
1621785025158.146,0.155,-0.171,-0.216,-0.6160874834311683,-6.433355002694711,-7.228219189256114
1621785025163.333,0.161,-0.166,-0.223,-0.4793020261314145,-6.408906923222583,-7.118976505032555
1621785025168.517,0.168,-0.162,-0.229,-0.3425938269267184,-6.384472652324006,-7.0097955224098
1621785025170.739,0.16499736060706038,-0.15856841212235473,-0.22814210303058868,-0.284,-6.374,-6.963
1621785025173.697,0.161,-0.154,-0.227,-0.22865238331533316,-6.349774365860066,-6.912603607811087
1621785025178.874,0.157,-0.157,-0.23,-0.1317849178318106,-6.307375507166,-6.824401602498614
1621785025184.048,0.145,-0.143,-0.229,-0.034972270060422056,-6.2650006421670215,-6.736249511077381
1621785025187.467,0.13574159425765017,-0.143,-0.22635474121647148,0.029,-6.237,-6.678
1621785025189.218,0.131,-0.143,-0.225,0.05994544390814685,-6.232908907415533,-6.663628726049437
1621785025194.386,0.117,-0.127,-0.222,0.15128023987128858,-6.220834137779728,-6.621212227585199
1621785025199.551,0.098,-0.12,-0.216,0.24256325873921308,-6.208766213251426,-6.57881977475501
1621785025204.159,0.08550007095889116,-0.11375003547944558,-0.2008215147357964,0.324,-6.198,-6.541
1621785025204.712,0.084,-0.113,-0.199,0.3265891025265256,-6.200589102526526,-6.543589102526526
1621785025209.869,0.061,-0.101,-0.194,0.3507346268831702,-6.22473462688317,-6.56773462688317
1621785025215.024,0.052,-0.082,-0.187,0.37487100650682925,-6.248871006506829,-6.591871006506829
1621785025220.175,0.04,-0.079,-0.176,0.3989890966645173,-6.272989096664517,-6.615989096664517
1621785025220.818,0.03887574694109836,-0.07812558095418762,-0.17500066394764296,0.402,-6.276,-6.619
1621785025225.323,0.031,-0.072,-0.168,0.40992447353611944,-6.313709563723602,-6.6728317685039835
1621785025230.409,0.03,-0.063,-0.161,0.4188710718834227,-6.356283031721115,-6.733606936587388
1621785025235.492,0.024,-0.047,-0.154,0.4278125166602494,-6.3988319758315315,-6.794347095933418
1621785025237.304,0.027210824841376657,-0.04450269179004038,-0.14829186694866373,0.431,-6.414,-6.816
1621785025240.571,0.033,-0.04,-0.138,0.442756425146669,-6.425557163703505,-6.83552762143006
1621785025245.646,0.037,-0.031,-0.129,0.46101832990857383,-6.443509544655886,-6.865860954763393
1621785025250.716,0.042,-0.021,-0.124,0.47926266416510316,-6.461444652908068,-6.896165103189493
1621785025253.7,0.04612228967909801,-0.018644405897658284,-0.11457762359063313,0.49,-6.472,-6.914
1621785025255.783,0.049,-0.017,-0.108,0.4950947959275072,-6.469579971934435,-6.911452602036246
1621785025260.846,0.054,-0.005,-0.099,0.5074782790433822,-6.463697817454394,-6.905260860478309
1621785025265.906,0.054,0.002,-0.093,0.5198545964828472,-6.457819066670648,-6.899072701758576
1621785025270.054,0.058102081220725285,0.008563329953160462,-0.08233458882611425,0.53,-6.453,-6.894
1621785025270.962,0.059,0.01,-0.08,0.5332275740300161,-6.451887043437925,-6.891829734703955
1621785025276.014,0.058,0.017,-0.068,0.5511862159776152,-6.445694408283581,-6.8797540961529835
1621785025281.062,0.058,0.033,-0.059,0.5691309721536413,-6.439506561326331,-6.867687794586345
1621785025286.107,0.049,0.049,-0.045,0.5870644461402642,-6.433322604779219,-6.855629079319478
1621785025286.37,0.049,0.04873890718852936,-0.04437337725247045,0.588,-6.433,-6.855
1621785025291.147,0.049,0.044,-0.033,0.5765537755377553,-6.433,-6.860576365763658
1621785025296.184,0.044,0.054,-0.017,0.5644839348393484,-6.433,-6.8664565445654455
1621785025301.218,0.042,0.068,-0.005,0.5524216992169922,-6.433,-6.872333018330183
1621785025302.646,0.041432108354774504,0.07055551240351474,-0.0035802708869362592,0.549,-6.433,-6.874
1621785025306.247,0.04,0.077,0.0,0.5316989879547062,-6.419913337042662,-6.891522819892028
1621785025311.272,0.035,0.082,0.01,0.5075573316891984,-6.401652340636701,-6.915973984571196
1621785025316.293,0.026,0.096,0.023,0.48343444262319735,-6.383405539932931,-6.940406141445736
1621785025318.881,0.027031526710129414,0.09857881677532354,0.02712610684051766,0.471,-6.374,-6.953
1621785025321.311,0.028,0.101,0.031,0.44591320031393383,-6.374,-6.954502203574016
1621785025326.325,0.024,0.099,0.044,0.39414914875633905,-6.374,-6.95760184737986
1621785025331.323,0.019,0.113,0.051,0.34254893141753195,-6.374,-6.960691680753441
1621785025335.057,0.015261549743339037,0.113,0.054738450256660964,0.304,-6.374,-6.963
1621785025336.317,0.014,0.113,0.056,0.2947749939408628,-6.377127120698012,-6.96065465947649
1621785025341.307,0.016,0.119,0.061,0.258241396025206,-6.389511391177896,-6.951366456616578
1621785025346.293,0.017,0.122,0.072,0.22173639723703345,-6.401885967038293,-6.942085524721279
1621785025351.174,0.016020431161195493,0.12689784419402253,0.072,0.186,-6.414,-6.933
1621785025351.276,0.016,0.127,0.072,0.18525896505110953,-6.413499643068698,-6.933
1621785025356.254,0.019,0.117,0.08,0.1490246662312611,-6.389033748993757,-6.933
1621785025361.228,0.019,0.126,0.082,0.11281880040705357,-6.364587053266301,-6.933
1621785025366.198,0.017,0.131,0.084,0.07664314464071448,-6.340160755783047,-6.933
1621785025367.248,0.017845613172769722,0.12994298353403785,0.08611403293192431,0.069,-6.335,-6.933
1621785025371.165,0.021,0.126,0.094,0.05922824514655501,-6.330114122573278,-6.918586661591169
1621785025376.128,0.009,0.133,0.089,0.04684727826417967,-6.32392363913209,-6.900324735439665
1621785025381.086,0.009,0.138,0.091,0.03447849257708413,-6.317739246288542,-6.882080776551199
1621785025383.282,0.009,0.1388863815530154,0.09321595388253844,0.029,-6.315,-6.874
1621785025386.041,0.009,0.14,0.096,0.02227146848235959,-6.304993465948125,-6.863993465948124
1621785025390.991,-0.007,0.152,0.098,0.010199883974779785,-6.287040853090698,-6.846040853090698
1621785025395.938,-0.014,0.145,0.098,-0.001864555821870749,-6.2690988657008075,-6.828098865700808
1621785025399.274,-0.022098384945917912,0.14634973082431965,0.098,-0.01,-6.257,-6.816
1621785025400.881,-0.026,0.147,0.098,-0.021789184473152513,-6.24903978142411,-6.811969509581828
1621785025405.82,-0.037,0.143,0.099,-0.05801813812526786,-6.22457749647952,-6.799583542521276
1621785025410.754,-0.051,0.14,0.096,-0.09420948386701769,-6.200140604910304,-6.787210432865977
1621785025415.224,-0.06369135557976037,0.13365432221011983,0.09418694920289138,-0.127,-6.178,-6.776
1621785025415.685,-0.065,0.133,0.094,-0.127,-6.180836921189819,-6.77544998466728
1621785025420.612,-0.08,0.138,0.093,-0.127,-6.211161024225698,-6.769570821833793
1621785025425.535,-0.096,0.133,0.096,-0.127,-6.241459582950015,-6.763696611468874
1621785025430.466,-0.106,0.122,0.096,-0.127,-6.271809230297454,-6.75781249616682
1621785025431.147,-0.10682886720491357,0.12227628906830453,0.09503298826093418,-0.127,-6.276,-6.757
1621785025435.395,-0.112,0.124,0.089,-0.11658547552909038,-6.307510612501726,-6.798925136972636
1621785025440.319,-0.113,0.126,0.091,-0.1045136051811722,-6.344035758682607,-6.847522153501434
1621785025445.239,-0.112,0.12,0.094,-0.0924519099433693,-6.380530118632882,-6.896078208689513
1621785025447.055,-0.10941376912378303,0.11704430757003775,0.09289161533876415,-0.088,-6.394,-6.914
1621785025450.154,-0.105,0.112,0.091,-0.11866277924795371,-6.405522955258785,-6.942709735983753
1621785025455.066,-0.098,0.122,0.089,-0.16726089297802943,-6.423785940673272,-6.988212428457135
1621785025459.975,-0.089,0.11,0.086,-0.21583243584220568,-6.442038940857899,-7.03369024247646
1621785025462.923,-0.08178745644599303,0.10338850174216029,0.08239372822299651,-0.245,-6.453,-7.061
1621785025464.88,-0.077,0.099,0.08,-0.2547679064529565,-6.453,-7.061
1621785025469.78,-0.061,0.087,0.073,-0.2792284991438224,-6.453,-7.061
1621785025474.677,-0.051,0.082,0.068,-0.3036732486925937,-6.453,-7.061
1621785025478.749,-0.04184394650164687,0.07450868350134744,0.06550289450044915,-0.324,-6.453,-7.061
1621785025479.569,-0.04,0.073,0.065,-0.32093479235944633,-6.447908638156369,-7.054350058000154
1621785025484.458,-0.031,0.073,0.059,-0.30266126363003637,-6.417555997215993,-7.014705792282113
1621785025489.343,-0.028,0.065,0.051,-0.2844023354728946,-6.387227608073622,-6.975093202381873
1621785025494.224,-0.03,0.049,0.051,-0.266158007888021,-6.356923470729256,-6.935512288299435
1621785025494.534,-0.03,0.04842826391670004,0.05106352623147777,-0.265,-6.355,-6.933
1621785025499.101,-0.03,0.04,0.052,-0.265,-6.34919902009427,-6.899064267551476
1621785025503.974,-0.035,0.037,0.051,-0.265,-6.343009488960556,-6.862855510419251
1621785025508.844,-0.045,0.035,0.04,-0.265,-6.3368239890845945,-6.826670336144877
1621785025510.28,-0.04824695137250966,0.0364758869875044,0.041180709590003514,-0.265,-6.335,-6.816
1621785025513.709,-0.056,0.04,0.044,-0.2691446765550982,-6.339362817426419,-6.816
1621785025518.57,-0.061,0.037,0.042,-0.27502040848023607,-6.345547798400249,-6.816
1621785025523.428,-0.066,0.024,0.038,-0.2808923041080997,-6.351728741166421,-6.816
1621785025525.999,-0.06705346871404992,0.02505346871404992,0.03747326564297504,-0.284,-6.355,-6.816
1621785025528.309,-0.068,0.026,0.037,-0.2869332258664517,-6.366439580879162,-6.827439580879162
1621785025533.186,-0.065,0.023,0.035,-0.29312579825159646,-6.390590613181226,-6.8515906131812265
1621785025538.059,-0.066,0.024,0.031,-0.29931341062682126,-6.414722301444603,-6.875722301444603
1621785025541.75,-0.060693576693576695,0.018693576693576696,0.025693576693576695,-0.304,-6.433,-6.894
1621785025542.928,-0.059,0.017,0.024,-0.304,-6.430076620733582,-6.906518059935683
1621785025547.794,-0.049,0.005,0.021,-0.304,-6.418000792306856,-6.958227376532181
1621785025552.656,-0.037,0.0,0.019,-0.304,-6.40593465798754,-7.009895182463608
1621785025557.465,-0.03502050045221586,-0.0049487488694603555,0.012071751582755502,-0.304,-6.394,-7.061
1621785025557.515,-0.035,-0.005,0.012,-0.30412391751292756,-6.393812535044546,-7.060936452557473
1621785025562.369,-0.024,-0.005,0.009,-0.31620101551305213,-6.3755420534546134,-7.054743068967666
1621785025567.219,-0.016,-0.023,0.003,-0.328268394492555,-6.357286274998443,-7.048554669490998
1621785025572.066,-0.014,-0.023,-0.002,-0.34032787676780263,-6.339042442838452,-7.042370319606255
1621785025573.14,-0.012447698744769874,-0.024552301255230124,-0.0022217573221757323,-0.343,-6.335,-7.041
1621785025576.909,-0.007,-0.03,-0.003,-0.3287763168168403,-6.344402095663445,-7.0197850149132535
1621785025581.749,-0.005,-0.035,-0.01,-0.3105107047488171,-6.3564759748270525,-6.992541390133829
1621785025586.584,-0.01,-0.042,-0.012,-0.29226444087012193,-6.36853706450958,-6.96532662367069
1621785025588.774,-0.009546878157203476,-0.04335936552838957,-0.012,-0.284,-6.374,-6.953
1621785025591.417,-0.009,-0.045,-0.012,-0.29077832388942804,-6.377389161944714,-6.946391134207808
1621785025596.245,-0.012,-0.049,-0.017,-0.3031603794258523,-6.383580189712926,-6.934318630059794
1621785025601.07,-0.012,-0.049,-0.023,-0.3155342954637949,-6.389767147731898,-6.9222540619228
1621785025604.371,-0.012,-0.052424425083578155,-0.023,-0.324,-6.394,-6.914
1621785025605.89,-0.012,-0.054,-0.023,-0.32585506222829075,-6.397807759310702,-6.9187841078519075
1621785025610.708,-0.002,-0.059,-0.026,-0.33173991242525547,-6.409887188662366,-6.933960826780922
1621785025615.521,-0.003,-0.058,-0.028,-0.33761850055715115,-6.421953764301521,-6.949121396173705
1621785025619.927,0.0015799918789970568,-0.06074799512739823,-0.034411988630595886,-0.343,-6.433,-6.963
1621785025620.331,0.002,-0.061,-0.035,-0.3425089250855028,-6.433,-6.963491074914497
1621785025625.172,0.009,-0.066,-0.038,-0.3366252244936205,-6.433,-6.969374775506379
1621785025630.01,0.016,-0.068,-0.042,-0.33074538128777353,-6.433,-6.975254618712227
1621785025634.844,0.021,-0.072,-0.044,-0.32487028563397,-6.433,-6.9811297143660305
1621785025635.56,0.022482211441277544,-0.07274110572063877,-0.04474110572063877,-0.324,-6.433,-6.982
1621785025639.675,0.031,-0.077,-0.049,-0.30843285170864576,-6.4279868505502415,-6.948491053677933
1621785025644.502,0.038,-0.079,-0.051,-0.2901725082575414,-6.422106400964292,-6.909184890656064
1621785025649.327,0.045,-0.089,-0.054,-0.2719195535448725,-6.416228330802586,-6.86989463220676
1621785025651.156,0.045,-0.08520523729929595,-0.056656333890492835,-0.265,-6.414,-6.855
1621785025654.147,0.045,-0.079,-0.061,-0.265,-6.410155584146609,-6.828665751404275
1621785025658.964,0.051,-0.079,-0.059,-0.265,-6.403963912511375,-6.786252800702922
1621785025663.777,0.045,-0.089,-0.063,-0.265,-6.397777575548373,-6.743876392506355
1621785025666.716,0.040111720217247855,-0.08288965027155981,-0.063,-0.265,-6.394,-6.718
1621785025668.587,0.037,-0.079,-0.063,-0.2672897650426195,-6.394,-6.713179442015538
1621785025673.393,0.037,-0.087,-0.072,-0.2731720976315541,-6.394,-6.70079558393357
1621785025678.197,0.035,-0.087,-0.068,-0.27905174094926555,-6.394,-6.68841738747523
1621785025682.24,0.029102864119652034,-0.0886848959658137,-0.06631510403418629,-0.284,-6.394,-6.678
1621785025682.996,0.028,-0.089,-0.066,-0.28497643256877114,-6.394976432568772,-6.679952865137542
1621785025687.791,0.023,-0.093,-0.07,-0.2911685977772523,-6.401168597777252,-6.692337195554504
1621785025692.583,0.016,-0.084,-0.075,-0.29735697958540236,-6.407356979585402,-6.704713959170805
1621785025697.372,0.016,-0.08,-0.075,-0.3035415779932214,-6.413541577993221,-6.717083155986443
1621785025697.727,0.016,-0.08081622862975249,-0.07529681041081908,-0.304,-6.414,-6.718
1621785025702.156,0.016,-0.091,-0.079,-0.304,-6.425179215320682,-6.746091361575047
1621785025706.938,0.017,-0.082,-0.077,-0.304,-6.437249514118223,-6.776421855989382
1621785025711.717,0.012,-0.089,-0.082,-0.304,-6.4493124180321395,-6.806733768388453
1621785025713.178,0.013530121714227268,-0.089,-0.082,-0.304,-6.453,-6.816
1621785025716.491,0.017,-0.089,-0.082,-0.304,-6.44870107077235,-6.824382911993918
1621785025721.262,0.017,-0.094,-0.089,-0.304,-6.4425102325286705,-6.836455046569093
1621785025726.03,0.019,-0.096,-0.089,-0.304,-6.436323195843629,-6.848519768104923
1621785025728.591,0.020075401096929624,-0.09707540109692962,-0.09115080219385924,-0.304,-6.433,-6.855
1621785025730.793,0.021,-0.098,-0.093,-0.304,-6.427414327002477,-6.855
1621785025735.554,0.023,-0.105,-0.087,-0.304,-6.41533691164327,-6.855
1621785025740.311,0.019,-0.099,-0.093,-0.304,-6.403269405450041,-6.855
1621785025743.965,0.019,-0.099,-0.093,-0.304,-6.394,-6.855
1621785025745.065,0.019,-0.099,-0.093,-0.30256592602024573,-6.391203555739479,-6.859230518240276
1621785025749.814,0.019,-0.103,-0.099,-0.29637378239001716,-6.379128875660534,-6.877497341949449
1621785025754.561,0.017,-0.101,-0.099,-0.29018418539504676,-6.367059161520341,-6.895756653084612
1621785025759.303,0.012,-0.103,-0.098,-0.28400127331762903,-6.355002482969377,-6.913996243712994
1621785025759.304,0.011999381793828243,-0.10300144248106743,-0.09800061820617176,-0.284,-6.355,-6.914
1621785025764.042,0.009,-0.11,-0.101,-0.27811655736920204,-6.367076540136901,-6.901613804987793
1621785025768.779,0.007,-0.113,-0.099,-0.27223432738180714,-6.3791505911636595,-6.889230162909067
1621785025773.511,0.005,-0.113,-0.103,-0.26635846377227834,-6.391211574362166,-6.876859923731112
1621785025774.605,0.0043059886422302535,-0.113,-0.10346267423851316,-0.265,-6.394,-6.874
1621785025778.24,0.002,-0.113,-0.105,-0.25095242588032113,-6.412571369175169,-6.8647143154124155
1621785025782.965,0.0,-0.11,-0.103,-0.232692183452202,-6.4367120286564115,-6.8526439856717944
1621785025787.686,0.0,-0.113,-0.103,-0.21444798029871748,-6.460831483672882,-6.840584258163559
1621785025789.872,0.0009266752910737387,-0.10975663648124191,-0.10207332470892626,-0.206,-6.472,-6.835
1621785025792.404,0.002,-0.106,-0.101,-0.19951448729255192,-6.472,-6.835
1621785025797.119,0.003,-0.103,-0.099,-0.18743771346107593,-6.472,-6.835
1621785025801.831,0.005,-0.11,-0.101,-0.17536781848793395,-6.472,-6.835
1621785025805.098,0.005,-0.11,-0.09961192946058092,-0.167,-6.472,-6.835
1621785025806.538,0.005,-0.11,-0.099,-0.16320783311637177,-6.468302637288462,-6.833198720730277
1621785025811.242,0.003,-0.108,-0.099,-0.15082205936711507,-6.4562265078829375,-6.827315478199379
1621785025815.942,0.0,-0.101,-0.096,-0.13844657120357423,-6.444160406923485,-6.821437121321698
1621785025820.289,-0.0018510317584074017,-0.0982234523623889,-0.096,-0.127,-6.433,-6.816
1621785025820.639,-0.002,-0.098,-0.096,-0.1265613218187091,-6.433,-6.8164386781812905
1621785025825.333,-0.002,-0.094,-0.093,-0.12067544227113074,-6.433,-6.822324557728869
1621785025830.023,0.0,-0.098,-0.089,-0.11479476686108336,-6.433,-6.828205233138917
1621785025834.71,-0.003,-0.093,-0.093,-0.10891776495988142,-6.433,-6.8340822350401185
1621785025835.442,-0.0025311229277447606,-0.09346887707225524,-0.09190595349807111,-0.108,-6.433,-6.835
1621785025839.393,0.0,-0.096,-0.086,-0.108,-6.448420801033592,-6.845193410852713
1621785025844.072,0.005,-0.094,-0.087,-0.108,-6.466682025193799,-6.857264389534883
1621785025848.748,0.005,-0.086,-0.084,-0.108,-6.484931815245478,-6.869327810077519
1621785025850.559,0.006938231605351171,-0.08638764632107022,-0.08244941471571907,-0.108,-6.492,-6.874
1621785025853.42,0.01,-0.087,-0.08,-0.108,-6.492,-6.8666027516995785
1621785025858.089,0.009,-0.086,-0.077,-0.108,-6.492,-6.85452966979605
1621785025862.753,0.016,-0.089,-0.079,-0.108,-6.492,-6.842470475882163
1621785025865.642,0.019097905759162304,-0.08776083769633507,-0.07652167539267016,-0.108,-6.492,-6.835
1621785025867.416,0.021,-0.087,-0.075,-0.108,-6.489641674780915,-6.830401265822784
1621785025872.074,0.023,-0.084,-0.077,-0.108,-6.483449204803636,-6.818325949367089
1621785025876.729,0.023,-0.077,-0.072,-0.108,-6.477260629665693,-6.806258227848102
1621785025880.686,0.019596745406824146,-0.07104430446194226,-0.072,-0.108,-6.472,-6.796
1621785025881.38,0.019,-0.07,-0.072,-0.10619719913469201,-6.472,-6.791469885005124
1621785025886.028,0.021,-0.068,-0.068,-0.09411995575868967,-6.472,-6.76112194011158
1621785025890.672,0.017,-0.061,-0.065,-0.08205349620207869,-6.472,-6.730801093020609
1621785025895.313,0.012,-0.066,-0.065,-0.06999528309559051,-6.472,-6.700500967778663
1621785025895.696,0.012165218764808087,-0.06542173432317169,-0.06483478123519192,-0.069,-6.472,-6.698
1621785025899.95,0.014,-0.059,-0.063,-0.07439803355671869,-6.466601966443282,-6.698
1621785025904.583,0.009,-0.056,-0.056,-0.08027719349736666,-6.460722806502634,-6.698
1621785025909.213,0.002,-0.056,-0.054,-0.0861523259795529,-6.4548476740204475,-6.698
1621785025910.669,0.0013706537223658524,-0.054741307444731706,-0.054,-0.088,-6.453,-6.698
1621785025913.84,0.0,-0.052,-0.054,-0.09627973913896244,-6.448753979928737,-6.706279739138963
1621785025918.462,-0.003,-0.047,-0.049,-0.1083471609296852,-6.442565558497598,-6.718347160929685
1621785025923.083,-0.009,-0.04,-0.047,-0.12041267039325293,-6.43637811774705,-6.730412670393253
1621785025925.606,-0.010640057133788287,-0.038359942866211715,-0.045359942866211714,-0.127,-6.433,-6.737
1621785025927.698,-0.012,-0.037,-0.044,-0.13809192049941832,-6.430332322917861,-6.737
1621785025932.311,-0.016,-0.038,-0.04,-0.16255006472120725,-6.42444998443414,-6.737
1621785025936.92,-0.023,-0.037,-0.04,-0.18698620373252936,-6.418572938342809,-6.737
1621785025940.506,-0.021442476937758456,-0.03232743081327537,-0.036106192344396146,-0.206,-6.414,-6.737
1621785025941.525,-0.021,-0.031,-0.035,-0.20737093859850847,-6.412629061401491,-6.742415207464108
1621785025946.126,-0.024,-0.033,-0.037,-0.21356233779033476,-6.406437662209665,-6.7668712342718225
1621785025950.726,-0.023,-0.035,-0.037,-0.21975242287854396,-6.400247577121456,-6.791322070370248
1621785025955.32,-0.026,-0.021,-0.038,-0.2259342948191465,-6.394065705180854,-6.8157404645356285
1621785025955.369,-0.02597873358498591,-0.02092556754745069,-0.037946833962464774,-0.226,-6.394,-6.816
1621785025959.912,-0.024,-0.014,-0.033,-0.21987136082202607,-6.382049153602951,-6.821822207219075
1621785025964.499,-0.03,-0.023,-0.033,-0.21368377025424845,-6.369983351995785,-6.8277004182584635
1621785025969.083,-0.03,-0.017,-0.03,-0.20750013173494927,-6.357925256883152,-6.833574874851798
1621785025970.195,-0.030728256235344274,-0.018456512470688552,-0.03,-0.206,-6.355,-6.835
1621785025973.664,-0.033,-0.023,-0.03,-0.21984138227087358,-6.3594573942906205,-6.825850611719253
1621785025978.242,-0.031,-0.019,-0.028,-0.23810725312463882,-6.365339623887595,-6.813776561493883
1621785025982.815,-0.033,-0.017,-0.026,-0.2563536414218964,-6.37121557944095,-6.801715389568577
1621785025984.982,-0.037267535658956144,-0.017,-0.024577488113681285,-0.265,-6.374,-6.796
1621785025987.385,-0.042,-0.017,-0.023,-0.2680952830188679,-6.374,-6.79274180734856
1621785025991.952,-0.044,-0.024,-0.023,-0.27397767295597486,-6.374,-6.786549817941079
1621785025996.515,-0.045,-0.026,-0.024,-0.2798550314465409,-6.374,-6.780363124793115
1621785025999.733,-0.049940933918817605,-0.02458830459462354,-0.024,-0.284,-6.374,-6.776
1621785026001.074,-0.052,-0.024,-0.024,-0.2893769847195261,-6.368623015280473,-6.777822706684585
1621785026005.631,-0.059,-0.019,-0.021,-0.30764874819570953,-6.35035125180429,-6.784016524812105
1621785026010.184,-0.063,-0.019,-0.017,-0.3259038707215503,-6.33209612927845,-6.790204701939508
1621785026014.448,-0.063,-0.019,-0.02262540261971226,-0.343,-6.315,-6.796
1621785026014.732,-0.063,-0.019,-0.023,-0.3433869379335585,-6.315,-6.797141466903998
1621785026019.278,-0.07,-0.03,-0.019,-0.34958227005805736,-6.315,-6.815417696671269
1621785026023.82,-0.075,-0.021,-0.019,-0.3557719461680502,-6.315,-6.8336772411957485
1621785026028.359,-0.079,-0.024,-0.019,-0.3619572970904796,-6.315,-6.851924026416915
1621785026029.124,-0.07916874865388758,-0.025012491923325435,-0.018493754038337282,-0.363,-6.315,-6.855
1621785026032.893,-0.08,-0.03,-0.016,-0.3730418966926297,-6.330191587304235,-6.870191587304235
1621785026037.425,-0.082,-0.031,-0.012,-0.3851165001584469,-6.348458295111497,-6.888458295111497
1621785026041.953,-0.082,-0.035,-0.014,-0.39718004569941795,-6.366708274263222,-6.906708274263222
1621785026043.762,-0.08359948194916626,-0.034200259025416874,-0.012000647563542173,-0.402,-6.374,-6.914
1621785026046.477,-0.086,-0.033,-0.009,-0.402,-6.381436557557925,-6.917532364840015
1621785026050.998,-0.084,-0.028,-0.014,-0.402,-6.393819452338761,-6.923414239860911
1621785026055.515,-0.082,-0.023,-0.016,-0.402,-6.406190979303888,-6.929290715169347
1621785026058.366,-0.08073655739478525,-0.024895163907822135,-0.013473114789570487,-0.402,-6.414,-6.933
1621785026060.028,-0.08,-0.026,-0.012,-0.4053086759062191,-6.402704865009803,-6.935281845452565
1621785026064.539,-0.079,-0.026,-0.012,-0.41428846508354145,-6.3720497226458415,-6.941474803505891
1621785026069.046,-0.082,-0.019,-0.012,-0.42325999229106265,-6.341422784937407,-6.947662063649009
1621785026072.934,-0.0776828408782868,-0.022453727297370562,-0.013726863648685281,-0.431,-6.315,-6.953
1621785026073.549,-0.077,-0.023,-0.014,-0.43434326226836684,-6.31419592426457,-6.949656737731633
1621785026078.049,-0.087,-0.035,-0.012,-0.458806545369017,-6.3083123498479585,-6.925193454630983
1621785026082.544,-0.084,-0.033,-0.014,-0.4832419568906137,-6.3024354787225105,-6.900758043109386
1621785026087.038,-0.093,-0.026,-0.014,-0.50767338675806,-6.296559565210087,-6.87632661324194
1621785026087.466,-0.09357203458965574,-0.02580932180344809,-0.013332626312068309,-0.51,-6.296,-6.874
1621785026091.527,-0.099,-0.024,-0.007,-0.5209266476899497,-6.329060113523438,-6.8521467046201
1621785026096.012,-0.103,-0.023,-0.014,-0.532993650098533,-6.365570531067356,-6.828012699802934
1621785026100.494,-0.106,-0.023,-0.012,-0.5450527698708124,-6.402057098583484,-6.803894460258375
1621785026101.961,-0.10567246266216068,-0.022344925324321377,-0.012655074675678623,-0.549,-6.414,-6.796
1621785026104.973,-0.105,-0.021,-0.014,-0.549,-6.4221252195352605,-6.808291998784113
1621785026109.448,-0.094,-0.012,-0.016,-0.549,-6.434197463523372,-6.826555137125101
1621785026113.919,-0.093,-0.021,-0.016,-0.549,-6.446258511213186,-6.844801337476358
1621785026116.418,-0.08684889374487845,-0.01708565965583174,-0.022710297732859874,-0.549,-6.453,-6.855
1621785026118.388,-0.082,-0.014,-0.028,-0.5436724847212582,-6.434148792090606,-6.846940425603955
1621785026122.852,-0.075,-0.023,-0.026,-0.5315999085814894,-6.3914304457498865,-6.828676784777126
1621785026127.313,-0.072,-0.021,-0.03,-0.5195359156241006,-6.348742470669895,-6.810426128764665
1621785026130.839,-0.07595568580192813,-0.013879765556529361,-0.03,-0.51,-6.315,-6.796
1621785026131.77,-0.077,-0.012,-0.03,-0.5017153720803911,-6.317588946224878,-6.783314163498099
1621785026136.224,-0.084,-0.005,-0.024,-0.4620760456273764,-6.329976235741445,-6.722616444866921
1621785026140.674,-0.089,0.0,-0.024,-0.4224736556219446,-6.342351982618143,-6.661975285171103
1621785026145.121,-0.105,0.003,-0.017,-0.38289733840304185,-6.35471958174905,-6.6013740494296576
1621785026145.222,-0.10515882870014284,0.0031361388858367214,-0.0168865509284694,-0.382,-6.355,-6.6
1621785026149.565,-0.112,0.009,-0.012,-0.39683501540242017,-6.4025326003710195,-6.5733575233589185
1621785026154.004,-0.119,0.017,-0.003,-0.4119977704784111,-6.451115305410419,-6.546126453018363
1621785026158.44,-0.126,0.037,-0.003,-0.42715051823612504,-6.499665946185135,-6.51891335500451
1621785026159.567,-0.12955898226676948,0.03725421301905496,-0.0009662958475603043,-0.431,-6.512,-6.512
1621785026162.873,-0.14,0.038,0.005,-0.47189354079230217,-6.512,-6.5187000716552355
1621785026167.302,-0.15,0.058,0.005,-0.5266749411403419,-6.512,-6.527675555328079
1621785026171.729,-0.159,0.066,0.007,-0.581432183437404,-6.512,-6.536647080902174
1621785026173.877,-0.1667720848056537,0.06794302120141343,0.0060284893992932865,-0.608,-6.512,-6.541
1621785026176.151,-0.175,0.07,0.005,-0.6111865612918677,-6.505626877416264,-6.584815217763181
1621785026180.569,-0.18,0.082,0.005,-0.6173780149851175,-6.493243970029765,-6.669947706045366
1621785026184.984,-0.18,0.072,0.0,-0.6235646789147764,-6.480870642170447,-6.755014335078176
1621785026188.149,-0.18,0.07702146967684816,0.0,-0.628,-6.472,-6.816
1621785026189.396,-0.18,0.079,0.0,-0.6348332104207042,-6.475504210472156,-6.840879894352307
1621785026193.803,-0.175,0.079,-0.009,-0.658980877081654,-6.4878876292726435,-6.928802167835766
1621785026198.208,-0.164,0.084,-0.01,-0.6831178417685698,-6.500265559881318,-7.016685475157357
1621785026202.384,-0.15925546432930213,0.07925546432930212,-0.02233579274381449,-0.706,-6.512,-7.1
1621785026202.609,-0.159,0.079,-0.023,-0.7032128819271307,-6.512300882064684,-7.101868635980673
1621785026207.007,-0.145,0.08,-0.031,-0.6486961261369694,-6.518186213655667,-7.138419642703623
1621785026211.401,-0.129,0.079,-0.042,-0.5942338417097955,-6.52406566481542,-7.17493412885366
1621785026215.791,-0.113,0.082,-0.045,-0.5398169500851115,-6.529940215615811,-7.211418181192936
1621785026216.583,-0.11029200289387278,0.082,-0.04481946685959152,-0.53,-6.531,-7.218
1621785026220.178,-0.098,0.082,-0.044,-0.5048694145635085,-6.496223331264653,-7.222823041649428
1621785026224.561,-0.091,0.08,-0.051,-0.47422972693421594,-6.45382295545442,-7.228703385739898
1621785026228.942,-0.08,0.089,-0.052,-0.44360539925527515,-6.411443835333057,-7.2345807819611085
1621785026230.745,-0.07876384937238494,0.09064820083682008,-0.05447230125523012,-0.431,-6.394,-7.237
1621785026233.318,-0.077,0.093,-0.058,-0.4007589670014347,-6.361755043128036,-7.2477483189573215
1621785026237.691,-0.073,0.093,-0.056,-0.34936441893830705,-6.3069548322414475,-7.266015055919517
1621785026242.06,-0.066,0.098,-0.058,-0.298012912482066,-6.252200515116419,-7.2842664949611935
1621785026244.869,-0.06535650763465518,0.09993047709603446,-0.05220856871189664,-0.265,-6.217,-7.296
1621785026246.425,-0.065,0.101,-0.049,-0.2368350690533539,-6.189939576149301,-7.307928676636227
1621785026250.788,-0.066,0.112,-0.051,-0.15786809683065034,-6.114069347935331,-7.3413735119305485
1621785026255.147,-0.059,0.113,-0.049,-0.07897624287372856,-6.038271292172798,-7.37478653242995
1621785026258.958,-0.05024901894831259,0.10687431326381881,-0.049,-0.01,-5.972,-7.404
1621785026259.502,-0.049,0.106,-0.049,0.007070868877808086,-5.970490331323732,-7.393006515280504
1621785026263.854,-0.033,0.112,-0.038,0.14365314384001945,-5.958411626735237,-7.305048769046337
1621785026268.202,-0.017,0.117,-0.023,0.28010516531438395,-5.946344441162673,-7.217174904876905
1621785026272.546,-0.003,0.12,-0.007,0.41643459527077503,-5.93428809701687,-7.129379988533106
1621785026273.01,-0.0021447050222147233,0.12171058995557055,-0.004968674427759969,0.431,-5.933,-7.12
1621785026276.887,0.005,0.136,0.012,0.536971808408691,-5.878768996219051,-6.9705880508075895
1621785026281.225,0.009,0.143,0.037,0.6555494572508842,-5.818086961824613,-6.8034028540065865
1621785026285.559,0.021,0.154,0.058,0.7740136602024636,-5.757462983290646,-6.636377607025247
1621785026287.022,0.023364507582163595,0.16041794915158689,0.06779581712610631,0.814,-5.737,-6.58
1621785026289.89,0.028,0.173,0.087,0.8985314563174625,-5.710737799979041,-6.451356254584833
1621785026294.217,0.023,0.178,0.117,1.0260734271841268,-5.671113110001048,-6.257257187270759
1621785026298.54,0.012,0.195,0.147,1.153493065986656,-5.631526426101233,-6.06334429035526
1621785026301.0,-0.0016662333992653287,0.21208279174908168,0.1646522181407177,1.226,-5.609,-5.953
1621785026302.86,-0.012,0.225,0.178,1.2207955827232284,-5.601260097383263,-5.939922233509651
1621785026307.177,-0.061,0.229,0.202,1.2087172907836201,-5.583297509370512,-5.909571653763969
1621785026311.49,-0.12,0.265,0.218,1.1966499281886014,-5.565351175254843,-5.879248537499563
1621785026314.939,-0.17042498583569404,0.28581031161473086,0.23480832861189802,1.187,-5.551,-5.855
1621785026315.799,-0.183,0.291,0.239,1.1608949974539517,-5.583105441519903,-5.901085845727029
1621785026320.105,-0.243,0.293,0.257,1.030206967393022,-5.7438331372583455,-6.1318028656213235
1621785026324.407,-0.307,0.328,0.258,0.8996374953907745,-5.904415023441204,-6.3623105827816895
1621785026328.706,-0.367,0.353,0.246,0.7691569419325386,-6.064887552457376,-6.592661322891608
1621785026328.843,-0.3685941122982496,0.3537651739031598,0.2452348260968402,0.765,-6.07,-6.6
1621785026333.002,-0.417,0.377,0.222,0.49743612544241167,-6.355561444595095,-6.935354721698861
1621785026337.293,-0.442,0.389,0.195,0.22137491856103964,-6.650191790952793,-7.281359687274392
1621785026341.582,-0.443,0.405,0.166,-0.0545606346075963,-6.944688031554296,-7.627207163106831
1621785026342.708,-0.4366919131475466,0.40263446743033,0.1557493588647632,-0.127,-7.022,-7.718
1621785026345.866,-0.419,0.396,0.127,-0.3240434406552284,-7.201005860340324,-7.852254395255242
1621785026350.147,-0.358,0.384,0.087,-0.5911603120807738,-7.443670550024712,-8.034252912518534
1621785026354.425,-0.288,0.367,0.035,-0.8580943832521358,-7.686169173197769,-8.216126879898326
1621785026356.539,-0.24150474123157772,0.35315034845195936,0.011752370615788876,-0.99,-7.806,-8.306
1621785026358.699,-0.194,0.339,-0.012,-1.0531078483432454,-7.802868096856415,-8.216897355564996
1621785026362.97,-0.11,0.305,-0.068,-1.1778968953554234,-7.796675092041914,-8.040706368592467
1621785026367.237,-0.028,0.258,-0.115,-1.302571810393656,-7.7904877513452275,-7.864676525771736
1621785026370.332,0.021369222839470823,0.230411316648531,-0.1542049710784033,-1.393,-7.786,-7.737
1621785026371.5,0.04,0.22,-0.169,-1.3788227955920713,-7.744402214611466,-7.635467446276152
1621785026375.76,0.072,0.19,-0.218,-1.3271133391301262,-7.592679857327915,-7.265141039518748
1621785026380.017,0.082,0.161,-0.251,-1.275439444217699,-7.4410618423154045,-6.895069313080049
1621785026384.09,0.06859538567493113,0.13419077134986226,-0.2730218663911846,-1.226,-7.296,-6.541
1621785026384.271,0.068,0.133,-0.274,-1.222887939778976,-7.288628637018846,-6.531953926645668
1621785026388.52,0.058,0.112,-0.302,-1.1497944227928745,-7.115496111615326,-6.319487178118272
1621785026392.766,0.031,0.094,-0.33,-1.076751303543146,-6.942482960511096,-6.107166924705925
1621785026397.008,0.0,0.072,-0.361,-1.0037795810866121,-6.769638922997527,-5.895054206039899
1621785026397.809,-0.007936531705350459,0.07067724471577493,-0.3644013707308645,-0.99,-6.737,-5.855
1621785026401.247,-0.042,0.065,-0.379,-0.8990495102499598,-6.670420221591821,-5.844950222127068
1621785026405.482,-0.086,0.061,-0.401,-0.7870180377883638,-6.588408232082642,-5.832571053899267
1621785026409.714,-0.129,0.052,-0.417,-0.6750576103052686,-6.506448250637835,-5.820199735945334
1621785026411.493,-0.14876919524304352,0.05157937882461609,-0.42751552938459764,-0.628,-6.472,-5.815
1621785026413.943,-0.176,0.051,-0.442,-0.5838296776040363,-6.447401080616882,-5.873175546570294
1621785026418.168,-0.218,0.045,-0.464,-0.5076671199055355,-6.404985347264465,-5.973487207929295
1621785026422.389,-0.248,0.042,-0.482,-0.4315749812144416,-6.3626088310015385,-6.073706122302931
1621785026425.139,-0.26169443640363577,0.038739419903896254,-0.4989550164997395,-0.382,-6.335,-6.139
1621785026426.606,-0.269,0.037,-0.508,-0.31646804541622575,-6.345562716363832,-6.145359186382307
1621785026430.821,-0.279,0.035,-0.52,-0.12818227475740346,-6.375911409660813,-6.1636303384692654
1621785026435.031,-0.283,0.019,-0.538,0.059874477587845976,-6.406223188821725,-6.18187926673961
1621785026438.75,-0.283,0.02695410768159666,-0.5486054769087956,0.226,-6.433,-6.198
1621785026439.239,-0.283,0.028,-0.55,0.2563741432965768,-6.433,-6.19482927092515
1621785026443.443,-0.271,0.031,-0.557,0.517503822561206,-6.433,-6.167570182223741
1621785026447.643,-0.26,0.038,-0.571,0.7783757082981058,-6.433,-6.140338004353223
1621785026451.839,-0.251,0.044,-0.564,1.0390049648324369,-6.433,-6.113131154323542
1621785026452.322,-0.2508848258996157,0.04515174100384302,-0.5629634330965413,1.069,-6.433,-6.11
1621785026456.032,-0.25,0.054,-0.555,1.2893788668626778,-6.438482061364743,-6.04531167589603
1621785026460.222,-0.25,0.061,-0.534,1.5382695034181713,-6.444673370731795,-5.972254225364815
1621785026464.408,-0.251,0.08,-0.518,1.7869281011562257,-6.450858907988961,-5.899264885730262
1621785026465.857,-0.2555030349013657,0.0838102603011556,-0.5096867047974787,1.873,-6.453,-5.874
1621785026468.591,-0.264,0.091,-0.494,1.938619140625,-6.470822482638889,-5.870151963975694
1621785026472.77,-0.274,0.101,-0.466,2.0389140625,-6.498063078703704,-5.864270471643518
1621785026476.945,-0.288,0.115,-0.436,2.139115234375,-6.525278211805556,-5.858394476996528
1621785026479.357,-0.29609375,0.1219375,-0.4198125,2.197,-6.541,-5.855
1621785026481.117,-0.302,0.127,-0.408,2.199483833529785,-6.566622703780942,-5.892126774866262
1621785026485.286,-0.311,0.141,-0.375,2.205367304379364,-6.62731535043975,-5.9800691812494335
1621785026489.451,-0.319,0.147,-0.351,2.2112452624897996,-6.687951128842144,-6.0679291866896365
1621785026492.82,-0.319,0.1494290072752875,-0.33237761088946255,2.216,-6.737,-6.139
1621785026493.612,-0.319,0.15,-0.328,2.196947833518192,-6.743960234194592,-6.166192101387349
1621785026497.77,-0.307,0.152,-0.304,2.0969239594886995,-6.780501463716203,-6.308950633670928
1621785026501.924,-0.286,0.14,-0.286,1.9969940542211395,-6.817008364092588,-6.451575049548157
1621785026506.075,-0.264,0.131,-0.269,1.8971404985726494,-6.853487372038475,-6.5940904958452276
1621785026506.247,-0.2628378664782762,0.13070946661956906,-0.2685434475450371,1.893,-6.855,-6.6
1621785026510.222,-0.236,0.124,-0.258,1.8046174285714285,-6.872153196428572,-6.6569835
1621785026514.366,-0.206,0.115,-0.248,1.7124728571428571,-6.890036517857143,-6.7163925
1621785026518.548,-0.168,0.098,-0.239,1.6194814285714285,-6.908084196428571,-6.7763475
1621785026519.919,-0.15976162762263413,0.098,-0.23652848828679024,1.589,-6.914,-6.796
1621785026523.54,-0.138,0.098,-0.23,1.5579523549488055,-6.891951672354948,-6.78722566552901
1621785026528.521,-0.108,0.087,-0.222,1.5152450967007964,-6.861623329541145,-6.77515622298066
1621785026533.502,-0.079,0.079,-0.216,1.4725378384527874,-6.831294986727341,-6.763086780432309
1621785026536.014,-0.06740079403980002,0.08051293990785217,-0.20893961376335654,1.451,-6.816,-6.757
1621785026538.483,-0.056,0.082,-0.202,1.401448279000622,-6.779795027381259,-6.7269314634183335
1621785026543.463,-0.044,0.082,-0.199,1.301502070660336,-6.7067693147858805,-6.6662829902459
1621785026548.443,-0.035,0.063,-0.195,1.2015509625157383,-6.633740022147722,-6.6056315438176
1621785026552.108,-0.028376850671634472,0.049017795862339446,-0.19132047259535248,1.128,-6.58,-6.561
1621785026553.423,-0.026,0.044,-0.19,1.0935103849013093,-6.578447150031102,-6.54735126606284
1621785026558.403,-0.03,0.021,-0.192,0.9629146602339447,-6.572567247735652,-6.495670019571253
1621785026563.382,-0.026,0.012,-0.188,0.8323445450821537,-6.566688498475263,-6.443998907650995
1621785026568.2,-0.02406510442200216,-0.006381507990979508,-0.188,0.706,-6.561,-6.394
1621785026568.362,-0.024,-0.007,-0.188,0.7034305355327253,-6.561785953837049,-6.395189007086818
1621785026573.341,-0.023,-0.019,-0.19,0.6245123753736892,-6.585925626356284,-6.431707998846685
1621785026578.32,-0.012,-0.045,-0.19,0.5455942152146531,-6.610065298875518,-6.468226990606553
1621785026583.299,0.002,-0.068,-0.194,0.46667605505561716,-6.634204971394753,-6.50474598236642
1621785026584.288,0.005377488965179009,-0.07217219225110348,-0.19539073075036784,0.451,-6.639,-6.512
1621785026588.277,0.019,-0.089,-0.201,0.46067068839919867,-6.643959327384205,-6.553162417288896
1621785026593.255,0.037,-0.108,-0.206,0.47273848115097433,-6.650147939051782,-6.604527894129788
1621785026598.234,0.056,-0.126,-0.215,0.4848092332908396,-6.656338068354277,-6.655905967340496
1621785026600.375,0.06718293281020107,-0.1363227072094164,-0.21543011280039234,0.49,-6.659,-6.678
1621785026603.212,0.082,-0.15,-0.216,0.5781799417192812,-6.662350837785333,-6.685054395337542
1621785026608.189,0.103,-0.157,-0.215,0.7328818601262749,-6.668229510684799,-6.697430548810102
1621785026613.167,0.131,-0.164,-0.216,0.8876141330743079,-6.674109337056824,-6.709809130645945
1621785026616.461,0.14158922790150102,-0.16532365348768763,-0.21732365348768762,0.99,-6.678,-6.718
1621785026618.144,0.147,-0.166,-0.218,1.0484928966061562,-6.66983820047356,-6.7035598931455285
1621785026623.122,0.161,-0.176,-0.213,1.2214940805051302,-6.645698500394633,-6.66085119300589
1621785026628.099,0.175,-0.176,-0.209,1.3944613259668508,-6.621563535911602,-6.618150871228219
1621785026632.546,0.1866177812668662,-0.18583043030273294,-0.20006324517933372,1.549,-6.6,-6.58
1621785026633.075,0.188,-0.187,-0.199,1.557092694923488,-6.597730097765362,-6.571282259533641
1621785026638.052,0.19,-0.183,-0.197,1.6332245263541414,-6.5763760474860335,-6.489270327301433
1621785026643.028,0.192,-0.182,-0.195,1.7093414197230992,-6.555026187150838,-6.4072744868836535
1621785026648.004,0.178,-0.182,-0.188,1.7854545785766334,-6.533677374301676,-6.32528266941948
1621785026648.628,0.1777491904621725,-0.18237621430674122,-0.18699676184869002,1.795,-6.531,-6.315
1621785026652.98,0.176,-0.185,-0.18,1.8055540138450328,-6.549672486033519,-6.254111458586349
1621785026657.956,0.171,-0.185,-0.178,1.8176213262084042,-6.571022346368715,-6.184492348797669
1621785026662.931,0.164,-0.199,-0.171,1.8296856782851592,-6.592366969273742,-6.114890317585621
1621785026664.71,0.15899371871626264,-0.2000727745608009,-0.1702848169594661,1.834,-6.6,-6.09
1621785026667.906,0.15,-0.202,-0.169,1.8300243561710399,-6.646713814990282,-6.078271850704567
1621785026672.881,0.147,-0.216,-0.171,1.823835702137998,-6.719430499878523,-6.060015321307094
1621785026677.856,0.145,-0.237,-0.171,1.817647351797862,-6.792143616375121,-6.041759687803693
1621785026680.788,0.1479468053783492,-0.2446616939837079,-0.16569575031897144,1.814,-6.835,-6.031
1621785026682.831,0.15,-0.25,-0.162,1.8264533264491047,-6.886084053393267,-6.043453326449105
1621785026687.806,0.155,-0.269,-0.162,1.8567785455042445,-7.010479339721493,-6.073778545504244
1621785026692.78,0.155,-0.284,-0.155,1.887099299934701,-7.134856311977039,-6.104099299934701
1621785026696.865,0.15992769842438523,-0.3012469444853482,-0.1467871692926913,1.912,-7.237,-6.129
1621785026697.754,0.161,-0.305,-0.145,1.9310225840256368,-7.2560225840256365,-6.1881137858238535
1621785026702.727,0.154,-0.321,-0.129,2.0374466534027915,-7.362446653402792,-6.518832768859256
1621785026707.701,0.141,-0.323,-0.113,2.1438863964278663,-7.468886396427867,-6.849600458666829
1621785026712.675,0.126,-0.314,-0.093,2.2503313640022475,-7.575331364002248,-7.180384384065125
1621785026712.94,0.12541406058225735,-0.31176277676861897,-0.09081604398841377,2.256,-7.581,-7.198
1621785026717.648,0.115,-0.272,-0.052,2.3134216307369764,-7.581,-7.792724032632971
1621785026722.621,0.103,-0.227,-0.019,2.374077024748188,-7.581,-8.42094061346338
1621785026727.594,0.077,-0.185,0.023,2.4347294410768274,-7.581,-9.049126354009996
1621785026729.01,0.06760152221949423,-0.1775951387183894,0.030974465995580652,2.452,-7.581,-9.228
1621785026732.566,0.044,-0.159,0.051,2.358627523660504,-7.602683655642822,-9.358101933856927
1621785026737.539,0.024,-0.166,0.075,2.228040682394762,-7.633009509775625,-9.540057058653744
1621785026742.511,0.021,-0.173,0.093,2.0974858948455797,-7.6633279201543445,-9.721967520926064
1621785026745.081,0.03082140928062853,-0.1792029953351338,0.09351691627792781,2.03,-7.679,-9.816
1621785026747.483,0.04,-0.185,0.094,1.9802225362384902,-7.65837150150424,-9.800005439572129
1621785026752.455,0.084,-0.194,0.106,1.8771764062357552,-7.6156676998814845,-9.7668945209226
1621785026757.427,0.145,-0.194,0.136,1.774135335946759,-7.572965995077036,-9.733785228066976
1621785026761.149,0.1959040019641542,-0.20522882396268108,0.15022317701939603,1.697,-7.541,-9.709
1621785026762.399,0.213,-0.209,0.155,1.6138169245265814,-7.4487126964345425,-9.680753548740084
1621785026767.37,0.283,-0.241,0.18,1.2830017325754584,-7.081690416122071,-9.568418736131797
1621785026772.341,0.337,-0.288,0.183,0.9522027873187636,-6.714686160673577,-9.456089440408523
1621785026777.213,0.3526840398879992,-0.32917060470599796,0.17809873753500025,0.628,-6.355,-9.346
1621785026777.311,0.353,-0.33,0.178,0.6199700221945214,-6.348228907603904,-9.339045574777295
1621785026782.281,0.353,-0.372,0.168,0.21333753914444675,-6.005345504849351,-8.986878325377763
1621785026787.252,0.351,-0.422,0.155,-0.19337484418229922,-5.6623947280411056,-8.634641877717309
1621785026792.223,0.332,-0.468,0.133,-0.6000872275090451,-5.31944395123286,-8.282405430056855
1621785026793.273,0.33073239021514883,-0.47497185381668144,0.1262394144807938,-0.686,-5.247,-8.208
1621785026797.193,0.326,-0.501,0.101,-0.8727206548505761,-5.124716277019426,-7.937560149575898
1621785026802.162,0.321,-0.538,0.07,-1.1093978354057095,-4.969715927400967,-7.594764965190162
1621785026807.132,0.33,-0.55,0.049,-1.3461215304168062,-4.814685115374092,-7.2519024108472925
1621785026809.334,0.3246824546749865,-0.5531019014395913,0.04102368201247973,-1.451,-4.746,-7.1
1621785026812.101,0.318,-0.557,0.031,-1.4578918549147184,-4.75616548599921,-6.8922105743212425
1621785026817.07,0.295,-0.555,0.028,-1.470267884831717,-4.774420130126782,-6.519073272323736
1621785026822.04,0.258,-0.557,0.03,-1.4826463470250222,-4.792678361861907,-6.145862637195585
1621785026825.394,0.2215435647943388,-0.5590253575114257,0.030675119170475208,-1.491,-4.805,-5.894
1621785026827.008,0.204,-0.56,0.031,-1.4465762348541285,-4.8316341578363255,-5.888070130896818
1621785026831.977,0.157,-0.576,0.042,-1.3098107089104094,-4.913631588549189,-5.869814099153199
1621785026836.945,0.106,-0.583,0.051,-1.1730720616628911,-4.995612904206638,-5.851561655289843
1621785026841.453,0.07333480760725343,-0.5811852670892919,0.07277679492849772,-1.049,-5.07,-5.835
1621785026841.913,0.07,-0.581,0.075,-1.0189351528052304,-5.082094724038315,-5.845403755511631
1621785026846.881,0.042,-0.581,0.094,-0.6943783487912422,-5.2126599969591005,-5.957714641934013
1621785026851.849,0.017,-0.55,0.138,-0.36982154477725404,-5.343225269879884,-6.0700255283563935
1621785026856.817,-0.002,-0.527,0.169,-0.04528069028432413,-5.473784126501444,-6.182330895545082
1621785026857.51,-0.006604915212582945,-0.5214182845908085,0.17653531580240847,0.0,-5.492,-6.198
1621785026861.784,-0.035,-0.487,0.223,0.2089974601919304,-5.6799645947713415,-6.179629522607334
1621785026866.751,-0.087,-0.442,0.274,0.45188865907258985,-5.898411965993947,-6.158279850349033
1621785026871.718,-0.133,-0.393,0.33,0.6947798579532493,-6.116859337216553,-6.136930178090733
1621785026873.563,-0.1504612359274372,-0.3807399832849909,0.3500618455336513,0.785,-6.198,-6.129
1621785026876.684,-0.18,-0.36,0.384,0.8058059624306031,-6.346752908966462,-6.258696980758993
1621785026881.651,-0.223,-0.316,0.443,0.8389158262985779,-6.5834729637234775,-6.465092113468705
1621785026886.617,-0.253,-0.274,0.504,0.8720208076659822,-6.820158110882957,-6.671456810403833
1621785026889.614,-0.2560175507595497,-0.24684204316405292,0.5420211395703259,0.892,-6.963,-6.796
1621785026891.583,-0.258,-0.229,0.567,0.7825492332035053,-6.961772973466407,-7.010238832765336
1621785026896.549,-0.222,-0.195,0.59,0.5064998782862706,-6.958678249756573,-7.550577592502434
1621785026901.515,-0.164,-0.182,0.607,0.23046409444985394,-6.9555836781888996,-8.09088978821811
1621785026905.661,-0.1230835423120421,-0.19035029748733834,0.6061649702512661,0.0,-6.953,-8.542
1621785026906.48,-0.115,-0.192,0.606,-0.040068691140896714,-6.938963197371024,-8.564509927125012
1621785026911.446,-0.056,-0.208,0.592,-0.28300080634118885,-6.853859590135253,-8.700985166364923
1621785026916.411,0.037,-0.236,0.571,-0.5258732066515541,-6.768776902128437,-8.83742685876858
1621785026921.376,0.127,-0.25,0.555,-0.7687575499399047,-6.683690030275829,-8.973875260539488
1621785026921.708,0.1322840210495254,-0.2522072492991688,0.5540635912064132,-0.785,-6.678,-8.983
1621785026926.34,0.206,-0.283,0.541,-0.9123375083703659,-6.630067967370792,-8.66018064771413
1621785026931.305,0.284,-0.305,0.522,-1.0488228069641443,-6.578692548852499,-8.314170298898155
1621785026936.27,0.368,-0.312,0.504,-1.1853148170694587,-6.5273146040056,-7.968142935411214
1621785026937.75,0.39423726145976784,-0.3146833562856581,0.4962480818414322,-1.226,-6.512,-7.865
1621785026941.234,0.456,-0.321,0.478,-1.2322987823439877,-6.337154490106545,-7.607184322678844
1621785026946.198,0.517,-0.339,0.469,-1.2412737747336378,-6.08802108066971,-7.239828599695586
1621785026951.161,0.538,-0.356,0.459,-1.2502465601217656,-5.838948934550989,-6.872563211567732
1621785026953.79,0.5311134340105269,-0.35864867922672045,0.45635132077327956,-1.255,-5.707,-6.678
1621785026956.124,0.525,-0.361,0.454,-1.2807568192888454,-5.605718947881149,-6.522440452995616
1621785026961.087,0.482,-0.365,0.457,-1.3355250852411105,-5.390358986848514,-6.1916648806624455
1621785026966.051,0.431,-0.372,0.454,-1.390306822333171,-5.174946054554311,-5.8608079487335605
1621785026969.829,0.38989167650531287,-0.37961265249901616,0.44714861275088547,-1.432,-5.011,-5.609
1621785026971.014,0.377,-0.382,0.445,-1.4617000319697961,-4.985658927946169,-5.57789623517591
1621785026975.976,0.318,-0.396,0.436,-1.586087658136313,-4.8795271971623,-5.447629591852269
1621785026980.939,0.253,-0.401,0.426,-1.7104936441000502,-4.773379801178315,-5.317343720979798
1621785026985.866,0.17554880928950994,-0.3940492521157253,0.4120985042314505,-1.834,-4.668,-5.188
1621785026985.901,0.175,-0.394,0.412,-1.8350038373102284,-4.667381583956389,-5.1879564495743935
1621785026990.863,0.098,-0.396,0.391,-1.9776821123479162,-4.579484338596946,-5.181766502718094
1621785026995.825,0.03,-0.398,0.358,-2.120353367544274,-4.49159141782522,-5.175576860410227
1621785027000.787,-0.04,-0.401,0.328,-2.2630316425819617,-4.4036941724657765,-5.169386913553928
1621785027001.899,-0.054791535433070866,-0.4025687992125984,0.3201560039370079,-2.295,-4.384,-5.168
1621785027005.748,-0.106,-0.408,0.293,-2.257311011632864,-4.414487270844753,-5.2174517936536935
1621785027010.709,-0.183,-0.398,0.265,-2.2087355807296425,-4.453780772276022,-5.281187709361106
1621785027015.67,-0.253,-0.391,0.243,-2.1601601498264205,-4.493074273707291,-5.3449236250685175
1621785027017.933,-0.28584484031297674,-0.38324496825943605,0.23570114659711627,-2.138,-4.511,-5.374
1621785027020.631,-0.325,-0.374,0.227,-2.1066940509915013,-4.5638498278960675,-5.464719927503122
1621785027025.592,-0.384,-0.368,0.202,-2.049130311614731,-4.661027323403089,-5.63153097870785
1621785027030.552,-0.431,-0.354,0.187,-1.9915779036827195,-4.758185689481861,-5.798309193091474
1621785027033.963,-0.46813496751329,-0.34368473124630833,0.180810838747785,-1.952,-4.825,-5.913
1621785027035.512,-0.485,-0.339,0.178,-1.9035796408280148,-4.87999238396978,-5.970891806674689
1621785027040.472,-0.532,-0.314,0.175,-1.748542916330292,-5.056072017181764,-6.1562550760841415
1621785027045.432,-0.574,-0.293,0.175,-1.5935061918325693,-5.232151650393749,-6.341618345493595
1621785027049.991,-0.6061759464382415,-0.2690978683601635,0.1759193127553783,-1.451,-5.394,-6.512
1621785027050.391,-0.609,-0.267,0.176,-1.4429352101518822,-5.414074585256616,-6.527655180293404
1621785027055.352,-0.628,-0.236,0.188,-1.342949530033667,-5.662955349389882,-6.721745029934646
1621785027060.311,-0.642,-0.216,0.202,-1.2430032143564431,-5.91173812897034,-6.915758466249257
1621785027065.269,-0.637,-0.185,0.216,-1.143076580899715,-6.1604719162743935,-7.1097336959005535
1621785027066.017,-0.6330779834580543,-0.1818322174084285,0.21841354864119733,-1.128,-6.198,-7.139
1621785027070.228,-0.611,-0.164,0.232,-1.166632576565595,-6.370663964650313,-7.340047082127076
1621785027075.186,-0.569,-0.136,0.25,-1.2121190309309766,-6.573960566813957,-7.576762303824471
1621785027080.146,-0.501,-0.117,0.25,-1.257623403931129,-6.777337254304435,-7.813570775559957
1621785027082.04,-0.46700049241678154,-0.11241579673035257,0.24923596612172544,-1.275,-6.855,-7.904
1621785027085.104,-0.412,-0.105,0.248,-1.2862828756895133,-6.901852619388658,-8.010900466278608
1621785027090.061,-0.309,-0.077,0.239,-1.3045368603906988,-6.977653064334258,-8.183849236583061
1621785027095.019,-0.202,-0.051,0.239,-1.3227944412275623,-7.05346844238564,-8.356832078749276
1621785027098.062,-0.13815760441292357,-0.03258392434988179,0.2347029156816391,-1.334,-7.1,-8.463
1621785027099.976,-0.098,-0.021,0.232,-1.3245611265201622,-7.1,-8.412579688500106
1621785027104.934,-0.003,0.012,0.232,-1.300111554756317,-7.1,-8.281975646926147
1621785027109.892,0.087,0.044,0.222,-1.2756619829924716,-7.1,-8.15137160535219
1621785027114.082,0.15210044829794572,0.07781841470023154,0.21016355485491894,-1.255,-7.1,-8.041
1621785027114.848,0.164,0.084,0.208,-1.2306139682346127,-7.0934492424473365,-7.9880201505959825
1621785027119.805,0.218,0.129,0.201,-1.0727771850135657,-7.051049949699722,-7.645112001951041
1621785027124.761,0.248,0.19,0.204,-0.9149714965094655,-7.00865900984666,-7.302271408102918
1621785027129.718,0.255,0.223,0.227,-0.7571347132884187,-6.966259717099046,-6.959363259457977
1621785027130.099,0.25430793103448274,0.22384586206896553,0.22769206896551725,-0.745,-6.963,-6.933
1621785027134.674,0.246,0.234,0.236,-0.8767092652731403,-6.9321440332982665,-6.728436368903322
1621785027139.63,0.223,0.239,0.232,-1.0193831740078365,-6.898719343182546,-6.506843052950952
1621785027144.586,0.202,0.244,0.234,-1.1620641113601367,-6.865293006449253,-6.28523882053393
1621785027146.112,0.19614815727236895,0.2424600413874655,0.234,-1.206,-6.855,-6.217
1621785027149.541,0.183,0.239,0.234,-1.2501121224595588,-6.855,-6.286380231441248
1621785027154.496,0.169,0.234,0.243,-1.3138572016649133,-6.855,-6.386639482230252
1621785027159.451,0.168,0.225,0.232,-1.3775991400997118,-6.855,-6.486893793166537
1621785027162.125,0.1755537931034483,0.2223022167487685,0.2309208866995074,-1.412,-6.855,-6.541
1621785027164.407,0.182,0.22,0.23,-1.5126233817721595,-6.863409036153764,-6.603853982098474
1621785027169.362,0.218,0.206,0.213,-1.7311161769414922,-6.881668349064515,-6.740334609109346
1621785027174.316,0.258,0.192,0.185,-1.9495551455452036,-6.8999231637211995,-6.876781613577103
1621785027178.136,0.2988678789670806,0.17966252710427755,0.1703492509363296,-2.118,-6.914,-6.982
1621785027179.27,0.311,0.176,0.166,-2.1333008097845148,-6.884106751254327,-6.968824302685557
1621785027184.224,0.368,0.169,0.138,-2.2001434431854574,-6.753516050813597,-6.9112653683680785
1621785027189.178,0.415,0.164,0.11,-2.266982782547695,-6.622931785948484,-6.85370927058393
1621785027194.132,0.459,0.155,0.084,-2.3338254159486373,-6.492341085507754,-6.796150336266451
1621785027194.145,0.4590496376990191,0.15499738748952532,0.08394513728003156,-2.334,-6.492,-6.796
1621785027199.085,0.478,0.154,0.063,-2.1250552471018915,-6.419471171446004,-6.38119682733374
1621785027204.039,0.487,0.19,0.063,-1.915511561928005,-6.346734441732764,-5.965204636973764
1621785027208.991,0.454,0.162,0.066,-1.7060608145210496,-6.274029972544234,-5.549396949359366
1621785027210.151,0.4415885745268139,0.17511395899053628,0.06529746648264985,-1.657,-6.257,-5.452
1621785027213.944,0.401,0.218,0.063,-1.4223701359122596,-6.338290952911207,-5.161675168174261
1621785027218.897,0.337,0.276,0.087,-1.116008801500984,-6.444434324328447,-4.782591698826975
1621785027223.85,0.274,0.307,0.136,-0.8096323657275348,-6.550582927833793,-4.403489543450737
1621785027226.156,0.23488448454370656,0.3330770103041956,0.14996982694867625,-0.667,-6.6,-4.227
1621785027228.802,0.19,0.363,0.166,-0.6572446756575334,-6.616203759077317,-4.3096722401903955
1621785027233.754,0.105,0.447,0.178,-0.638987871483493,-6.646528620247757,-4.464390919631415
1621785027238.706,0.031,0.525,0.197,-0.6207301672057118,-6.676854976505767,-4.619117227070239
1621785027242.159,-0.016424626460870853,0.5626607327777504,0.2262916810493614,-0.608,-6.698,-4.727
1621785027243.657,-0.037,0.579,0.239,-0.63833544921875,-6.685172973632813,-5.028107421875
1621785027248.608,-0.094,0.635,0.279,-0.7385917358398437,-6.642780654907226,-6.0232438964843755
1621785027253.561,-0.141,0.686,0.312,-0.8388925170898438,-6.600369522094726,-7.018822021484375
1621785027258.159,-0.16422194821208386,0.7082930702836004,0.3240754130702836,-0.932,-6.561,-7.943
1621785027258.511,-0.166,0.71,0.325,-0.9181794762224529,-6.547179476222452,-8.024800775288444
1621785027263.462,-0.175,0.744,0.316,-0.7238199743605397,-6.352819974360539,-9.175173814174958
1621785027268.413,-0.171,0.766,0.319,-0.5294508882241621,-6.158450888224162,-10.325603580367499
1621785027273.363,-0.169,0.757,0.34,-0.33512972346010617,-5.964129723460106,-11.475749710029913
1621785027274.156,-0.16675768035899208,0.7545975146703486,0.3428829823955817,-0.304,-5.933,-11.66
1621785027278.314,-0.155,0.742,0.358,-0.26319006410256407,-6.152125961538461,-11.805304166666666
1621785027283.264,-0.089,0.73,0.365,-0.21460680708180707,-6.412990201465202,-11.978285317460317
1621785027288.213,0.024,0.721,0.374,-0.1660331349206349,-6.673802976190476,-12.151232341269841
1621785027290.152,0.08824600512921682,0.7053302426514105,0.3826183665417242,-0.147,-6.776,-12.219
1621785027293.163,0.188,0.681,0.396,-0.147,-6.667199896213312,-12.001211556952944
1621785027298.112,0.367,0.628,0.387,-0.147,-6.488371800546407,-11.643245974450158
1621785027303.062,0.539,0.59,0.38,-0.147,-6.309508417405638,-11.285209755948655
1621785027306.148,0.6250500221992009,0.5563282521829214,0.3781293473434956,-0.147,-6.198,-11.062
1621785027308.011,0.677,0.536,0.377,-0.10133608108933259,-6.062056649569518,-10.638210875007632
1621785027312.96,0.761,0.504,0.382,0.019965622519386966,-5.700936526836417,-9.512456799169566
1621785027317.908,0.787,0.476,0.396,0.14124339012029066,-5.339887662575563,-8.38692486413873
1621785027322.141,0.7724560122366408,0.44348990970543245,0.41139951645532147,0.245,-5.031,-7.424
1621785027322.856,0.77,0.438,0.414,0.24061850664223544,-4.999435364177737,-7.300781676591846
1621785027327.804,0.7,0.415,0.415,0.2102907314093755,-4.78095159566346,-6.4478903649412125
1621785027332.753,0.592,0.401,0.407,0.17995697052985188,-4.562424706061995,-5.594830722247671
1621785027337.701,0.461,0.401,0.398,0.14962919529699192,-4.343940937547718,-4.741939410597038
1621785027338.13,0.44860050338054586,0.4042082613630756,0.3978265804668608,0.147,-4.325,-4.668
1621785027342.648,0.318,0.438,0.396,0.20239110914283098,-4.432956141288579,-4.60413065986592
1621785027347.595,0.178,0.49,0.405,0.26304117099094426,-4.551161874074187,-4.534197425285952
1621785027352.542,0.042,0.531,0.421,0.3236912328390575,-4.669367606859796,-4.464264190705985
1621785027354.117,0.004114741153827178,0.5392774515126092,0.41463272960568526,0.343,-4.707,-4.442
1621785027357.489,-0.077,0.557,0.401,0.08242807387379131,-4.816714495211035,-4.671767471701572
1621785027362.436,-0.175,0.583,0.358,-0.299845958785879,-4.977671982646686,-5.008849594427386
1621785027367.383,-0.253,0.586,0.29,-0.6821199914455494,-5.1386294700823365,-5.345931717153201
1621785027370.099,-0.29308712177303914,0.5854508613455748,0.24112665975615774,-0.892,-5.227,-5.531
1621785027372.329,-0.326,0.585,0.201,-0.9221350847716512,-5.387022880708722,-5.76078002138384
1621785027377.275,-0.389,0.609,0.117,-0.9889707041393005,-5.741932396517489,-6.270401619062166
1621785027382.221,-0.429,0.623,0.047,-1.0558096227279672,-6.096859431800825,-6.780048373300748
1621785027386.083,-0.44461676292018365,0.6393976010661928,0.010300607137568495,-1.108,-6.374,-7.178
1621785027387.167,-0.449,0.644,0.0,-1.093348773259189,-6.406626111399675,-7.2871380732683555
1621785027392.113,-0.447,0.654,-0.051,-1.0264976015154756,-6.555493766995631,-7.785117403525925
1621785027397.058,-0.428,0.658,-0.094,-0.9596596290751322,-6.704332029698433,-8.282998411194965
1621785027402.003,-0.384,0.644,-0.14,-0.8928249564606312,-6.853162944177947,-8.780854838216873
1621785027402.064,-0.38307430264132314,0.6437161194766724,-0.1403455936805727,-0.892,-6.855,-8.787
1621785027406.948,-0.309,0.621,-0.168,-0.6942423987776929,-6.7950919786096255,-8.739012452253629
1621785027411.893,-0.22,0.586,-0.188,-0.4940134453781513,-6.734435294117647,-8.690425210084035
1621785027416.837,-0.112,0.557,-0.206,-0.2938339190221544,-6.673793582887701,-8.641849961802905
1621785027418.043,-0.08541594667983214,0.550658849666749,-0.20819501357689457,-0.245,-6.659,-8.63
1621785027421.782,-0.003,0.531,-0.215,-0.13032822957733564,-6.479971623727881,-8.33395961309251
1621785027426.726,0.075,0.517,-0.222,0.0213020690076709,-6.243242688181901,-7.942505883072034
1621785027431.67,0.133,0.501,-0.218,0.17292488004645334,-6.006525442376455,-7.551071483145381
1621785027434.02,0.14441028300488962,0.4919668592877957,-0.21562285770731465,0.245,-5.894,-7.365
1621785027436.613,0.157,0.482,-0.213,0.27048559507252135,-5.747579574806279,-7.148453606199086
1621785027441.557,0.141,0.478,-0.209,0.31907643399715724,-5.468414372831619,-6.735586223234345
1621785027446.501,0.099,0.461,-0.199,0.3676696724693943,-5.1892353849210595,-6.322698451756866
1621785027449.994,0.05094962216624685,0.45746688398281227,-0.19758675359312491,0.402,-4.992,-6.031
1621785027451.444,0.031,0.456,-0.197,0.39845898933080615,-4.978562318486136,-5.987418330225307
1621785027456.386,-0.037,0.454,-0.188,0.3863921310874018,-4.932770138485525,-5.838903151844945
1621785027461.329,-0.11,0.45,-0.19,0.374322292195286,-4.886966647305188,-5.690351288557366
1621785027465.966,-0.17098927971544314,0.44343192372295226,-0.17592555083489772,0.363,-4.844,-5.551
1621785027466.271,-0.175,0.443,-0.175,0.36374471403017933,-4.846062285006651,-5.55754966441927
1621785027471.213,-0.236,0.459,-0.161,0.3758139705545108,-4.879484841535569,-5.663697228210185
1621785027476.156,-0.274,0.45,-0.157,0.38788620831995596,-4.912915653809109,-5.769871011634485
1621785027481.098,-0.312,0.452,-0.155,0.3999554648442875,-4.946338210338027,-5.8760185754254
1621785027481.935,-0.31555722965963545,0.4514918243343378,-0.15720209455120288,0.402,-4.952,-5.894
1621785027486.04,-0.333,0.449,-0.168,0.3968581825965964,-4.934517820828428,-5.962129080595098
1621785027490.981,-0.344,0.442,-0.176,0.3906692864023486,-4.913475573767985,-6.044131955168881
1621785027495.922,-0.37,0.442,-0.195,0.3844800844023792,-4.89243228696809,-6.126138881668476
1621785027497.902,-0.38122047633165335,0.4411985374048819,-0.2042168198438581,0.382,-4.884,-6.159
1621785027500.863,-0.398,0.44,-0.218,0.4568217932428088,-4.9112923166419185,-6.187963274803668
1621785027505.805,-0.419,0.424,-0.23,0.5817016364833214,-4.9568440212482585,-6.236303859283867
1621785027510.745,-0.428,0.422,-0.232,0.7065382943220612,-5.002379973363134,-6.284627726834347
1621785027513.85,-0.4324240918352134,0.4099917507329921,-0.23895214431247827,0.785,-5.031,-6.315
1621785027515.658,-0.435,0.403,-0.243,0.8329409638924771,-5.076777357446023,-6.315
1621785027520.57,-0.445,0.384,-0.241,0.9632005443808821,-5.2011582395275875,-6.315
1621785027525.482,-0.464,0.365,-0.237,1.0934536507350678,-5.325532939656763,-6.315
1621785027529.726,-0.4925068574836017,0.3468592725104353,-0.23008924667064204,1.206,-5.433,-6.315
1621785027530.395,-0.497,0.344,-0.229,1.2121963294001814,-5.46153683676138,-6.32701329169423
1621785027535.305,-0.52,0.316,-0.218,1.2576760303370613,-5.670990969647555,-6.415188222082058
1621785027540.216,-0.548,0.295,-0.209,1.3031670384443794,-5.880497177053367,-6.5033850745350215
1621785027545.126,-0.562,0.267,-0.194,1.3486467393812593,-6.089951309939542,-6.591560004922849
1621785027545.596,-0.5622871562826315,0.26479846849982597,-0.19294709363035156,1.353,-6.11,-6.6
1621785027550.036,-0.565,0.244,-0.183,1.2791266329184041,-6.318468403317382,-6.841487559815974
1621785027554.946,-0.552,0.216,-0.176,1.197429659491314,-6.549014786662769,-7.108550014617409
1621785027559.855,-0.518,0.183,-0.171,1.1157529965687556,-6.779503854379838,-7.375546075610469
1621785027561.463,-0.5019501666086438,0.16924299995026607,-0.171,1.089,-6.855,-7.463
1621785027564.764,-0.469,0.141,-0.171,0.941858420428833,-6.965096033370789,-7.663004325272831
1621785027569.672,-0.4,0.098,-0.176,0.7230776855942247,-7.128794772730771,-7.960385210953253
1621785027574.579,-0.309,0.04,-0.185,0.5043513629996768,-7.292452799113397,-8.257692136007512
1621785027577.324,-0.24749256477843537,0.014837867409359926,-0.1967423285422987,0.382,-7.384,-8.424
1621785027579.488,-0.199,-0.005,-0.206,0.315119398848203,-7.424264851713837,-8.454710480120722
1621785027584.394,-0.082,-0.075,-0.223,0.16349872193649717,-7.515546687813742,-8.524332219518955
1621785027589.301,0.04,-0.136,-0.239,0.011847864248098305,-7.606846693973084,-8.593967817437097
1621785027593.179,0.13248210997760637,-0.16366558845483953,-0.2500662353819358,-0.108,-7.679,-8.649
1621785027594.207,0.157,-0.171,-0.253,-0.0876394629053617,-7.679,-8.601989205752824
1621785027599.112,0.274,-0.213,-0.262,0.009502201964830162,-7.679,-8.377697145144898
1621785027604.018,0.36,-0.236,-0.271,0.10666320716947432,-7.679,-8.15336042930615
1621785027608.923,0.438,-0.257,-0.271,0.20380487203966619,-7.679,-7.929068368698223
