time,gyro_x,gyro_y,gyro_z,acc_x,acc_y,acc_z
1621786819578.514,,,,1.167,-5.472,-6.874
1621786819597.142,,,,1.991,-4.952,-6.237
1621786819616.071,,,,2.736,-4.786,-5.972
1621786819616.967,0.099,0.965,0.998,2.7455968417578513,-4.78870202340755,-5.981596841757852
1621786819622.892,0.056,0.984,1.026,2.8090588996928076,-4.8065699814669065,-6.045058899692808
1621786819628.849,0.005,1.007,1.054,2.872863515194598,-4.8245343877732365,-6.108863515194598
1621786819634.833,-0.038,1.016,1.077,2.9369557744547974,-4.842579781157176,-6.172955774454797
1621786819635.304,-0.04050631369523732,1.016939867635714,1.0784881237565471,2.942,-4.844,-6.178
1621786819640.846,-0.07,1.028,1.096,2.9363275526013295,-4.908098655604978,-6.325483632365436
1621786819646.891,-0.094,1.052,1.114,2.9301400869608676,-4.9780170173421965,-6.486357739017443
1621786819652.963,-0.103,1.063,1.141,2.9239253835773904,-5.048243165575491,-6.647940026987856
1621786819654.844,-0.10577490996398559,1.07009143657463,1.1487080832332932,2.922,-5.07,-6.698
1621786819659.064,-0.112,1.086,1.166,2.9454496172321663,-5.128624043080416,-6.822426540415576
1621786819663.846,-0.113,1.1,1.192,2.972022232373991,-5.195055580934978,-6.963424090147709
1621786819669.456,-0.106,1.11,1.22,3.0031965890056345,-5.272991472514086,-7.1288390437033655
1621786819672.48,-0.10061548493674738,1.12023057862018,1.2313074816328304,3.02,-5.315,-7.218
1621786819675.072,-0.096,1.129,1.241,3.006024446265229,-5.317852153823423,-7.2669144380717
1621786819680.695,-0.082,1.14,1.269,2.9757065642251743,-5.32403947668874,-7.37302702521189
1621786819686.323,-0.075,1.157,1.299,2.945362355437951,-5.330232172359602,-7.479231755967172
1621786819690.656,-0.06730922563591454,1.1716124712917624,1.315919703600988,2.922,-5.335,-7.561
1621786819691.957,-0.065,1.176,1.321,2.9003150708768923,-5.324514195456918,-7.566563896288166
1621786819697.599,-0.049,1.18,1.339,2.806275154938627,-5.279040946631507,-7.590692558930221
1621786819703.246,-0.044,1.175,1.361,2.7121538543911545,-5.233528344064144,-7.6148421031496385
1621786819708.895,-0.033007601278396824,1.1889903256456769,1.380986179493824,2.618,-5.188,-7.639
1621786819708.899,-0.033,1.189,1.381,2.6179876228710137,-5.187958173839977,-7.639004267975513
1621786819714.56,-0.03,1.187,1.4,2.600050068687731,-5.1273416114275046,-7.645189631486989
1621786819720.225,-0.031,1.206,1.422,2.5821001373754617,-5.0666832228550085,-7.651379262973979
1621786819725.897,-0.028,1.206,1.442,2.564128546087467,-5.0059516385024745,-7.657576363418115
1621786819727.2,-0.025246721980998237,1.208294398349168,1.4454415975237522,2.56,-4.992,-7.659
1621786819731.576,-0.016,1.216,1.457,2.5504720391239633,-4.947456782904529,-7.649710238145865
1621786819737.26,-0.009,1.223,1.475,2.538095896236445,-4.889598314905379,-7.637643498830534
1621786819742.951,-0.007,1.236,1.494,2.525704869232405,-4.8316702636614925,-7.625562247501595
1621786819745.571,-0.007,1.2424376365739749,1.5027367924932515,2.52,-4.805,-7.62
1621786819748.649,-0.007,1.25,1.513,2.4954597711803808,-4.7951505204057305,-7.613489327047856
1621786819754.352,-0.005,1.264,1.534,2.449988227972139,-4.776900037077253,-7.6014254482375065
1621786819760.061,-0.003,1.265,1.552,2.4044699674249848,-4.758630803252205,-7.589349175031119
1621786819764.008,-0.0009288124012469573,1.265,1.5616655421275143,2.373,-4.746,-7.581
1621786819765.778,0.0,1.265,1.566,2.356162672859707,-4.742269001372322,-7.577173334740843
1621786819771.499,-0.002,1.267,1.574,2.301742109152328,-4.730209899187163,-7.564805024807348
1621786819777.227,-0.003,1.274,1.587,2.247254196136388,-4.718135873007495,-7.552421408212815
1621786819782.51,-0.006684802043422733,1.2693939974457216,1.592527203065134,2.197,-4.707,-7.541
1621786819782.962,-0.007,1.269,1.593,2.1919863780997715,-4.707486759407789,-7.542435940252979
1621786819788.703,-0.009,1.272,1.604,2.12829360717385,-4.713670523575354,-7.560678044547296
1621786819794.449,-0.009,1.274,1.607,2.064543955610487,-4.7198598101349045,-7.5789364398979675
1621786819800.203,-0.014,1.276,1.614,2.0007076287900705,-4.726057511767955,-7.597219659715465
1621786819801.078,-0.013696129551909788,1.2764558056721353,1.6150635465683159,1.991,-4.727,-7.6
1621786819805.962,-0.012,1.279,1.621,1.9807779888634132,-4.762908090402883,-7.6411501473960035
1621786819811.728,-0.016,1.281,1.632,1.9687098329511956,-4.805301356043236,-7.6897322109400585
1621786819817.5,-0.016,1.286,1.642,1.956629413691451,-4.847737700622338,-7.7383636423190305
1621786819819.712,-0.019062492077576373,1.2867656230193942,1.6442968690581823,1.952,-4.864,-7.757
1621786819823.278,-0.024,1.288,1.648,1.9630607081309728,-4.895847211342629,-7.807535994046686
1621786819829.062,-0.026,1.288,1.665,1.9809999999999999,-4.9475,-7.8895
1621786819834.854,-0.024,1.288,1.67,1.9989642801190661,-4.999224737584208,-7.971578176406079
1621786819838.412,-0.022158298230834036,1.280633192923336,1.6773668070766639,2.01,-5.031,-8.022
1621786819840.65,-0.021,1.276,1.682,1.9936413115693756,-5.031,-8.04886645910139
1621786819846.445,-0.016,1.274,1.691,1.9512775555931894,-5.031,-8.118441970741113
1621786819852.248,-0.014,1.251,1.691,1.908856688769329,-5.031,-8.18811127756862
1621786819857.153,-0.014,1.2408653999747783,1.691,1.873,-5.031,-8.247
1621786819858.056,-0.014,1.239,1.691,1.8645488553880514,-5.031,-8.244214963707426
1621786819863.87,-0.009,1.216,1.686,1.8101237583265164,-5.031,-8.226279420357601
1621786819869.69,-0.005,1.199,1.682,1.7556460987106073,-5.031,-8.208326555256905
1621786819875.515,-0.005,1.187,1.681,1.7011204471972265,-5.031,-8.19035787464454
1621786819875.955,-0.005150929181315922,1.185113385233551,1.6806226770467103,1.697,-5.031,-8.189
1621786819881.348,-0.007,1.162,1.676,1.666119890232221,-4.988968739482745,-8.186140730577058
1621786819887.185,-0.005,1.154,1.67,1.6326954461904886,-4.943474357314832,-8.183045874647268
1621786819893.029,0.0,1.138,1.662,1.5992318585445413,-4.897926696352293,-8.17994739430968
1621786819894.816,-0.0006109093944326197,1.1373890906055673,1.6613890906055673,1.589,-4.884,-8.179
1621786819898.879,-0.002,1.136,1.66,1.56366807703719,-4.875412907470234,-8.149374530772308
1621786819904.735,0.0,1.138,1.656,1.5271558287431792,-4.86303587415023,-8.106673765818295
1621786819910.596,0.009,1.134,1.646,1.4906146592536216,-4.850649037035126,-8.063939177771186
1621786819913.742,0.013288186356073211,1.127031697171381,1.6449279534109815,1.471,-4.844,-8.041
1621786819916.465,0.017,1.121,1.644,1.4484817338974116,-4.8524622783442855,-8.01575659341366
1621786819922.338,0.017,1.126,1.639,1.3999182686743734,-4.870712242982242,-7.96131602093433
1621786819928.218,0.017,1.119,1.628,1.3512942379158255,-4.888984967916983,-7.90680755333239
1621786819932.728,0.025428512173876976,1.122831141897217,1.6226364013438965,1.314,-4.903,-7.865
1621786819934.104,0.028,1.124,1.621,1.3061996078582139,-4.903722258531647,-7.857199607858214
1621786819939.996,0.035,1.119,1.614,1.2727974318557533,-4.906815052605949,-7.823797431855754
1621786819945.894,0.04,1.117,1.611,1.2393620391372882,-4.909910922302103,-7.790362039137288
1621786819951.779,0.04897097134350577,1.1070322540627713,1.60402257784394,1.206,-4.913,-7.757
1621786819951.798,0.049,1.107,1.604,1.2059222819769297,-4.912971104837577,-7.756804708557413
1621786819957.707,0.061,1.098,1.597,1.181806777972229,-4.90400508411788,-7.696206775417395
1621786819963.622,0.063,1.079,1.588,1.1576663643447491,-4.895029802128176,-7.635546248866293
1621786819969.545,0.049,1.047,1.59,1.1334940664001123,-4.886042665712862,-7.5748056027490005
1621786819970.891,0.046501585863162664,1.0454101000947398,1.58841010009474,1.128,-4.884,-7.561
1621786819975.472,0.038,1.04,1.583,1.1139043368646224,-4.888539281348681,-7.528269392380564
1621786819981.406,0.026,1.025,1.583,1.0956445069776917,-4.894419565549557,-7.485869448405827
1621786819987.346,0.017,1.004,1.587,1.0773666471427115,-4.900305656004889,-7.443427638280534
1621786819990.065,0.01791470576157037,0.9943955895035111,1.5851705884768592,1.069,-4.903,-7.424
1621786819993.291,0.019,0.983,1.583,1.055752293810835,-4.889919986294242,-7.453513877079659
1621786819999.244,0.01,0.955,1.576,1.0313070978058096,-4.8657842231500394,-7.507974060584525
1621786820005.201,0.012,0.93,1.576,1.0068448584372898,-4.841631632381121,-7.5624722141143925
1621786820009.303,0.010624196519959059,0.918305670419652,1.5711846878198568,0.99,-4.825,-7.6
1621786820011.164,0.01,0.913,1.569,0.9787183804090719,-4.81555043829136,-7.611378043689996
1621786820017.135,0.003,0.885,1.559,0.9425233692146173,-4.785233249427629,-7.6478824139544885
1621786820023.11,0.0,0.864,1.552,0.906303198957714,-4.754894987161163,-7.684412158316151
1621786820028.604,0.0027556943423952974,0.8401173156992408,1.5354658339456282,0.873,-4.727,-7.718
1621786820029.091,0.003,0.838,1.534,0.8696302454473476,-4.726473475851148,-7.719289984164687
1621786820034.811,0.002,0.819,1.527,0.830056320929005,-4.720290050145157,-7.734439377144366
1621786820040.53,0.002,0.794,1.506,0.790489152810768,-4.714107680126682,-7.749586183689628
1621786820046.25,0.014,0.761,1.492,0.7509152282924254,-4.707924254420691,-7.764735576669306
1621786820047.105,0.0147473643774809,0.7544231934781681,1.4897579068675573,0.745,-4.707,-7.767
1621786820051.97,0.019,0.717,1.477,0.7244626727623478,-4.696731336381173,-7.767
1621786820057.689,0.028,0.693,1.457,0.70032020823974,-4.68466010411987,-7.767
1621786820063.41,0.037,0.663,1.436,0.676169498691895,-4.672584749345948,-7.767
1621786820065.582,0.037,0.6531266806095011,1.433341798625635,0.667,-4.668,-7.767
1621786820069.13,0.037,0.637,1.429,0.6330189182762175,-4.686814384231247,-7.731291066663144
1621786820074.85,0.033,0.609,1.407,0.578231088329326,-4.717148888947605,-7.673717414854546
1621786820080.572,0.03,0.586,1.391,0.5234268898459588,-4.74749245646947,-7.616126562211008
1621786820084.062,0.02633915233257928,0.5695261854966068,1.3794073157198345,0.49,-4.766,-7.581
1621786820086.292,0.024,0.559,1.372,0.4805887294919553,-4.783736625188238,-7.581
1621786820092.012,0.016,0.529,1.354,0.45644852183561857,-4.829231631925181,-7.581
1621786820097.734,0.005,0.504,1.337,0.4323000713323294,-4.874742173258302,-7.581
1621786820102.544,0.00079627891098404,0.48634437142613296,1.319344371426133,0.412,-4.913,-7.581
1621786820103.455,0.0,0.483,1.316,0.4028310724239502,-4.916894329454344,-7.597908291175189
1621786820109.176,-0.014,0.459,1.288,0.3452599363334962,-4.941346586180934,-7.704074418481778
1621786820114.898,-0.03,0.445,1.26,0.2876789728822962,-4.965803016894078,-7.810258668286949
1621786820120.62,-0.037,0.431,1.227,0.2300955525909097,-4.990260491103861,-7.916447448716764
1621786820121.027,-0.03806708488029702,0.4308577220159604,1.225292664191525,0.226,-4.992,-7.924
1621786820126.341,-0.052,0.429,1.203,0.35278385946374324,-5.0906096684718,-8.050783859463744
1621786820132.064,-0.054,0.452,1.166,0.4893243560956281,-5.196807832518822,-8.187324356095628
1621786820137.786,-0.056,0.496,1.175,0.6258415532954696,-5.302987874785365,-8.32384155329547
1621786820139.511,-0.05449287603446805,0.5026313454483405,1.1737943008275744,0.667,-5.335,-8.365
1621786820143.509,-0.051,0.518,1.171,0.41937880898602864,-5.315509244356682,-8.480172646983243
1621786820149.063,-0.054,0.517,1.127,0.07539160366257758,-5.288433328374157,-8.640166695970894
1621786820154.614,-0.047,0.504,1.066,-0.2684141498843611,-5.261371694821267,-8.800076348783424
1621786820157.562,-0.03849984601170311,0.504,1.0394370187865722,-0.451,-5.247,-8.885
1621786820160.163,-0.031,0.504,1.016,-0.5493428275363702,-5.296825095782829,-8.840840148344082
1621786820165.708,0.0,0.503,0.977,-0.758988247003804,-5.403041312736049,-8.746700993959887
1621786820171.252,0.051,0.489,0.932,-0.9685967440655547,-5.509238823064233,-8.652578419208377
1621786820175.468,0.08753526093088858,0.4730158233427363,0.8878532263751763,-1.128,-5.59,-8.581
1621786820176.791,0.099,0.468,0.874,-1.1519064821896852,-5.59,-8.495365944602272
1621786820182.327,0.138,0.447,0.819,-1.2519396033653847,-5.59,-8.13704296875
1621786820187.861,0.161,0.447,0.768,-1.351941843312937,-5.59,-7.778830610795454
1621786820193.343,0.1570347887510485,0.4539391196856651,0.7422261268818153,-1.451,-5.59,-7.424
1621786820193.391,0.157,0.454,0.742,-1.4536981870424848,-5.589735841828008,-7.4230727509064796
1621786820198.917,0.129,0.452,0.719,-1.7637020729287816,-5.559385811041937,-7.316537948963536
1621786820204.442,0.091,0.412,0.693,-2.073651173291373,-5.529041143873572,-7.210021974413355
1621786820209.963,0.059,0.36,0.639,-2.3833811315591436,-5.498717931176028,-7.103581309434221
1621786820211.186,0.051020175205734,0.3529068224050969,0.6265869392089196,-2.452,-5.492,-7.08
1621786820215.481,0.023,0.328,0.583,-2.473220166132083,-5.631377909367547,-7.08
1621786820220.997,-0.009,0.314,0.525,-2.500473942484305,-5.810385667681005,-7.08
1621786820226.508,-0.031,0.3,0.476,-2.527702387806015,-5.989227047180416,-7.08
1621786820228.997,-0.027385552847329936,0.2968373587414137,0.4597349878129847,-2.54,-6.07,-7.08
1621786820232.017,-0.023,0.293,0.44,-2.465098241133583,-6.145071604124618,-7.1384267688209695
1621786820237.523,-0.014,0.291,0.396,-2.3285433126004036,-6.281936181021818,-7.24494580604413
1621786820243.026,-0.002,0.29,0.358,-2.1920610454339498,-6.418727931787288,-7.351408164105944
1621786820246.778,0.008915482954545455,0.2838600408380682,0.32934685724431817,-2.099,-6.512,-7.424
1621786820248.526,0.014,0.281,0.316,-2.07857404432133,-6.534309903047091,-7.382156537396122
1621786820254.023,0.033,0.264,0.264,-2.014331717451524,-6.604477493074792,-7.250553324099723
1621786820259.453,0.059,0.248,0.232,-1.9508740166204988,-6.6737880886426595,-7.1205574515235455
1621786820264.405,0.08181254217463674,0.23704997975617437,0.20006244095550857,-1.893,-6.737,-7.002
1621786820264.88,0.084,0.236,0.197,-1.8892556497963284,-6.7348836281457505,-6.987619524580102
1621786820270.302,0.103,0.225,0.173,-1.846500753306177,-6.7107178170861,-6.82341593661068
1621786820275.72,0.113,0.195,0.159,-1.803778583784387,-6.686570503878132,-6.659338039171922
1621786820281.134,0.117,0.154,0.145,-1.761087216115172,-6.662440600412923,-6.495378438703198
1621786820281.906,0.11528733920108328,0.14914746106973595,0.14371550440081246,-1.755,-6.659,-6.472
1621786820286.543,0.105,0.12,0.136,-1.7967002433294177,-6.614643690216479,-6.393911646249371
1621786820291.949,0.08,0.079,0.131,-1.8453164960563853,-6.562930860882698,-6.302872294009062
1621786820297.351,0.051,0.037,0.126,-1.8938976198467303,-6.511255397997427,-6.211898724618225
1621786820299.364,0.03458907084049579,0.025064778793087848,0.12338917036098797,-1.912,-6.492,-6.178
1621786820302.748,0.007,0.005,0.119,-1.8814922755565524,-6.524450891605451,-6.24853696798071
1621786820308.141,-0.024,-0.023,0.115,-1.8328727219200358,-6.576167232097796,-6.360950330847306
1621786820313.53,-0.047,-0.028,0.106,-1.784290584870745,-6.6278437727808,-6.4732771827510796
1621786820316.779,-0.05122342113614725,-0.02679330824681507,0.106,-1.755,-6.659,-6.541
1621786820318.915,-0.054,-0.026,0.106,-1.7200826869027543,-6.705966245081506,-6.612187057335582
1621786820324.296,-0.058,-0.005,0.099,-1.632120910623946,-6.824281028667791,-6.791517580101181
1621786820329.673,-0.065,0.002,0.094,-1.5442189994378865,-6.942515289488477,-6.970726053962901
1621786820334.152,-0.06750093152178853,0.019506520652519656,0.0973345753623847,-1.471,-7.041,-7.12
1621786820335.046,-0.068,0.023,0.098,-1.4649133779499826,-7.057196604438182,-7.138672518492427
1621786820340.414,-0.068,0.04,0.096,-1.4283570693906305,-7.154473561113068,-7.250819837971116
1621786820345.778,-0.059,0.044,0.096,-1.3918290243043325,-7.2516753082071155,-7.36288045086298
1621786820351.139,-0.045,0.037,0.099,-1.3553225924621346,-7.348819542092286,-7.474874758717859
1621786820351.48,-0.04359911572997858,0.03585382196089156,0.09938205934636948,-1.353,-7.355,-7.482
1621786820356.495,-0.023,0.019,0.105,-1.330333446505114,-7.320709572917993,-7.459333446505114
1621786820361.847,-0.002,0.01,0.106,-1.3061452701268939,-7.284117203525301,-7.435145270126894
1621786820367.174,0.012,0.0,0.11,-1.2820685396596359,-7.247693431792783,-7.411068539659635
1621786820368.738,0.01141215875200734,-0.0020574443679743063,0.11352704748795596,-1.275,-7.237,-7.404
1621786820372.495,0.01,-0.007,0.122,-1.1548760023886708,-7.166325954046522,-7.333107148950691
1621786820377.814,0.0,-0.012,0.145,-0.9848180771199453,-7.0662736592162885,-7.232745094693739
1621786820383.126,-0.016,-0.012,0.171,-0.8149787152363077,-6.966349954501507,-7.132512028664051
1621786820385.909,-0.027007955486066403,-0.02038701370366964,0.18724983905085993,-0.726,-6.914,-7.08
1621786820388.435,-0.037,-0.028,0.202,-0.6796868799178926,-6.885091173451933,-7.08
1621786820393.739,-0.066,-0.028,0.234,-0.5824458889269015,-6.824392975253734,-7.08
1621786820399.039,-0.08,-0.024,0.271,-0.48527651385562776,-6.763739479986316,-7.08
1621786820403.036,-0.09434198635189966,-0.0179612689044633,0.2959097657690889,-0.412,-6.718,-7.08
1621786820404.334,-0.099,-0.016,0.304,-0.412,-6.7209647003316935,-7.101665117808532
1621786820409.625,-0.105,-0.005,0.333,-0.412,-6.733048767585497,-7.1899717631247855
1621786820414.911,-0.12,0.0,0.36,-0.412,-6.7451211254718055,-7.278192839986275
1621786820420.112,-0.11901534479571085,-0.0019693104085782955,0.38560103531151785,-0.412,-6.757,-7.365
1621786820420.193,-0.119,-0.002,0.386,-0.4124664927020904,-6.758351876810139,-7.365371290109827
1621786820425.47,-0.113,0.003,0.408,-0.44283629168697847,-6.846362314684713,-7.389543170934534
1621786820430.742,-0.105,0.0,0.435,-0.473177988701861,-6.93429131419723,-7.413692684885155
1621786820436.011,-0.094,-0.005,0.456,-0.5035028245347404,-7.022171450692513,-7.4378287787113235
1621786820437.14,-0.08692277723667734,-0.005428922591716526,0.460074764621307,-0.51,-7.041,-7.443
1621786820441.275,-0.061,-0.007,0.475,-0.5433563676092176,-7.069730302028377,-7.433504391702485
1621786820446.535,-0.026,-0.014,0.489,-0.5857879044894556,-7.106277173209896,-7.421425341057746
1621786820451.79,0.014,-0.01,0.499,-0.6281800526141771,-7.142790118310021,-7.409357503270416
1621786820454.123,0.03710788690476191,-0.012666294642857144,0.503888206845238,-0.647,-7.159,-7.404
1621786820457.04,0.066,-0.016,0.51,-0.670765804721958,-7.131962091729367,-7.344929920147597
1621786820462.287,0.112,-0.031,0.517,-0.7135156101357779,-7.08332644354118,-7.238674969010349
1621786820467.528,0.145,-0.019,0.529,-0.75621568797025,-7.034747369483121,-7.132543616131915
1621786820471.061,0.16119132867132868,-0.012928251748251747,0.535746386946387,-0.785,-7.002,-7.061
1621786820472.765,0.169,-0.01,0.539,-0.7998276893725882,-6.981221061151339,-7.003605746578213
1621786820477.998,0.188,0.0,0.543,-0.8453688158522309,-6.917401523363541,-6.827327508708032
1621786820483.225,0.206,0.009,0.548,-0.8908568269522612,-6.853656419373022,-6.651254867103153
1621786820487.953,0.2141437783281155,0.01804864258679501,0.5525243212933976,-0.932,-6.796,-6.492
1621786820488.45,0.215,0.019,0.553,-0.9366327719644049,-6.789626250036233,-6.4815836401055105
1621786820493.668,0.222,0.03,0.557,-0.9852655004492884,-6.722717528044291,-6.372237441664976
1621786820498.883,0.229,0.037,0.555,-1.0338709237948926,-6.655846372358619,-6.262952636308299
1621786820504.094,0.23,0.051,0.552,-1.082437664859851,-6.58902843560683,-6.153754804487087
1621786820504.798,0.22986472795497187,0.053029080675422134,0.5507825515947468,-1.089,-6.58,-6.139
1621786820509.299,0.229,0.066,0.543,-1.1045410731934189,-6.569549968025115,-6.0942524271844665
1621786820514.5,0.234,0.082,0.538,-1.1224989535492123,-6.557474841578978,-6.042546116504854
1621786820519.698,0.244,0.099,0.531,-1.1404467182140574,-6.545406517062962,-5.990868932038835
1621786820521.596,0.24802191703508608,0.11179700874800114,0.5295374847145142,-1.147,-6.541,-5.972
1621786820524.889,0.255,0.134,0.527,-1.1990977145522388,-6.5313668376865675,-5.937399253731344
1621786820530.078,0.255,0.138,0.518,-1.2811917852145522,-6.516187179337686,-5.882876399253732
1621786820535.261,0.258,0.161,0.506,-1.3631931553171641,-6.501024661847015,-5.8284151119402985
1621786820538.346,0.2591913449299958,0.16576537971998304,0.49885193042002546,-1.412,-6.492,-5.796
1621786820540.44,0.26,0.169,0.494,-1.4168889652148493,-6.494507161648641,-5.76766907337036
1621786820545.615,0.255,0.18,0.478,-1.428971441099094,-6.50070330312774,-5.697652674656533
1621786820550.784,0.251,0.197,0.471,-1.441039666764104,-6.506892136802104,-5.6277188541362175
1621786820555.05,0.251,0.21434187145557657,0.461090359168242,-1.451,-6.512,-5.57
1621786820555.95,0.251,0.218,0.459,-1.43673809558705,-6.513566648590816,-5.563625360906333
1621786820561.111,0.236,0.241,0.449,-1.3549430171036627,-6.522551714030279,-5.5270654394630006
1621786820566.267,0.237,0.265,0.44,-1.2732291920094971,-6.531527853908048,-5.490541835822427
1621786820571.42,0.229,0.286,0.433,-1.1915656666324692,-6.5404984684381,-5.454040714631179
1621786820571.708,0.22849625272744523,0.28745526989849157,0.433,-1.187,-6.541,-5.452
1621786820576.567,0.22,0.312,0.433,-1.1065553759094584,-6.526666230616595,-5.457850518115676
1621786820581.71,0.208,0.346,0.422,-1.021405820533549,-6.511494128022342,-5.464043213052106
1621786820586.85,0.188,0.37,0.419,-0.9363047696038804,-6.496330668038509,-5.470232380392446
1621786820588.318,0.18256587709284627,0.3840143169710807,0.41499590943683407,-0.912,-6.492,-5.472
1621786820591.983,0.169,0.419,0.405,-0.8626145223745888,-6.487629603749964,-5.497785337875215
1621786820597.114,0.147,0.436,0.4,-0.793469589774944,-6.4815105831659245,-5.533887559321047
1621786820602.375,0.126,0.45,0.384,-0.7225744024223368,-6.4752366727807384,-5.570903630593647
1621786820605.089,0.11928964108278776,0.4644530807447648,0.384,-0.686,-6.472,-5.59
1621786820607.633,0.113,0.478,0.384,-0.6889976553847039,-6.460309143999655,-5.6208758504624505
1621786820612.889,0.098,0.497,0.368,-0.6951908919607025,-6.43615552135326,-5.684666187195236
1621786820618.142,0.087,0.524,0.353,-0.7013809640252585,-6.412014240301492,-5.748423929460163
1621786820622.062,0.07953209302325581,0.5352018604651163,0.34254493023255816,-0.706,-6.394,-5.796
1621786820623.391,0.077,0.539,0.339,-0.7360448427908585,-6.383252889132252,-5.820632064324621
1621786820628.639,0.073,0.557,0.319,-0.8546734055736476,-6.340819173463212,-5.917888901697456
1621786820633.882,0.061,0.559,0.297,-0.9731971094267846,-6.2984229660797135,-6.015059771174962
1621786820639.005,0.054159098318662384,0.5502045549811374,0.2725682082809371,-1.089,-6.257,-6.11
1621786820639.124,0.054,0.55,0.272,-1.0925223466913039,-6.256718212264695,-6.112141586788313
1621786820644.362,0.044,0.532,0.25,-1.2473828964083613,-6.244329368287331,-6.206296801016284
1621786820649.597,0.037,0.529,0.22,-1.4021496131192979,-6.231948030950456,-6.300394964776533
1621786820654.83,0.026,0.503,0.195,-1.5568658043654002,-6.219570735650768,-6.394462409054163
1621786820655.917,0.026415647465222666,0.4982200541499393,0.18855746428904865,-1.589,-6.217,-6.414
1621786820660.06,0.028,0.48,0.164,-1.6346519286675054,-6.161775892740921,-6.522239250227795
1621786820665.287,0.021,0.457,0.129,-1.6922481450948061,-6.09210305028854,-6.65879802143446
1621786820670.511,0.017,0.435,0.099,-1.7498093895083957,-6.022472512691457,-6.795273875124745
1621786820672.797,0.011744492773958188,0.4240510266124129,0.085423272999392,-1.775,-5.992,-6.855
1621786820675.731,0.005,0.41,0.068,-1.6844646556845018,-6.009062430274843,-6.861790150823663
1621786820680.95,-0.012,0.389,0.054,-1.5234116428333406,-6.039414728850639,-6.8738691267875
1621786820686.165,-0.035,0.37,0.044,-1.3624791730053172,-6.069744309702844,-6.885939062024601
1621786820689.648,-0.04301911186059584,0.3559665542439573,0.03798566610455312,-1.255,-6.09,-6.894
1621786820691.377,-0.047,0.349,0.035,-1.1945640828410953,-6.113125988708765,-6.921237275590323
1621786820696.588,-0.059,0.337,0.024,-1.0124200252528917,-6.182823969928741,-7.003326009027183
1621786820701.794,-0.07,0.318,0.024,-0.8304466423813187,-6.252456641945924,-7.08533782273631
1621786820706.47,-0.08078030018761727,0.29913447467166976,0.02579671669793621,-0.667,-6.315,-7.159
1621786820706.999,-0.082,0.297,0.026,-0.6620532307781785,-6.31871795393742,-7.177841834360823
1621786820712.199,-0.094,0.264,0.024,-0.6134324473653601,-6.355260963126672,-7.363034372455507
1621786820717.397,-0.079,0.232,0.017,-0.5648299261370245,-6.39179024659765,-7.548157351401652
1621786820722.593,-0.049,0.199,0.007,-0.5162456670931721,-6.428305804350354,-7.733210771199255
1621786820723.261,-0.044238829837268366,0.19449619038660523,0.005455836703978929,-0.51,-6.433,-7.757
1621786820727.784,-0.012,0.164,-0.005,-0.5682841662175743,-6.4621420831087875,-7.770221871040098
1621786820732.975,0.016,0.134,-0.016,-0.6351791368687825,-6.495589568434392,-7.7853971190119
1621786820738.161,0.051,0.103,-0.019,-0.7020048938928296,-6.529002446946415,-7.800556665744207
1621786820740.023,0.06105916156382478,0.09545562882713142,-0.02331106924163919,-0.726,-6.541,-7.806
1621786820743.344,0.079,0.082,-0.031,-0.718060583068258,-6.523533282750168,-7.741690722852891
1621786820748.526,0.105,0.07,-0.033,-0.7056725712784895,-6.4962796568126775,-7.641347827355765
1621786820753.703,0.117,0.066,-0.031,-0.693296232526921,-6.469051711559226,-7.541099483468059
1621786820756.755,0.11817928399603793,0.07130677798217065,-0.029231074005943117,-0.686,-6.453,-7.482
1621786820758.879,0.119,0.075,-0.028,-0.6370811487113062,-6.435327744822409,-7.4255256193237855
1621786820763.983,0.119,0.072,-0.021,-0.5195297113502215,-6.392861518760028,-7.289818331689654
1621786820769.126,0.113,0.079,-0.009,-0.40107861695394265,-6.350070285705875,-7.15307243475573
1621786820773.341,0.10644097255199923,0.08309939215500048,-0.00408072941399943,-0.304,-6.315,-7.041
1621786820774.267,0.105,0.084,-0.003,-0.273346449390567,-6.316116704940235,-7.017437525761055
1621786820779.403,0.093,0.087,0.012,-0.10333359830418654,-6.322310251427899,-6.886753694871342
1621786820784.536,0.073,0.103,0.031,0.06657419183889768,-6.328499970558794,-6.756150621209445
1621786820789.667,0.061,0.129,0.052,0.23642541070482243,-6.334687628805276,-6.625591032208679
1621786820789.926,0.06019146504096018,0.13026333587349972,0.05336440274337969,0.245,-6.335,-6.619
1621786820794.793,0.045,0.154,0.079,0.27969871520658474,-6.387048072809877,-6.593122992049326
1621786820799.918,0.035,0.169,0.103,0.316237236882864,-6.441855855324296,-6.565873925036508
1621786820805.038,0.024,0.183,0.12,0.35274094670541206,-6.496611420058118,-6.538650819406133
1621786820806.477,0.022594189762915613,0.18693626866383628,0.12449859275867003,0.363,-6.512,-6.531
1621786820810.156,0.019,0.197,0.136,0.3411702316368313,-6.540289597776759,-6.559512350515159
1621786820815.27,0.026,0.213,0.155,0.31082527457907727,-6.579614184984257,-6.599146580141613
1621786820820.38,0.031,0.234,0.155,0.280504944640719,-6.618906857455395,-6.638748643734571
1621786820822.993,0.0381615925058548,0.23860388089662093,0.1606269655403145,0.265,-6.639,-6.659
1621786820825.488,0.045,0.243,0.166,0.2501662495001407,-6.6420272960203794,-6.685640204979339
1621786820830.592,0.059,0.26,0.173,0.21982237592381404,-6.6482199232808545,-6.740135324871518
1621786820835.693,0.075,0.271,0.178,0.1894959196670567,-6.654408995986315,-6.794599164679572
1621786820839.477,0.08687378501316734,0.2851001197031362,0.18467900406990662,0.167,-6.659,-6.835
1621786820840.792,0.091,0.29,0.187,0.15596884786060938,-6.652685065079624,-6.842833716736669
1621786820845.886,0.106,0.304,0.187,0.11323490998679114,-6.628221433977946,-6.873181005951409
1621786820850.978,0.126,0.319,0.188,0.0705173570400273,-6.603767182653349,-6.903516659493314
1621786820855.927,0.13961775431861806,0.3384539347408829,0.18702730326295586,0.029,-6.58,-6.933
1621786820856.066,0.14,0.339,0.187,0.02717505780562393,-6.578922010889833,-6.931837129857537
1621786820861.151,0.154,0.353,0.185,-0.03962616543596628,-6.539462683672708,-6.889270769001268
1621786820866.201,0.148,0.356,0.185,-0.10596874766912806,-6.5002742746326545,-6.846996658461998
1621786820871.267,0.15,0.354,0.183,-0.17252301036771833,-6.460960826433952,-6.804587663161035
1621786820872.293,0.14858163757353648,0.35339213038865847,0.1815816375735365,-0.186,-6.453,-6.796
1621786820876.33,0.143,0.351,0.176,-0.2151522567343463,-6.4334828111693785,-6.766847743265654
1621786820881.39,0.133,0.34,0.175,-0.2516895402865552,-6.409021409469171,-6.730310459713444
1621786820886.445,0.117,0.339,0.168,-0.28819332765601424,-6.384582433179448,-6.693806672343986
1621786820888.634,0.10877073571325058,0.33207009323221104,0.16540128496207915,-0.304,-6.374,-6.678
1621786820891.499,0.098,0.323,0.162,-0.32983137419325853,-6.374,-6.688367694404097
1621786820896.548,0.084,0.307,0.162,-0.3753549063356344,-6.374,-6.7066390440394725
1621786820901.594,0.066,0.288,0.157,-0.42084982255431935,-6.374,-6.7248989083721415
1621786820904.938,0.05936771257021112,0.28136771257021115,0.14904125508425334,-0.451,-6.374,-6.737
1621786820906.636,0.056,0.278,0.145,-0.4714540407526333,-6.369930063319629,-6.759541187768209
1621786820911.675,0.052,0.246,0.134,-0.5321544578819434,-6.357851919094919,-6.826435525012754
1621786820916.711,0.049,0.232,0.12,-0.5928166431593794,-6.34578138222849,-6.893287729196051
1621786820921.209,0.04095497549852021,0.21501605938576487,0.11374275872107127,-0.647,-6.335,-6.953
1621786820921.743,0.04,0.213,0.113,-0.6515382313579838,-6.335,-6.960399290257583
1621786820926.772,0.045,0.19,0.101,-0.6942831000105258,-6.335,-7.030092010886727
1621786820931.797,0.052,0.171,0.091,-0.7369947671533615,-6.335,-7.099730598619611
1621786820936.819,0.059,0.152,0.073,-0.7796794580695607,-6.335,-7.169325203374283
1621786820937.445,0.059249452741158726,0.14975492532957144,0.07200218903536508,-0.785,-6.335,-7.178
1621786820941.838,0.061,0.134,0.065,-0.7635781478411574,-6.356421852158842,-7.1939985984477435
1621786820946.853,0.073,0.108,0.052,-0.7391215432145279,-6.380878456785472,-7.2122636575992765
1621786820951.864,0.086,0.091,0.04,-0.7146851782081229,-6.405314821791877,-7.230513601085073
1621786820953.645,0.09204449968318955,0.08459994151191694,0.03573329434127796,-0.706,-6.414,-7.237
1621786820956.873,0.103,0.073,0.028,-0.682443471433748,-6.417793000362362,-7.201864838748641
1621786820961.878,0.117,0.056,0.01,-0.6459203406208479,-6.423673843459355,-7.147389660587027
1621786820966.88,0.134,0.049,0.005,-0.6094185892015944,-6.429551244111607,-7.092946370334581
1621786820969.815,0.14044140282513395,0.04197301509985387,-0.0020269849001461277,-0.588,-6.433,-7.061
1621786820971.892,0.145,0.037,-0.007,-0.5515296213001675,-6.427991743770093,-7.026969541001917
1621786820976.901,0.15,0.031,-0.017,-0.46358576970099463,-6.415914947247672,-6.944909256939308
1621786820981.908,0.15,0.021,-0.024,-0.3756719242902208,-6.403842271293375,-6.862876971608833
1621786820985.99,0.15326434986333462,0.015287387739164389,-0.02971261226083561,-0.304,-6.394,-6.796
1621786820986.91,0.154,0.014,-0.031,-0.29168869594155106,-6.38841431575126,-6.785911570285438
1621786820991.91,0.145,0.01,-0.035,-0.2247737524391535,-6.3580547580510975,-6.7310784915820845
1621786820996.906,0.138,0.005,-0.04,-0.1579110862363672,-6.327718918755389,-6.676288251221467
1621786821001.898,0.124,-0.005,-0.044,-0.09110396466441784,-6.2974082802644125,-6.621543526600009
1621786821002.13,0.12390704046186213,-0.004767601154655316,-0.044,-0.088,-6.296,-6.619
1621786821006.888,0.122,0.0,-0.044,-0.04162223569533914,-6.2844794088669955,-6.607479408866995
1621786821011.873,0.108,0.002,-0.047,0.0069686396362258485,-6.272409064039409,-6.5954090640394085
1621786821016.857,0.096,0.0,-0.045,0.05554761652140963,-6.260341674876847,-6.583341674876848
1621786821018.237,0.0921193488280867,-0.0005543787388447583,-0.04694032558595665,0.069,-6.257,-6.58
1621786821021.836,0.082,-0.002,-0.052,0.10416481295772936,-6.26573520831434,-6.584479594007354
1621786821026.811,0.063,-0.005,-0.052,0.1527767496277388,-6.2778107849393745,-6.590672197404808
1621786821031.785,0.051,-0.005,-0.051,0.2013767587443401,-6.289883398668977,-6.596863281368705
1621786821034.305,0.04744995823711492,-0.007028595293077188,-0.049985702353461406,0.226,-6.296,-6.6
1621786821036.754,0.044,-0.009,-0.049,0.24096617136593387,-6.307911850679009,-6.605955925339504
1621786821041.72,0.03,-0.014,-0.052,0.27131477985506364,-6.332066865598928,-6.618033432799464
1621786821046.683,0.017,-0.009,-0.044,0.30164548444065525,-6.3562076304731745,-6.630103815236588
1621786821050.341,0.014787071681764475,-0.014163499409216226,-0.047688213863725876,0.324,-6.374,-6.639
1621786821051.642,0.014,-0.016,-0.049,0.32871564140119613,-6.381967807884779,-6.651764753448066
1621786821056.598,0.009,-0.019,-0.038,0.34667826193091666,-6.4123184425729285,-6.700387709019895
1621786821061.551,-0.002,-0.023,-0.042,0.3646311485414378,-6.442652630294154,-6.74898431587941
1621786821066.343,0.002840443896424168,-0.019127644882860666,-0.03812764488286066,0.382,-6.472,-6.796
1621786821066.501,0.003,-0.019,-0.038,0.3821970548372851,-6.472197054837285,-6.797832609986751
1621786821071.467,0.007,-0.024,-0.037,0.38839225181598064,-6.478392251815981,-6.85544794188862
1621786821076.43,0.012,-0.024,-0.037,0.3945834894239116,-6.484583489423912,-6.913026451642378
1621786821081.391,0.026,-0.024,-0.033,0.40077259506296925,-6.490772595062969,-6.970585134085614
1621786821082.375,0.026992464167856965,-0.023404521499285822,-0.032603014332857214,0.402,-6.492,-6.982
1621786821086.348,0.031,-0.021,-0.031,0.402,-6.4969664286150275,-6.977281892815724
1621786821091.302,0.049,-0.012,-0.024,0.402,-6.503159433559177,-6.971398538118782
1621786821096.253,0.054,-0.021,-0.03,0.402,-6.509348470976011,-6.965518952572789
1621786821098.374,0.05700133247791541,-0.017998667522084587,-0.02742742930464393,0.402,-6.512,-6.963
1621786821101.2,0.061,-0.014,-0.024,0.402,-6.5049210305022545,-6.943886782356089
1621786821106.145,0.063,-0.017,-0.026,0.402,-6.49253359834875,-6.910440715541625
1621786821111.085,0.068,-0.012,-0.024,0.402,-6.480159009250057,-6.8770293249751555
1621786821114.342,0.06668106772120613,-0.006064804745427582,-0.023340533860603065,0.402,-6.472,-6.855
1621786821116.024,0.066,-0.003,-0.023,0.402,-6.465877851834827,-6.842544595112235
1621786821120.958,0.063,0.0,-0.017,0.402,-6.447917536198575,-6.806004642610894
1621786821125.89,0.063,-0.005,-0.017,0.402,-6.429965218723665,-6.769480962230905
1621786821130.276,0.056771421495789995,0.002118375433382863,-0.014330609212481426,0.402,-6.414,-6.737
1621786821130.819,0.056,0.003,-0.014,0.40131671964008786,-6.413316719640088,-6.734984322938259
1621786821135.743,0.049,0.003,-0.009,0.39512328220246595,-6.407123282202466,-6.716713682497274
1621786821140.665,0.038,0.005,-0.005,0.3889319944109202,-6.40093199441092,-6.698449383512215
1621786821145.584,0.037,0.017,-0.007,0.3827446988192301,-6.39474469881923,-6.680196861516729
1621786821146.176,0.03615698251887167,0.017481724274930475,-0.006397844656336909,0.382,-6.394,-6.678
1621786821150.5,0.03,0.021,-0.002,0.371371274254851,-6.399450628587256,-6.683450628587256
1621786821155.413,0.024,0.021,0.002,0.35929445889177836,-6.405643867234986,-6.689643867234985
1621786821160.322,0.021,0.019,0.0,0.34722784556911385,-6.411831874067121,-6.695831874067122
1621786821162.042,0.019247076387160986,0.019701169445135606,0.0017529236128390148,0.343,-6.414,-6.698
1621786821165.228,0.016,0.021,0.005,0.3351867084235251,-6.4178064753834105,-6.7136265831529505
1621786821170.158,0.012,0.026,0.003,0.3230967623082946,-6.423696449131857,-6.737806475383411
1621786821175.085,0.012,0.03,0.002,0.31101400082899644,-6.4295829226730525,-6.761971998342007
1621786821177.945,0.007934913002528132,0.024773459574679028,0.0025807267139245525,0.304,-6.433,-6.776
1621786821180.01,0.005,0.021,0.003,0.2886645872067116,-6.433,-6.781198445014674
1621786821184.93,-0.002,0.024,0.005,0.2521264885296784,-6.433,-6.79358424117638
1621786821189.848,0.0,0.016,0.0,0.2156028948541049,-6.433,-6.805965120388439
1621786821193.834,0.0,0.016810836313071117,0.0,0.186,-6.433,-6.816
1621786821194.764,0.0,0.017,0.0,0.18254015149182498,-6.435287018505404,-6.816
1621786821199.676,0.0,0.007,-0.005,0.16426444868676293,-6.447367567817224,-6.816
1621786821204.585,0.002,0.003,-0.009,0.1460005542383841,-6.459440311605136,-6.816
1621786821209.491,0.005,0.002,-0.005,0.12774755981155894,-6.471505850294054,-6.816
1621786821209.692,0.005,0.0019180401334461983,-0.005204899666384505,0.127,-6.472,-6.816
1621786821214.394,0.005,0.0,-0.01,0.127,-6.460413339914852,-6.821644783118406
1621786821219.295,0.0,-0.005,-0.01,0.127,-6.448336984019251,-6.8275281359906215
1621786821224.191,0.003,-0.009,-0.014,0.127,-6.436272659961745,-6.8334056271981245
1621786821225.519,0.00489925187032419,-0.009271321695760597,-0.013457356608478804,0.127,-6.433,-6.835
1621786821229.086,0.01,-0.01,-0.012,0.127,-6.424193353941267,-6.848322874806801
1621786821233.977,0.007,0.0,-0.017,0.127,-6.412117217928903,-6.866591901081916
1621786821238.865,0.009,-0.012,-0.021,0.127,-6.4000489180834625,-6.884849072642968
1621786821241.315,0.009501524314058674,-0.014507621570293368,-0.021,0.127,-6.394,-6.894
1621786821243.75,0.01,-0.017,-0.021,0.13008936038407928,-6.390910639615921,-6.903113613133034
1621786821248.633,0.007,-0.024,-0.017,0.13628449744463372,-6.384715502555366,-6.921389267461669
1621786821253.511,0.005,-0.023,-0.016,0.14247312993650302,-6.378526870063497,-6.939645733312684
1621786821257.079,0.005,-0.023,-0.019658872421389948,0.147,-6.374,-6.953
1621786821258.387,0.005,-0.023,-0.021,0.14377069679732904,-6.3788853561271175,-6.953
1621786821263.26,0.012,-0.024,-0.024,0.1317384227772969,-6.3970880270805,-6.953
1621786821268.162,0.007,-0.021,-0.019,0.1196344132558427,-6.41539922097193,-6.953
1621786821272.874,0.008924035489981058,-0.03254421293988635,-0.025734124214933703,0.108,-6.433,-6.953
1621786821273.06,0.009,-0.033,-0.026,0.10891811483386626,-6.433459057416933,-6.953
1621786821277.957,0.023,-0.035,-0.023,0.13308549979146392,-6.445542749895732,-6.953
1621786821282.85,0.021,-0.037,-0.023,0.1572336067473006,-6.45761680337365,-6.953
1621786821287.741,0.023,-0.037,-0.021,0.18137086982714676,-6.469685434913574,-6.953
1621786821288.679,0.023959684268371882,-0.037191936853674376,-0.021383873707348754,0.186,-6.472,-6.953
1621786821292.628,0.028,-0.038,-0.023,0.1812440458688621,-6.457481824231263,-6.955503133753231
1621786821297.512,0.031,-0.044,-0.019,0.1753619523669509,-6.439525959857008,-6.958598972438447
1621786821302.395,0.037,-0.042,-0.024,0.16948103498970893,-6.421573685758059,-6.96169419211068
1621786821304.455,0.0399556645316253,-0.042,-0.025688951160928744,0.167,-6.414,-6.963
1621786821307.274,0.044,-0.042,-0.028,0.17040120001860495,-6.4068395789082,-6.954228484162545
1621786821312.151,0.045,-0.042,-0.019,0.17628569435185043,-6.394451169785578,-6.939052682987333
1621786821317.024,0.045,-0.045,-0.023,0.18216547543372766,-6.382072683297415,-6.923889037039333
1621786821320.202,0.045,-0.03977962703027872,-0.019084720272709042,0.186,-6.374,-6.914
1621786821321.894,0.045,-0.037,-0.017,0.17964790220109667,-6.36980115569225,-6.89914255091104
1621786821326.763,0.042,-0.049,-0.016,0.16137061372850553,-6.357719558227317,-6.856392282958199
1621786821331.627,0.033,-0.051,-0.01,0.1431116547835407,-6.345650076890815,-6.813684887459807
1621786821335.919,0.030352276720718913,-0.049234851147145944,-0.01176514885285406,0.127,-6.335,-6.776
1621786821336.49,0.03,-0.049,-0.012,0.1255802178988327,-6.335,-6.776
1621786821341.349,0.021,-0.051,-0.01,0.11349901945525293,-6.335,-6.776
1621786821346.206,0.009,-0.054,-0.005,0.1014232840466926,-6.335,-6.776
1621786821351.06,0.0,-0.049,-0.005,0.0893548326848249,-6.335,-6.776
1621786821351.605,-0.0003370073984599124,-0.04933700739845991,-0.004775328401026725,0.088,-6.335,-6.776
1621786821355.911,-0.003,-0.052,-0.003,0.07177410300790568,-6.356726201057211,-6.787000608130233
1621786821360.76,-0.009,-0.045,-0.005,0.05350122405700831,-6.38119327626265,-6.799389000639316
1621786821365.604,-0.005,-0.052,-0.002,0.03524766493583446,-6.405634482543544,-6.811764294958756
1621786821367.262,-0.005,-0.05097318683534096,-0.0030268131646590396,0.029,-6.414,-6.816
1621786821370.448,-0.005,-0.049,-0.005,0.029,-6.417873492470162,-6.823950852965069
1621786821375.287,-0.002,-0.049,-0.007,0.029,-6.423756748734612,-6.83602701056052
1621786821380.124,0.0,-0.045,-0.01,0.029,-6.429637333624945,-6.848097684809098
1621786821382.89,0.0,-0.045,-0.009427828282828283,0.029,-6.433,-6.855
1621786821384.958,0.0,-0.045,-0.009,0.026480999780887096,-6.433,-6.852348420821987
1621786821389.789,0.005,-0.049,-0.012,0.02059669139512317,-6.433,-6.846154411994867
1621786821394.618,0.009,-0.051,-0.021,0.014715059316993769,-6.433,-6.8399632203336775
1621786821398.489,0.015416835289356537,-0.04779158235532173,-0.017791582355321734,0.01,-6.433,-6.835
1621786821399.444,0.017,-0.047,-0.017,0.009386506915911301,-6.430607376972054,-6.832607376972054
1621786821404.266,0.012,-0.051,-0.023,0.006289088228836684,-6.418527444092463,-6.8205274440924635
1621786821409.087,0.014,-0.049,-0.024,0.0031924536586895834,-6.406450569268889,-6.8084505692688895
1621786821413.904,0.012,-0.049,-0.026,9.817143932503228e-05,-6.394382868613368,-6.796382868613368
1621786821414.057,0.011841293986411115,-0.048873035189128895,-0.025936517594564445,0.0,-6.394,-6.796
1621786821418.719,0.007,-0.045,-0.024,0.008700729009552538,-6.376298516842635,-6.778298516842635
1621786821423.53,0.0,-0.051,-0.023,0.017679392911010557,-6.358031579939668,-6.760031579939668
1621786821428.338,-0.005,-0.04,-0.019,0.0266521336098542,-6.339776693690297,-6.741776693690297
1621786821429.596,-0.00787877094972067,-0.04104682579989843,-0.019,0.029,-6.335,-6.737
1621786821433.145,-0.016,-0.044,-0.019,0.02465287942458725,-6.339575916395171,-6.728076963029416
1621786821437.948,-0.019,-0.047,-0.016,0.01876989785479327,-6.345768528573902,-6.7160013692808915
1621786821442.748,-0.024,-0.044,-0.019,0.012890504745266537,-6.351957363426036,-6.703933141319232
1621786821445.108,-0.027443008345206594,-0.041048849989822916,-0.018016283329940975,0.01,-6.355,-6.698
1621786821447.546,-0.031,-0.038,-0.017,0.008425293700228653,-6.367282709138217,-6.710282709138217
1621786821452.34,-0.04,-0.042,-0.019,0.005328707718993929,-6.3914360797918475,-6.734436079791847
1621786821457.133,-0.042,-0.045,-0.019,0.002232910194748877,-6.415583300480959,-6.758583300480959
1621786821460.59,-0.042,-0.045,-0.019,0.0,-6.433,-6.776
1621786821461.921,-0.042,-0.045,-0.019,0.002497180228425193,-6.434722193260983,-6.784438746978816
1621786821466.708,-0.042,-0.037,-0.021,0.011479882470025118,-6.4409171603241555,-6.81479408558836
1621786821471.491,-0.037,-0.038,-0.016,0.0204547967710851,-6.447106756393852,-6.845123106329874
1621786821476.045,-0.03318996068018179,-0.037047490170045445,-0.020762549149772762,0.029,-6.453,-6.874
1621786821476.272,-0.033,-0.037,-0.021,0.030162923215727243,-6.453574101334347,-6.874868512275037
1621786821481.05,-0.037,-0.033,-0.024,0.05463557940389699,-6.465655539199393,-6.893145559301645
1621786821485.825,-0.033,-0.026,-0.021,0.07909197967614796,-6.477728951992023,-6.911410465834085
1621786821490.597,-0.023,-0.019,-0.024,0.10353337448755084,-6.4897949570255,-6.929664165756525
1621786821491.469,-0.02135459105333197,-0.020279762514075136,-0.024,0.108,-6.492,-6.933
1621786821495.367,-0.014,-0.026,-0.024,0.108,-6.497063588214773,-6.933
1621786821500.133,-0.007,-0.031,-0.021,0.108,-6.503254955440677,-6.933
1621786821504.897,-0.002,-0.031,-0.024,0.108,-6.509443468332751,-6.933
1621786821506.865,0.000893543920824573,-0.030586636582739347,-0.024,0.108,-6.512,-6.933
1621786821509.658,0.005,-0.03,-0.024,0.108,-6.504729468215256,-6.922275965617502
1621786821514.417,0.014,-0.03,-0.024,0.108,-6.492340965061409,-6.904002923465577
1621786821519.171,0.014,-0.023,-0.026,0.108,-6.47996580816346,-6.885749567041103
1621786821522.231,0.017218963480404748,-0.019137243823514304,-0.0247124146078381,0.108,-6.472,-6.874
1621786821523.924,0.019,-0.017,-0.024,0.1100972003374238,-6.467695220360025,-6.863182861417498
1621786821528.674,0.017,-0.017,-0.024,0.11598085279090865,-6.455618249534451,-6.83283560139426
1621786821533.42,0.019,-0.019,-0.024,0.12185936430629168,-6.44355183116077,-6.8025148577886005
1621786821537.57,0.01637615764560609,-0.02249845647252521,-0.023125385881868698,0.127,-6.433,-6.776
1621786821538.165,0.016,-0.023,-0.023,0.1292931532192469,-6.432261526929395,-6.773745713784469
1621786821542.906,0.012,-0.017,-0.021,0.14756592398845314,-6.426377075325752,-6.7557826509944015
1621786821547.644,0.007,-0.024,-0.024,0.16582740307172134,-6.42049626002775,-6.737830688505765
1621786821552.38,0.003,-0.017,-0.021,0.18408041339053605,-6.414618171958979,-6.719887051243202
1621786821552.878,0.0023686490947542166,-0.016894774849125705,-0.021,0.186,-6.414,-6.718
1621786821557.113,-0.003,-0.016,-0.021,0.1970866473868375,-6.424809481202167,-6.718
1621786821561.843,-0.003,-0.016,-0.014,0.2094687714701136,-6.4368820521833605,-6.718
1621786821566.57,-0.01,-0.007,-0.016,0.2218432262290891,-6.448947145573362,-6.718
1621786821568.158,-0.01,-0.006327717194687064,-0.014655434389374129,0.226,-6.453,-6.718
1621786821571.294,-0.01,-0.005,-0.012,0.21386733158299182,-6.456907130507172,-6.73403979892418
1621786821576.016,-0.009,-0.007,-0.012,0.19559796042520491,-6.462790487320697,-6.758192526895492
1621786821580.734,0.0,-0.003,-0.007,0.17734559106045084,-6.468668368980533,-6.782322777920082
1621786821583.408,0.0,-0.006401376740334351,-0.008700688370167176,0.167,-6.472,-6.796
1621786821585.451,0.0,-0.009,-0.01,0.17223595757993873,-6.481263617256815,-6.7907640424200615
1621786821590.164,0.002,-0.003,-0.009,0.18431532673394407,-6.502634808836978,-6.7786846732660555
1621786821594.875,0.003,-0.005,-0.007,0.19638906448041843,-6.523996037157664,-6.766610935519582
1621786821598.625,0.004593360995850623,-0.0010165975103734442,-0.005406639004149377,0.206,-6.541,-6.757
1621786821599.582,0.005,0.0,-0.005,0.20726008550580216,-6.537912790510785,-6.755739914494198
1621786821604.286,0.012,-0.003,-0.002,0.21345347005689672,-6.5227389983606034,-6.749546529943103
1621786821608.988,0.01,0.0,0.0,0.21964460445530232,-6.50757071908451,-6.743355395544698
1621786821613.687,0.012,0.002,-0.002,0.2258315599987142,-6.49241267800315,-6.737168440001286
1621786821613.815,0.011754872914392641,0.0021361817142263114,-0.001863818285773689,0.226,-6.492,-6.737
1621786821618.384,0.003,0.007,0.003,0.23172600644122385,-6.480246618357488,-6.707465861513688
1621786821623.077,0.0,0.012,0.0,0.23760713365539451,-6.468174830917874,-6.677131626409018
1621786821627.767,-0.007,0.009,0.003,0.24348489533011272,-6.456109951690822,-6.6468147504025765
1621786821628.976,-0.008289449015727528,0.009257889803145505,0.0035157796062910114,0.245,-6.453,-6.639
1621786821632.455,-0.012,0.01,0.005,0.245,-6.470932046979866,-6.634402039235932
1621786821637.14,-0.017,0.01,0.005,0.245,-6.49507927852349,-6.628210441404233
1621786821641.823,-0.023,0.014,0.01,0.245,-6.519217701342281,-6.622021102219928
1621786821644.109,-0.02544273415079572,0.013022906339681712,0.009511453169840856,0.245,-6.531,-6.619
1621786821646.502,-0.028,0.012,0.009,0.23264014355459278,-6.538764525202883,-6.6376982443661285
1621786821651.178,-0.031,0.024,0.014,0.2084891202431375,-6.553936321898542,-6.674234407837305
1621786821655.852,-0.024,0.017,0.009,0.18434818455171523,-6.569101781499564,-6.7107553105499695
1621786821659.211,-0.021842220828105396,0.022034818067754078,0.011157779171894606,0.167,-6.58,-6.737
1621786821660.522,-0.021,0.024,0.012,0.1652601934198377,-6.581739806580162,-6.745525052242796
1621786821665.191,-0.014,0.019,0.01,0.15906427888743097,-6.587935721112569,-6.775885033451589
1621786821669.856,-0.005,0.023,0.012,0.15287354813626863,-6.5941264518637315,-6.806219614132283
1621786821674.282,-0.00025319438625890246,0.023,0.01010127775450356,0.147,-6.6,-6.835
1621786821674.518,0.0,0.023,0.01,0.1463878952152178,-6.60029820489515,-6.833775790430436
1621786821679.178,0.009,0.017,0.014,0.1343059468934623,-6.606184282282672,-6.809611893786925
1621786821683.835,0.016,0.012,0.01,0.12223159449457897,-6.612066659092385,-6.785463188989158
1621786821688.489,0.019,0.014,0.007,0.1101648380185678,-6.617945335324287,-6.7613296760371355
1621786821689.324,0.018640944881889762,0.012384251968503937,0.007,0.108,-6.619,-6.757
1621786821693.14,0.017,0.005,0.007,0.11282933016766136,-6.624083505439644,-6.747087164392695
1621786821697.789,0.026,0.01,0.002,0.11871320312881141,-6.630277055925065,-6.735009740946124
1621786821702.434,0.024,0.014,0.005,0.12459182345958077,-6.636465077325875,-6.722943099214545
1621786821704.337,0.026868303454077074,0.010312181273329477,0.005,0.127,-6.639,-6.718
1621786821707.078,0.031,0.005,0.005,0.12352420524351893,-6.635341268677388,-6.714341268677388
1621786821711.717,0.033,0.005,0.005,0.11764132896644995,-6.629148767333105,-6.708148767333105
1621786821716.354,0.031,0.007,0.003,0.11176123902168776,-6.6229591989701975,-6.701959198970198
1621786821719.32,0.033559705030287074,0.0044402949697129315,0.0010802212272846986,0.108,-6.619,-6.698
1621786821720.989,0.035,0.003,0.0,0.11012065897105164,-6.616879341028948,-6.6936470684278415
1621786821725.62,0.037,0.009,0.002,0.11600520841837152,-6.6109947915816285,-6.681568256404396
1621786821730.248,0.035,0.01,0.0,0.12188572501510278,-6.605114274984897,-6.669497722337421
1621786821734.273,0.03673976361333896,0.001301181933305192,0.0,0.127,-6.6,-6.659
1621786821734.875,0.037,0.0,0.0,0.12780681836771418,-6.6,-6.6550465899982
1621786821739.497,0.038,0.005,0.003,0.1340009324543179,-6.6,-6.624695430973842
1621786821744.118,0.035,0.0,-0.002,0.14019341065615337,-6.6,-6.594352287784848
1621786821748.735,0.031,-0.005,0.0,0.146380981203684,-6.6,-6.564033192101948
1621786821749.197,0.030499444415048416,-0.004799777766019366,0.0,0.147,-6.6,-6.561
1621786821753.349,0.026,-0.003,0.0,0.14142484838551056,-6.59442484838551,-6.561
1621786821757.962,0.023,0.0,0.0,0.13523110965415505,-6.588231109654155,-6.561
1621786821762.57,0.017,-0.005,0.0,0.1290435994099328,-6.582043599409933,-6.561
1621786821764.092,0.016669634340222575,-0.004339268680445151,0.0009910969793322734,0.127,-6.58,-6.561
1621786821767.177,0.016,-0.003,0.003,0.12305663321452623,-6.584150912405762,-6.561
1621786821771.78,0.012,-0.009,0.0,0.11717279043411133,-6.590344431121988,-6.561
1621786821776.381,0.009,-0.007,-0.002,0.1112914442455201,-6.596535321846821,-6.561
1621786821778.956,0.01068043974719847,-0.01092102607679643,-0.002,0.108,-6.6,-6.561
1621786821780.978,0.012,-0.014,-0.002,0.11058965835033902,-6.6,-6.56631561450859
1621786821785.573,0.012,-0.009,-0.005,0.11647470541768153,-6.6,-6.57839544796261
1621786821790.166,0.005,-0.014,-0.002,0.12235725100388388,-6.6,-6.590470146797445
1621786821793.791,0.0010493827160493827,-0.012419753086419754,-0.0027901234567901233,0.127,-6.6,-6.6
1621786821794.754,0.0,-0.012,-0.003,0.13083701871547532,-6.6,-6.603837018715475
1621786821799.341,0.0,-0.017,-0.003,0.14911636573501524,-6.6,-6.622116365735015
1621786821803.925,0.0,-0.017,-0.007,0.16738306538049302,-6.6,-6.640383065380493
1621786821808.505,0.0,-0.014,-0.007,0.1856332261521972,-6.6,-6.658633226152197
1621786821808.597,6.030070377479207e-05,-0.013959799530816806,-0.0068994988270420134,0.186,-6.6,-6.659
1621786821813.084,0.003,-0.012,-0.002,0.19207299221834884,-6.593927007781651,-6.67084233482578
1621786821817.658,0.0,-0.012,-0.005,0.1982636178895369,-6.587736382110463,-6.6829140548845976
1621786821822.231,0.007,-0.012,-0.003,0.20445292183653574,-6.581547078163465,-6.694983197581245
1621786821823.374,0.0064997596025428706,-0.013250600993642824,-0.004000480794914258,0.206,-6.58,-6.698
1621786821826.801,0.005,-0.017,-0.007,0.21064739769566945,-6.58,-6.698
1621786821831.368,0.007,-0.021,-0.003,0.21684061713680308,-6.58,-6.698
1621786821835.931,0.012,-0.017,-0.007,0.22302853926632235,-6.58,-6.698
1621786821838.122,0.013921635799164972,-0.016519591050208757,-0.0050783642008350284,0.226,-6.58,-6.698
1621786821840.492,0.016,-0.016,-0.003,0.2290593514141163,-6.573720278676288,-6.691720278676288
1621786821845.051,0.012,-0.014,-0.005,0.23494482873019823,-6.56163956208012,-6.679639562080119
1621786821849.606,0.01,-0.014,-0.002,0.24082494816289293,-6.549569843244589,-6.667569843244588
1621786821852.84,0.006448335031368975,-0.01115866802509518,-0.0027103329937262052,0.245,-6.541,-6.659
1621786821854.159,0.005,-0.01,-0.003,0.24329385950330795,-6.541,-6.657204062635061
1621786821858.709,0.009,-0.009,0.0,0.23740764320622362,-6.541,-6.651008045480236
1621786821863.256,0.002,-0.014,-0.002,0.23152521692875427,-6.541,-6.644816017819742
1621786821867.527,0.00293993122716527,-0.014,-0.002,0.226,-6.541,-6.639
1621786821867.8,0.003,-0.014,-0.002,0.22562760021984246,-6.540813800109921,-6.639726179571308
1621786821872.341,0.002,-0.009,0.0,0.2194320403710674,-6.537716020185534,-6.651807521276418
1621786821876.881,0.0,-0.005,0.0,0.21323781290075444,-6.534618906450377,-6.663886264843529
1621786821881.416,-0.003,-0.007,0.003,0.20705058041736754,-6.531525290208683,-6.6759513681861335
1621786821882.186,-0.002490386169009533,-0.006320514892012711,0.003339742553993645,0.206,-6.531,-6.678
1621786821885.949,0.0,-0.003,0.005,0.20085547396528705,-6.531,-6.678
1621786821890.479,0.0,-0.005,0.003,0.1946622162883845,-6.531,-6.678
1621786821895.006,0.0,-0.002,0.003,0.1884729639519359,-6.531,-6.678
1621786821896.815,0.0,-0.003199255422466818,0.002600248192511061,0.186,-6.531,-6.678
1621786821899.531,0.0,-0.005,0.002,0.18972036250543423,-6.531,-6.685440725010868
1621786821904.053,-0.002,-0.01,0.005,0.1959143898605491,-6.531,-6.697828779721098
1621786821908.572,-0.002,-0.003,0.009,0.2021044042403772,-6.531,-6.710208808480754
1621786821911.416,-0.005148889009028492,-0.0011106665945829054,0.007740444396388603,0.206,-6.531,-6.718
1621786821913.088,-0.007,0.0,0.007,0.206,-6.531,-6.720180051270881
1621786821917.601,-0.007,0.0,0.009,0.206,-6.531,-6.72606504364727
1621786821922.112,-0.003,0.005,0.01,0.206,-6.531,-6.731947170886182
1621786821925.987,-0.006439219934994583,0.0032803900325027086,0.005700975081256771,0.206,-6.531,-6.737
1621786821926.619,-0.007,0.003,0.005,0.20686886456724635,-6.531,-6.7361745786611165
1621786821931.124,0.0,0.0,0.01,0.21306405693950178,-6.531,-6.730289145907474
1621786821935.626,-0.003,0.009,0.009,0.21925488484522931,-6.531,-6.724407859397032
1621786821940.125,-0.002,0.002,0.007,0.22544168401262338,-6.531,-6.7185304001880075
1621786821940.531,-0.0018194353963083606,0.0024514115092290987,0.007631976112920738,0.226,-6.531,-6.718
1621786821944.622,0.0,0.007,0.014,0.226,-6.520005518076748,-6.706723608283845
1621786821949.115,-0.002,0.007,0.012,0.226,-6.507931074510859,-6.694339563600882
1621786821953.605,-0.005,0.014,0.014,0.226,-6.49586450429838,-6.681963594152185
1621786821955.043,-0.004359329961385762,0.01047631478762169,0.013359329961385762,0.226,-6.492,-6.678
1621786821958.094,-0.003,0.003,0.012,0.226,-6.496213276693301,-6.673997387141364
1621786821962.58,-0.003,0.01,0.017,0.226,-6.502408280233303,-6.668112133778362
1621786821967.062,-0.01,0.003,0.012,0.226,-6.508597552341458,-6.662232325275614
1621786821969.526,-0.012200370653003379,0.003,0.014750463316254226,0.226,-6.512,-6.659
1621786821971.541,-0.014,0.003,0.017,0.22042334977366396,-6.509211674886831,-6.664437233970678
1621786821976.018,-0.021,0.009,0.019,0.2080336463752449,-6.503016823187623,-6.676517194784136
1621786821980.491,-0.023,0.009,0.021,0.19565542868725086,-6.496827714343626,-6.688585957029931
1621786821983.98,-0.023,0.0043187749085548946,0.019439591636184965,0.186,-6.492,-6.698
1621786821984.963,-0.023,0.003,0.019,0.18470518137346176,-6.493362966975304,-6.699362966975304
1621786821989.431,-0.021,0.016,0.017,0.1788193205477597,-6.499558609949727,-6.705558609949727
1621786821993.897,-0.024,0.009,0.023,0.1729360326353742,-6.505751544594343,-6.711751544594343
1621786821998.359,-0.021,0.012,0.017,0.16705821216378625,-6.511938724038119,-6.717938724038119
1621786821998.403,-0.021,0.011980180673419109,0.017039638653161784,0.167,-6.512,-6.718
1621786822002.818,-0.021,0.01,0.021,0.17282780962719224,-6.5178278096271915,-6.723827809627192
1621786822007.275,-0.017,0.014,0.021,0.17871072627972456,-6.523710726279724,-6.729710726279724
1621786822011.73,-0.012,0.003,0.017,0.1845913870891143,-6.529591387089114,-6.735591387089114
1621786822012.797,-0.012,0.005157808129011026,0.017479512917558008,0.186,-6.531,-6.737
1621786822016.181,-0.012,0.012,0.019,0.186,-6.521813860612137,-6.727813860612137
1621786822020.63,-0.017,0.009,0.014,0.186,-6.5097360093808945,-6.715736009380895
1621786822025.075,-0.012,0.012,0.017,0.186,-6.497668762639567,-6.703668762639567
1621786822027.163,-0.012939735208482118,0.010590397187276822,0.017,0.186,-6.492,-6.698
1621786822029.519,-0.014,0.009,0.017,0.1795907697547684,-6.492,-6.694713215258856
1621786822033.958,-0.017,0.01,0.014,0.1675148501362398,-6.492,-6.688520435967303
1621786822038.396,-0.021,0.007,0.014,0.1554415871934605,-6.492,-6.68232901907357
1621786822041.499,-0.01820074881620967,0.010499063979737915,0.01120074881620967,0.147,-6.492,-6.678
1621786822042.83,-0.017,0.012,0.01,0.14151012919632036,-6.48651012919632,-6.681721946307579
1621786822047.261,-0.023,0.012,0.007,0.12323506220879626,-6.468235062208796,-6.694111822231324
1621786822051.691,-0.024,0.002,0.012,0.10496402300616114,-6.449964023006161,-6.70649896745345
1621786822055.804,-0.03422438620689655,0.0029294896551724137,0.0027051034482758612,0.088,-6.433,-6.718
1621786822056.116,-0.035,0.003,0.002,0.088,-6.433852189375417,-6.7184151691828955
1621786822060.54,-0.038,-0.002,0.0,0.088,-6.445935541231385,-6.724301930343495
1621786822064.96,-0.044,-0.009,0.003,0.088,-6.458007557234941,-6.73018316890933
1621786822069.377,-0.047,-0.017,0.0,0.088,-6.470071571460325,-6.736060509172979
1621786822070.083,-0.04891862007961079,-0.01763954002653693,0.0,0.088,-6.472,-6.737
1621786822073.793,-0.059,-0.021,0.0,0.088,-6.47720803344986,-6.752363698677086
1621786822078.204,-0.056,-0.019,-0.005,0.088,-6.483400370141888,-6.770631091918569
1621786822082.614,-0.056,-0.024,-0.003,0.088,-6.489590993214065,-6.788893429981493
1621786822084.33,-0.05249465285088935,-0.024778966033135702,-0.007284313182246357,0.088,-6.492,-6.796
1621786822087.02,-0.047,-0.026,-0.014,0.09178384875594553,-6.499378505074094,-6.803378505074094
1621786822091.424,-0.044,-0.028,-0.01,0.09797887940656283,-6.511458814842797,-6.815458814842797
1621786822095.824,-0.038,-0.03,-0.016,0.10416807184436011,-6.523527740096502,-6.827527740096502
1621786822098.548,-0.034903651903651904,-0.03,-0.0190963480963481,0.108,-6.531,-6.835
1621786822100.223,-0.033,-0.03,-0.021,0.11720741989881955,-6.531,-6.8211888701517704
1621786822104.617,-0.024,-0.033,-0.024,0.14136414633306948,-6.531,-6.784953780500396
1621786822109.009,-0.017,-0.033,-0.023,0.1655101352514024,-6.531,-6.748734797122896
1621786822112.736,-0.022094043712807963,-0.03469801457093599,-0.02724503642733997,0.186,-6.531,-6.718
1621786822113.399,-0.023,-0.035,-0.028,0.18511064944916641,-6.528238332500043,-6.713366015550919
1621786822117.785,-0.026,-0.035,-0.026,0.1792258676275365,-6.509964536317087,-6.6827032050066375
1621786822122.17,-0.03,-0.038,-0.024,0.17334239608296123,-6.4916948088891955,-6.65204722169543
1621786822126.55,-0.038,-0.038,-0.026,0.16746547592365912,-6.473445425236626,-6.621425374549592
1621786822126.897,-0.03887168190943564,-0.03760378095025652,-0.02631697523979478,0.167,-6.472,-6.619
1621786822130.928,-0.049,-0.033,-0.03,0.16129445202757572,-6.477705547972424,-6.619
1621786822135.304,-0.049,-0.031,-0.03,0.15510062719214887,-6.483899372807851,-6.619
1621786822139.676,-0.058,-0.033,-0.026,0.1489123313233236,-6.490087668676677,-6.619
1621786822141.027,-0.06016425498631209,-0.03578261355382983,-0.027236717135035476,0.147,-6.492,-6.619
1621786822144.046,-0.065,-0.042,-0.03,0.15534879936289192,-6.4962814355707135,-6.623281435570713
1621786822148.413,-0.065,-0.042,-0.031,0.16742670660134001,-6.5024752341545335,-6.629475234154533
1621786822152.777,-0.068,-0.042,-0.035,0.17949583629092294,-6.508664531431243,-6.635664531431242
1621786822155.129,-0.06638245830068286,-0.039843277734243815,-0.036078361132878094,0.186,-6.512,-6.639
1621786822157.139,-0.065,-0.038,-0.037,0.1832859026633122,-6.514714097336688,-6.6418569445649345
1621786822161.497,-0.066,-0.028,-0.038,0.17740112778693504,-6.520598872213065,-6.648051444434805
1621786822165.853,-0.065,-0.049,-0.035,0.17151931985772534,-6.526480680142274,-6.654242821202394
1621786822169.2,-0.06576904521485472,-0.049,-0.04192140693369236,0.167,-6.531,-6.659
1621786822170.205,-0.066,-0.049,-0.044,0.16979142906815023,-6.52964007301808,-6.66179142906815
1621786822174.556,-0.068,-0.042,-0.049,0.18187451321279555,-6.523753442280945,-6.6738745132127955
1621786822178.903,-0.066,-0.044,-0.051,0.19394742698191933,-6.517871766342141,-6.68594742698192
1621786822183.243,-0.06799808913617715,-0.04499904456808857,-0.053997133704265725,0.206,-6.512,-6.698
1621786822183.247,-0.068,-0.045,-0.054,0.20602619702806824,-6.512,-6.697984228319837
1621786822187.628,-0.068,-0.044,-0.063,0.2336779306549257,-6.512,-6.68133675603428
1621786822192.625,-0.07,-0.047,-0.059,0.2652191524490919,-6.512,-6.662347653117384
1621786822197.621,-0.077,-0.042,-0.063,0.2967542102366538,-6.512,-6.6433622611840555
1621786822198.769,-0.077,-0.04245938156416394,-0.0636890723462459,0.304,-6.512,-6.639
1621786822202.619,-0.077,-0.044,-0.066,0.3133026819343811,-6.512,-6.648302681934381
1621786822207.615,-0.08,-0.052,-0.072,0.3253751077765509,-6.512,-6.6603751077765505
1621786822212.613,-0.08,-0.056,-0.073,0.33745225309715776,-6.512,-6.672452253097157
1621786822214.909,-0.0818382446366613,-0.0518639495675121,-0.07483824463666129,0.343,-6.512,-6.678
1621786822217.609,-0.084,-0.047,-0.077,0.3463456360611103,-6.51685117228861,-6.678
1621786822222.605,-0.086,-0.047,-0.075,0.3525365300257147,-6.525827968537286,-6.678
1621786822227.601,-0.084,-0.056,-0.077,0.35872742399031915,-6.534804764785963,-6.678
1621786822231.049,-0.08883120754532571,-0.06290172506475102,-0.077,0.363,-6.541,-6.678
1621786822232.597,-0.091,-0.066,-0.077,0.36770034648147304,-6.541,-6.6799185087679485
1621786822237.593,-0.087,-0.063,-0.077,0.3828719380267199,-6.541,-6.686110995112947
1621786822242.589,-0.087,-0.066,-0.075,0.39804352957196676,-6.541,-6.692303481457946
1621786822247.185,-0.08883990617211553,-0.06508004691394224,-0.07316009382788446,0.412,-6.541,-6.698
1621786822247.585,-0.089,-0.065,-0.073,0.4134623008367504,-6.540752152400551,-6.698
1621786822252.58,-0.099,-0.054,-0.072,0.4317276702628274,-6.537656327074097,-6.698
1621786822257.575,-0.094,-0.063,-0.068,0.44999214695335077,-6.534560653058754,-6.698
1621786822262.57,-0.094,-0.065,-0.066,0.4682575163794277,-6.5314648277323,-6.698
1621786822263.32,-0.0943003666585187,-0.06469963334148131,-0.06554945001222195,0.471,-6.531,-6.698
1621786822267.564,-0.096,-0.063,-0.063,0.4657388014527845,-6.531,-6.692738801452784
1621786822272.56,-0.099,-0.065,-0.063,0.4595450968523002,-6.531,-6.6865450968523
1621786822277.554,-0.093,-0.066,-0.061,0.4533541162227603,-6.531,-6.680354116222761
1621786822279.453,-0.09414046920821115,-0.0675206256109482,-0.06252062561094819,0.451,-6.531,-6.678
1621786822282.549,-0.096,-0.07,-0.065,0.4471612156251419,-6.540405021718402,-6.663028740938053
1621786822287.543,-0.096,-0.077,-0.058,0.44096957910190243,-6.555574531200339,-6.638881358497419
1621786822292.537,-0.094,-0.077,-0.058,0.43477763988315954,-6.570744782286259,-6.614732795544322
1621786822295.584,-0.09216964067465168,-0.08127083842581276,-0.059830359325348324,0.431,-6.58,-6.6
1621786822297.531,-0.091,-0.084,-0.061,0.431,-6.577706390772584,-6.602293609227416
1621786822302.524,-0.091,-0.086,-0.052,0.431,-6.57182468515379,-6.60817531484621
1621786822307.519,-0.094,-0.086,-0.054,0.431,-6.565940391135868,-6.614059608864132
1621786822311.713,-0.09736049298185553,-0.08684012324546388,-0.054,0.431,-6.561,-6.619
1621786822312.511,-0.098,-0.087,-0.054,0.4285752562026006,-6.557585564856724,-6.620979382691754
1621786822317.505,-0.094,-0.091,-0.049,0.41340299117482326,-6.536220538593119,-6.633364905163409
1621786822322.498,-0.099,-0.099,-0.051,0.3982329513631341,-6.514858645797067,-6.645748611132135
1621786822327.491,-0.105,-0.099,-0.047,0.3830636532901409,-6.493497797490199,-6.658131711599885
1621786822327.841,-0.10507011882059557,-0.09949083174416899,-0.04678964353821329,0.382,-6.492,-6.659
1621786822332.484,-0.106,-0.106,-0.044,0.38775819051656274,-6.497758190516563,-6.681456943014594
1621786822337.476,-0.113,-0.108,-0.045,0.39394967601283837,-6.503949676012838,-6.70560373645007
1621786822342.469,-0.108,-0.112,-0.045,0.4001420698843336,-6.510142069884333,-6.729754072548901
1621786822343.967,-0.10860018584633442,-0.1141006504621705,-0.04620037169266885,0.402,-6.512,-6.737
1621786822347.461,-0.11,-0.119,-0.049,0.4082843579648698,-6.5076659600242275,-6.775356253785585
1621786822352.454,-0.101,-0.115,-0.044,0.4172653997577226,-6.501472138098122,-6.830171577831617
1621786822357.446,-0.106,-0.129,-0.047,0.42624424591156873,-6.495279830405814,-6.88497350090854
1621786822360.09,-0.106,-0.13005932410622587,-0.04541101384066122,0.431,-6.492,-6.914
1621786822362.438,-0.106,-0.131,-0.044,0.4368257485120625,-6.497680104799261,-6.911087125743968
1621786822367.429,-0.103,-0.14,-0.04,0.4492096288107101,-6.5097543880904425,-6.904895185594645
1621786822372.42,-0.099,-0.138,-0.033,0.4615935091093577,-6.521828671381623,-6.898703245445321
1621786822376.211,-0.099,-0.1448345070422535,-0.02920305164319249,0.471,-6.531,-6.894
1621786822377.412,-0.099,-0.147,-0.028,0.46801944629551095,-6.531745138426122,-6.894
1621786822382.403,-0.093,-0.148,-0.024,0.45563500333191975,-6.53484124916702,-6.894
1621786822387.395,-0.089,-0.145,-0.017,0.4432481371539347,-6.537937965711516,-6.894
1621786822392.331,-0.08702162532413522,-0.14104325064827045,-0.012054063310338078,0.431,-6.541,-6.894
1621786822392.385,-0.087,-0.141,-0.012,0.43083599133687733,-6.540835991336878,-6.8942945461705065
1621786822397.375,-0.08,-0.15,-0.007,0.41566778742029775,-6.525667787420298,-6.921535402183955
1621786822402.367,-0.068,-0.154,-0.003,0.40049364653853725,-6.510493646538538,-6.948786920502219
1621786822407.357,-0.063,-0.159,0.0,0.38532544262195767,-6.495325442621958,-6.976027776515668
1621786822408.451,-0.06146533587748911,-0.15965771319536182,0.0,0.382,-6.492,-6.982
1621786822412.347,-0.056,-0.162,0.0,0.35830873642271743,-6.477736892336126,-6.974989319961825
1621786822417.337,-0.049,-0.159,0.0,0.32796497553438064,-6.459468709760494,-6.9660100437805825
1621786822422.327,-0.037,-0.166,-0.002,0.2976212146460438,-6.441200527184863,-6.95703076759934
1621786822424.567,-0.035204413131757914,-0.16914227701942364,-0.0011022065658789569,0.284,-6.433,-6.953
1621786822427.317,-0.033,-0.173,0.0,0.26403562988547535,-6.409622917045386,-6.954706356420045
1621786822432.307,-0.03,-0.178,-0.003,0.22780944373750228,-6.367204220444767,-6.957802611646367
1621786822437.296,-0.019,-0.18,-0.007,0.19159034720959828,-6.324793825365085,-6.9608982609222565
1621786822440.683,-0.014247467580132126,-0.19154186444825055,-0.008357866405676534,0.167,-6.296,-6.963
1621786822442.285,-0.012,-0.197,-0.009,0.13966001454677698,-6.2881459678152565,-6.954151786526048
1621786822447.275,-0.019,-0.208,-0.024,0.05448977179743614,-6.263678879898173,-6.926587598872625
1621786822452.263,-0.012,-0.218,-0.031,-0.03064713458799284,-6.239221368609267,-6.899034200078795
1621786822456.795,-0.012,-0.22617393218846324,-0.04371500562649836,-0.108,-6.217,-6.874
1621786822457.253,-0.012,-0.227,-0.045,-0.11718172588832487,-6.216459898477157,-6.871782741116751
1621786822462.241,-0.005,-0.241,-0.061,-0.21717737707402077,-6.210577801348587,-6.847635184483673
1621786822467.229,-0.005,-0.257,-0.075,-0.31717302825971666,-6.204695704220017,-6.823487627850595
1621786822472.218,0.0,-0.276,-0.094,-0.4171882566861126,-6.198812455489053,-6.799335343586636
1621786822472.907,0.000690617199353923,-0.2780718515980618,-0.09662434535754491,-0.431,-6.198,-6.796
1621786822477.206,0.005,-0.291,-0.113,-0.5201297679846031,-6.158772227863064,-6.775185263764075
1621786822482.194,0.005,-0.304,-0.131,-0.6235433797566188,-6.113257853819692,-6.751034779577796
1621786822487.181,0.007,-0.325,-0.154,-0.7269316835134194,-6.067754618333915,-6.7268902056465665
1621786822489.017,0.005159774896011745,-0.3305206753119648,-0.16099285539515537,-0.765,-6.051,-6.718
1621786822492.17,0.002,-0.34,-0.173,-0.7822244081360453,-6.058633544514838,-6.729352450816939
1621786822497.157,-0.002,-0.351,-0.188,-0.8094694898299433,-6.070708069356452,-6.747309436478826
1621786822502.144,-0.005,-0.358,-0.197,-0.8367145715238413,-6.082782594198066,-6.765266422140713
1621786822505.125,-0.007988106309040184,-0.36815956145073664,-0.20417145514169643,-0.853,-6.09,-6.776
1621786822507.132,-0.01,-0.375,-0.209,-0.8824078879558613,-6.115669597114015,-6.778492193894564
1621786822512.118,-0.012,-0.393,-0.227,-0.9554607875829872,-6.1794361111953195,-6.784683117591778
1621786822517.106,-0.026,-0.414,-0.244,-1.028545881710977,-6.243230727256192,-6.790876769636523
1621786822521.232,-0.03510248249522597,-0.42392998090388284,-0.244,-1.089,-6.296,-6.796
1621786822522.092,-0.037,-0.426,-0.244,-1.0763961131491981,-6.318537458690841,-6.802301943425401
1621786822527.078,-0.044,-0.442,-0.253,-1.003334354061183,-6.44918179061941,-6.838832822969408
1621786822532.065,-0.058,-0.452,-0.251,-0.9302547069702574,-6.579858108722675,-6.8753726465148715
1621786822537.051,-0.073,-0.466,-0.248,-0.8571893702816602,-6.7105088378861835,-6.91190531485917
1621786822537.337,-0.07334395652812453,-0.46640128261614533,-0.2481146521760415,-0.853,-6.718,-6.914
1621786822542.038,-0.079,-0.473,-0.25,-0.7154946784317293,-6.823683495557779,-6.93385214833682
1621786822547.023,-0.077,-0.473,-0.244,-0.5696916219412353,-6.9357444434337,-6.954902271142242
1621786822552.009,-0.068,-0.469,-0.232,-0.42385286091148916,-7.047832833014949,-6.97595754874314
1621786822553.44,-0.06398129101772945,-0.4695741012831815,-0.22941654422568322,-0.382,-7.08,-6.982
1621786822556.994,-0.054,-0.471,-0.223,-0.2868778465083841,-7.119064086236696,-6.90629953910064
1621786822561.979,-0.044,-0.473,-0.201,-0.15345068073622609,-7.173859001182571,-6.800115042906092
1621786822566.965,-0.044,-0.456,-0.18,-0.01999737711877253,-7.228664650231965,-6.693909745595683
1621786822569.543,-0.03572573219708101,-0.4503114408854932,-0.16655431482025662,0.049,-7.257,-6.639
1621786822571.95,-0.028,-0.445,-0.154,0.06948289405841498,-7.251169103151254,-6.542266916381062
1621786822576.936,-0.005,-0.422,-0.138,0.11191337842346305,-7.2390903521276275,-6.34188353401474
1621786822581.92,-0.012,-0.398,-0.124,0.1543251645385339,-7.227016923963483,-6.141588456522398
1621786822585.642,-0.01872123438648053,-0.3785831006612785,-0.11205113886847906,0.186,-7.218,-5.992
1621786822586.904,-0.021,-0.372,-0.108,0.2013659624163924,-7.202634037583608,-5.971224591630898
1621786822591.889,-0.045,-0.356,-0.066,0.2620628516827689,-7.141937148317231,-5.889159919918706
1621786822596.873,-0.068,-0.33,-0.037,0.3227508228049687,-7.081249177195032,-5.807107305901446
1621786822601.739,-0.08557067293564502,-0.30754858458223133,-0.01942932706435498,0.382,-7.022,-5.727
1621786822601.858,-0.086,-0.307,-0.019,0.38214771675993753,-7.021564235558184,-5.727649953743725
1621786822606.841,-0.108,-0.271,0.007,0.3883387779243824,-7.003300605123072,-5.754890622867283
1621786822611.826,-0.14,-0.237,0.044,0.39453196232767646,-6.985030711133355,-5.7821406342417765
1621786822616.809,-0.175,-0.209,0.077,0.4007230234921213,-6.966767080698243,-5.809381303365334
1621786822617.837,-0.17994954443029293,-0.20405045556970705,0.0852492407171549,0.402,-6.963,-5.815
1621786822621.793,-0.199,-0.185,0.117,0.3730002123335457,-6.963,-5.933210998877666
1621786822626.776,-0.225,-0.166,0.147,0.3364730791397458,-6.963,-6.082105499438833
1621786822631.759,-0.244,-0.143,0.18,0.2999441562774896,-6.963,-6.231007295173962
1621786822633.934,-0.2501110240078393,-0.13470646741793238,0.1944045565899069,0.284,-6.963,-6.296
1621786822636.742,-0.258,-0.124,0.213,0.21560501843227087,-6.963,-6.400337242289546
1621786822641.725,-0.255,-0.113,0.23,0.09422340215725836,-6.963,-6.585506136504999
1621786822646.708,-0.234,-0.099,0.255,-0.027152267245171946,-6.963,-6.770665958705645
1621786822650.027,-0.21401323140252865,-0.0983337743800843,0.26299470743898856,-0.108,-6.963,-6.894
1621786822651.69,-0.204,-0.098,0.267,-0.13940947497762474,-6.961966793586263,-6.907225042095842
1621786822656.672,-0.175,-0.075,0.276,-0.2335179988167655,-6.958871118459975,-6.946849683712323
1621786822661.655,-0.15,-0.068,0.286,-0.3276403573974909,-6.955774988243504,-6.986480150483154
1621786822666.121,-0.12041708321082036,-0.06172483583259825,0.29586097226305985,-0.412,-6.953,-7.022
1621786822666.637,-0.117,-0.061,0.297,-0.4220661791479548,-6.947966910426023,-7.014754915645103
1621786822671.619,-0.087,-0.063,0.305,-0.5192788870008496,-6.899360556499575,-6.944786533559898
1621786822676.601,-0.061,-0.061,0.309,-0.6164963587814055,-6.850751820609298,-6.874814722660517
1621786822681.583,-0.033,-0.049,0.311,-0.7137090666343002,-6.80214546668285,-6.804846340575313
1621786822682.213,-0.031229585334771104,-0.047482501715518086,0.311,-0.726,-6.796,-6.796
1621786822686.564,-0.019,-0.037,0.311,-0.7708869198440274,-6.774908555735939,-6.71920551062829
1621786822691.545,-0.005,-0.033,0.314,-0.8222718900301932,-6.750763810708705,-6.631293874888103
1621786822696.526,-0.005,-0.031,0.321,-0.8736568602163589,-6.7266190656814695,-6.543382239147916
1621786822698.304,-0.003215213449002598,-0.026716512277606234,0.321,-0.892,-6.718,-6.512
1621786822701.507,0.0,-0.019,0.321,-0.9232546847735377,-6.682763826720279,-6.468999924133222
1621786822706.488,0.003,-0.021,0.316,-0.9718566724831196,-6.627970502996738,-6.4021334951824596
1621786822711.468,0.005,-0.005,0.312,-1.0204491313253925,-6.573187922008953,-6.335280176010925
1621786822714.394,0.007937212038035487,-0.00030046073914322124,0.306125575923929,-1.049,-6.541,-6.296
1621786822716.449,0.01,0.003,0.302,-1.049,-6.534741152725507,-6.262151132086925
1621786822721.429,0.014,0.017,0.298,-1.049,-6.519573282141557,-6.180120811581887
1621786822726.409,0.012,0.028,0.293,-1.049,-6.504405411557606,-6.0980904910768485
1621786822730.482,0.006276002352710518,0.03045314184883835,0.29054685815116166,-1.049,-6.492,-6.031
1621786822731.39,0.005,0.031,0.29,-1.045669838668063,-6.4897987069161776,-6.01993709116848
1621786822736.369,0.0,0.049,0.279,-1.027408125787309,-6.477727405181442,-5.959271061937501
1621786822741.348,-0.009,0.07,0.276,-1.009146412906555,-6.465656103446706,-5.898605032706522
1621786822746.328,-0.028,0.087,0.272,-0.99088111824432,-6.453582434093703,-5.837927104676046
1621786822746.568,-0.028916515515466444,0.08743413892837884,0.2717588117064562,-0.99,-6.453,-5.835
1621786822751.308,-0.047,0.096,0.267,-0.9670114611005692,-6.470388766603415,-5.823505730550285
1621786822756.287,-0.066,0.117,0.272,-0.9428637267552182,-6.488654360531309,-5.811431863377609
1621786822761.266,-0.089,0.134,0.274,-0.9187159924098672,-6.506919954459202,-5.799357996204934
1621786822762.651,-0.09484054133568696,0.13956242031970187,0.2745562420319702,-0.912,-6.512,-5.796
1621786822766.245,-0.11,0.154,0.276,-0.8945685226789726,-6.570998846317323,-5.852987522011051
1621786822771.223,-0.124,0.161,0.278,-0.8704270751108143,-6.6527083611633975,-5.931911485214646
1621786822776.202,-0.14,0.168,0.29,-0.846279707328921,-6.73443791365596,-6.010854802963143
1621786822778.734,-0.14610358018636588,0.17054315841098577,0.29610358018636584,-0.834,-6.776,-6.051
1621786822781.18,-0.152,0.173,0.302,-0.8399325428154986,-6.816310867848901,-6.118083368759869
1621786822786.158,-0.15,0.185,0.304,-0.8520060579375683,-6.898348855216811,-6.254606962832503
1621786822791.137,-0.15,0.195,0.314,-0.864081941576582,-6.980402936353698,-6.391157339365966
1621786822794.814,-0.14113450407142158,0.2016491219464338,0.31695516530952617,-0.873,-7.041,-6.492
1621786822796.114,-0.138,0.204,0.318,-0.8824586901074877,-7.063231963927856,-6.52134619238477
1621786822801.093,-0.115,0.192,0.318,-0.9186841410092913,-7.148377254509018,-6.633737975951904
1621786822806.07,-0.084,0.199,0.323,-0.9548953816724358,-7.23348914495658,-6.746085671342685
1621786822810.895,-0.056861010299166265,0.19221525257479158,0.32784624816086316,-0.99,-7.316,-6.855
1621786822811.048,-0.056,0.192,0.328,-0.9914948747930935,-7.315247801855705,-6.855180908414451
1621786822816.025,-0.021,0.19,0.326,-1.0400961868460616,-7.2907923645806445,-6.861062595860352
1621786822821.002,0.017,0.194,0.319,-1.0886998830693535,-7.2663357276275224,-6.866944571836418
1621786822825.979,0.058,0.197,0.319,-1.1373035792926456,-7.241879090674401,-6.872826547812485
1621786822826.972,0.06318800902757335,0.197,0.3180023059562359,-1.147,-7.237,-6.874
1621786822830.955,0.084,0.197,0.314,-1.093733204762194,-7.203057902569398,-6.750123732005102
1621786822835.932,0.098,0.209,0.325,-1.0271782785640529,-7.160648484480349,-6.5953448338698895
1621786822840.908,0.105,0.22,0.33,-0.9606331470570371,-7.1182453076596,-6.440588714086132
1621786822843.049,0.10413960561169429,0.22301138035906995,0.3360227607181399,-0.932,-7.1,-6.374
1621786822845.885,0.103,0.227,0.344,-0.9111824795346506,-7.0791824795346505,-6.31701644821773
1621786822850.861,0.099,0.239,0.354,-0.8746550430569688,-7.0426550430569685,-6.217030329723737
1621786822855.836,0.094,0.244,0.361,-0.8381365672888538,-7.006136567288854,-6.117068739273727
1621786822859.124,0.08475090748552928,0.25589169037574805,0.364963896791916,-0.814,-6.982,-6.051
1621786822860.813,0.08,0.262,0.367,-0.8088504109256079,-6.980003220562991,-6.064346894131588
1621786822865.788,0.063,0.276,0.377,-0.7936815288559406,-6.974121409148222,-6.10366215990399
1621786822870.764,0.052,0.293,0.393,-0.7785104136600483,-6.968238731827366,-6.1429832135749765
1621786822875.195,0.047546667975267444,0.2992346648346256,0.3974533320247326,-0.765,-6.963,-6.178
1621786822875.739,0.047,0.3,0.398,-0.7759676988057979,-6.969634780759063,-6.188629189583397
1621786822880.715,0.051,0.309,0.396,-0.8763014676836124,-7.030330517487617,-6.28586623719955
1621786822885.689,0.066,0.311,0.398,-0.9765909325716369,-7.090999453037163,-6.383060348233006
1621786822890.665,0.082,0.309,0.391,-1.0769247014494514,-7.151695189765717,-6.48029739584916
1621786822891.264,0.08404687576694646,0.3100836401119128,0.3901571688018456,-1.089,-7.159,-6.492
1621786822895.639,0.099,0.318,0.384,-1.1930166537508926,-7.201750300101806,-6.532027351050736
1621786822900.613,0.131,0.325,0.379,-1.3112775523848597,-7.250354910273359,-6.577536126179514
1621786822905.588,0.157,0.319,0.367,-1.4295558645211288,-7.298966677303186,-6.623051602315723
1621786822907.331,0.16751339943064691,0.3197008932953765,0.362444193580053,-1.471,-7.316,-6.639
1621786822910.562,0.187,0.321,0.354,-1.524296404364609,-7.323843621774414,-6.613457949606395
1621786822915.537,0.215,0.321,0.33,-1.60636336281572,-7.335921400565333,-6.574127746876995
1621786822920.51,0.243,0.332,0.309,-1.6883940761678977,-7.34799384517188,-6.5348149144402905
1621786822923.396,0.2540265108743679,0.3256162305464186,0.3049376012568118,-1.736,-7.355,-6.512
1621786822925.483,0.262,0.321,0.302,-1.698970360237118,-7.337199787201703,-6.45457157622739
1621786822930.458,0.278,0.335,0.295,-1.6106935704514365,-7.294764979480164,-6.31766511627907
1621786822935.431,0.283,0.351,0.291,-1.5224557683538533,-7.252348913208694,-6.180819121447029
1621786822939.458,0.28380976926853213,0.3623367697594502,0.291,-1.451,-7.218,-6.07
1621786822940.404,0.284,0.365,0.291,-1.4296796668389216,-7.207575417211296,-6.047501747879746
1621786822945.377,0.278,0.386,0.288,-1.317608991701371,-7.152778429644041,-5.929239322734596
1621786822950.351,0.26,0.414,0.293,-1.2055108064565159,-7.0979679910022195,-5.81094786758671
1621786822955.323,0.251,0.438,0.3,-1.093462139404809,-7.043181764294617,-5.692708666443749
1621786822955.521,0.24984512644242574,0.43919469678369755,0.3005575251657255,-1.089,-7.041,-5.688
1621786822960.295,0.222,0.468,0.314,-0.9986236202754888,-7.070134490832244,-5.699594338188342
1621786822965.268,0.195,0.496,0.34,-0.9044757807036214,-7.100484781220543,-5.711672514975523
1621786822970.24,0.152,0.527,0.365,-0.8103510505670934,-7.130827621856661,-5.7237477270654065
1621786822971.579,0.14149801168442241,0.5340013255437184,0.37334773430212576,-0.785,-7.139,-5.727
1621786822975.213,0.113,0.553,0.396,-0.8049126138315825,-7.207789029600012,-5.973418596165834
1621786822980.184,0.07,0.574,0.431,-0.8321539899965034,-7.301895601806103,-6.310530626206729
1621786822985.157,0.03,0.602,0.473,-0.8594047311370236,-7.396034525746082,-6.647758547820667
1621786822987.638,0.0165245321939001,0.5995045429988703,0.4809854624036147,-0.873,-7.443,-6.816
1621786822990.128,0.003,0.597,0.489,-0.9900926218788966,-7.479601137434993,-7.062282229859189
1621786822995.099,0.0,0.586,0.503,-1.2238645570390194,-7.552674219153919,-7.5539773729509445
1621786823000.071,0.007,0.572,0.497,-1.4576709345822816,-7.625758066968766,-8.045744959094918
1621786823003.693,0.03906050783360346,0.5472259712194882,0.48169839398850745,-1.628,-7.679,-8.404
1621786823005.042,0.051,0.538,0.476,-1.677401621021578,-7.702860646887974,-8.45348563738386
1621786823010.013,0.112,0.504,0.449,-1.8594588890071624,-7.790793068840194,-8.635852526573501
1621786823014.984,0.201,0.475,0.41,-2.0415161569927465,-7.878725490792415,-8.818219415763142
1621786823019.748,0.29108525685099695,0.4376242019447991,0.3687907867596503,-2.216,-7.963,-8.993
1621786823019.955,0.295,0.436,0.367,-2.219920373496358,-7.960717414115607,-8.981238879510927
1621786823024.925,0.391,0.405,0.328,-2.3140324528187115,-7.905921894247,-8.698902641543865
1621786823029.896,0.476,0.372,0.29,-2.408163024468878,-7.851115607463844,-8.416510926593366
1621786823034.866,0.541,0.344,0.246,-2.502275103791231,-7.7963200875952365,-8.134174688626306
1621786823035.802,0.5485350071242568,0.34042087161597795,0.23771149216331744,-2.52,-7.786,-8.081
1621786823039.835,0.581,0.325,0.202,-2.453671751661622,-7.527470577499277,-7.82473176778354
1621786823044.806,0.599,0.305,0.161,-2.371916835237038,-7.208812210071636,-7.508860499779464
1621786823049.775,0.593,0.3,0.127,-2.290194040974007,-6.890279046069142,-7.193113340126846
1621786823051.854,0.5821238825031928,0.30167324884566266,0.11612388250319286,-2.256,-6.757,-7.061
1621786823054.745,0.567,0.304,0.101,-2.0598491444216287,-6.612183390371891,-6.9161833903718914
1621786823059.714,0.527,0.302,0.086,-1.7227221081451058,-6.363285192790326,-6.667285192790326
1621786823064.683,0.468,0.312,0.075,-1.385595071868583,-6.114386995208761,-6.418386995208761
1621786823067.905,0.4258619148204549,0.32366900820356637,0.0730551652994056,-1.167,-5.953,-6.257
1621786823069.653,0.403,0.33,0.072,-1.0794452082921413,-5.887769502197752,-6.246327898523171
1621786823074.621,0.33,0.349,0.072,-0.8306110663280051,-5.702381876530442,-6.215997368781274
1621786823079.591,0.26,0.38,0.066,-0.5816790977809548,-5.516921367625363,-6.185654914903648
1621786823083.957,0.2019982308712959,0.39230340557275545,0.06160592658115878,-0.363,-5.354,-6.159
1621786823084.559,0.194,0.394,0.061,-0.3332218301826533,-5.333410308274908,-6.179214651802959
1621786823089.528,0.138,0.398,0.054,-0.08744928748498165,-5.163474381397046,-6.346055206606542
1621786823094.496,0.099,0.431,0.052,0.15827495323407303,-4.993571852234879,-6.512862972031694
1621786823099.463,0.096,0.461,0.054,0.4039388164798564,-4.823711070217328,-6.679629750733807
1621786823100.01,0.09577978676362207,0.46309202574559033,0.05444042647275586,0.431,-4.805,-6.698
1621786823104.432,0.094,0.48,0.058,0.6175284999315453,-4.656493557661591,-6.676233749638712
1621786823109.399,0.093,0.511,0.058,0.8270538053151193,-4.489677989564477,-6.651783972496463
1621786823114.367,0.084,0.529,0.063,1.036620305155392,-4.322829624108189,-6.627329388320124
1621786823116.059,0.07684585893339888,0.5371761612189727,0.06776942737773409,1.108,-4.266,-6.619
1621786823119.334,0.063,0.553,0.077,1.276164800389484,-4.228040469814995,-6.4630802093476145
1621786823124.302,0.038,0.557,0.094,1.5312703261927947,-4.1704559700584225,-6.226550328627069
1621786823129.269,-0.005,0.565,0.127,1.78632570593963,-4.112882789678676,-5.99006694255112
1621786823132.106,-0.035841975915458346,0.570140329319243,0.14413443106414353,1.932,-4.08,-5.855
1621786823134.236,-0.059,0.574,0.157,1.969703895313451,-4.160718198417529,-5.817163344491783
1621786823139.203,-0.127,0.586,0.19,2.0576177115033474,-4.348928058429702,-5.7289399726110775
1621786823144.169,-0.194,0.592,0.22,2.145518563603165,-4.537110164333536,-5.6407296104686555
1621786823148.151,-0.24530695502580488,0.5831816171049398,0.2384384369623986,2.216,-4.688,-5.57
1621786823149.136,-0.258,0.581,0.243,2.1569913563526244,-4.745780576141707,-5.6440524705918165
1621786823154.103,-0.314,0.572,0.253,1.8594620242569964,-5.03711783056625,-6.017434754158233
1621786823159.068,-0.351,0.553,0.262,1.5620496857547215,-5.328340526227686,-6.390670217460777
1621786823164.035,-0.384,0.527,0.239,1.2645349778582624,-5.619663460806842,-6.7640341484942095
1621786823164.194,-0.3846091360574323,0.5258779072626248,0.23758936913015685,1.255,-5.629,-6.776
1621786823169.0,-0.403,0.492,0.195,0.8171959629172946,-5.931657137202965,-7.17275054421458
1621786823173.967,-0.405,0.45,0.145,0.36471320272183405,-6.24446178319709,-7.582803367280144
1621786823178.932,-0.394,0.414,0.084,-0.08756939306754341,-6.557128054071335,-7.992674795634105
1621786823180.232,-0.3840540673384124,0.4051010076185795,0.06829589579749325,-0.206,-6.639,-8.1
1621786823183.899,-0.356,0.38,0.024,-0.38175447022653225,-6.95214162473041,-8.212804503112714
1621786823188.833,-0.3,0.353,-0.037,-0.6182390137204216,-7.373485981308412,-8.364587393119905
1621786823193.766,-0.23,0.335,-0.101,-0.8546767517628523,-7.7947469446441415,-8.516340241981124
1621786823196.193,-0.18917150774407443,0.3315566331832352,-0.13740130634865655,-0.971,-8.002,-8.591
1621786823198.7,-0.147,0.328,-0.175,-1.0018438136982941,-8.07454590874956,-8.589426336035801
1621786823203.632,-0.075,0.314,-0.246,-1.0625281460252265,-8.217277935294028,-8.586330196631366
1621786823208.564,0.0,0.309,-0.316,-1.1232094744747045,-8.360002896596116,-8.583234210485983
1621786823212.123,0.06061538461538461,0.30034065934065934,-0.36218315018315017,-1.167,-8.463,-8.581
1621786823213.496,0.084,0.297,-0.38,-1.1289796115463033,-8.398770545582757,-8.552204513053209
1621786823218.428,0.168,0.276,-0.428,-0.9924131344564868,-8.168063004920821,-8.448773212944369
1621786823223.358,0.251,0.246,-0.468,-0.8559007404227922,-7.937446829058912,-8.345382873698895
1621786823228.049,0.31949589068224576,0.22792469551440736,-0.49749128626596695,-0.726,-7.718,-8.247
1621786823228.289,0.323,0.227,-0.499,-0.7157962128181539,-7.699220208524992,-8.227933839313094
1621786823233.219,0.375,0.201,-0.52,-0.5061877951548605,-7.313441643667587,-7.836272615762036
1621786823238.148,0.405,0.182,-0.536,-0.2966208984973935,-6.927739497086783,-7.444688975774302
1621786823243.078,0.401,0.178,-0.543,-0.08701248083409996,-6.541960932229378,-7.053027752223245
1621786823243.972,0.39791659237246163,0.17673036156513125,-0.5426372461614661,-0.049,-6.472,-6.982
1621786823248.007,0.384,0.171,-0.541,0.10256094643706011,-6.233506938800546,-6.716134727738335
1621786823252.936,0.36,0.152,-0.525,0.2876930826675663,-5.9421869719227765,-6.39137952555472
1621786823257.864,0.332,0.143,-0.51,0.4727885390949658,-5.650924723598055,-6.066688666370202
1621786823259.893,0.3081189992568739,0.13805910329452564,-0.5054708446866485,0.549,-5.531,-5.933
1621786823262.792,0.274,0.131,-0.499,0.6473610480456526,-5.436281953733816,-5.811505890654722
1621786823267.72,0.204,0.119,-0.483,0.8145682027367,-5.275267656623918,-5.604974090323372
1621786823272.646,0.14,0.131,-0.459,0.9817090875621279,-5.114317174940173,-5.398524145548261
1621786823275.808,0.09059182561307902,0.13292499380728265,-0.44809170175873175,1.089,-5.011,-5.266
1621786823277.574,0.063,0.134,-0.442,1.113970080552359,-4.994686214039126,-5.242028722669735
1621786823282.5,-0.01,0.143,-0.415,1.183626006904488,-4.949177675489068,-5.175159033371692
1621786823287.426,-0.086,0.169,-0.412,1.2532819332566167,-4.90366913693901,-5.108289344073648
1621786823291.72,-0.14790194814851534,0.17510300897238884,-0.4015376989044763,1.314,-4.864,-5.05
1621786823292.351,-0.157,0.176,-0.4,1.3330811503460553,-4.876852999401501,-5.0613058791031715
1621786823297.276,-0.227,0.195,-0.396,1.4819805564507467,-4.977151144054141,-5.149531098936513
1621786823302.201,-0.288,0.206,-0.379,1.6308873440449334,-5.077454260853552,-5.237760692417476
1621786823307.125,-0.337,0.22,-0.367,1.779764605681138,-5.177737489065881,-5.325972791307951
1621786823307.629,-0.3405810241411788,0.22071620482823576,-0.364953700490755,1.795,-5.188,-5.335
1621786823312.05,-0.372,0.227,-0.347,1.863102982485763,-5.283344175480068,-5.5067862986783735
1621786823316.973,-0.384,0.244,-0.346,1.9389342563740464,-5.389507958923665,-5.698066818119023
1621786823321.897,-0.394,0.257,-0.34,2.0147843338910465,-5.4956980674474645,-5.889394768753742
1621786823323.534,-0.3959950409124721,0.2609900818249442,-0.3360099181750558,2.04,-5.531,-5.953
1621786823326.82,-0.4,0.269,-0.328,2.1007618959878394,-5.58969516483179,-5.999501451011102
1621786823331.743,-0.41,0.272,-0.309,2.1917873692938414,-5.677624533603574,-6.069163803031001
1621786823336.665,-0.431,0.284,-0.288,2.2827992998295636,-5.765540820243524,-6.13881579068589
1621786823339.434,-0.4439423496725541,0.293003373685255,-0.27843391545941654,2.334,-5.815,-6.178
1621786823341.586,-0.454,0.3,-0.271,2.3180262325295655,-5.857506465980649,-6.2324191061280905
1621786823346.508,-0.471,0.307,-0.257,2.281488097066503,-5.954735063738289,-6.356896482875134
1621786823351.428,-0.485,0.311,-0.237,2.2449662724619874,-6.0519202580248805,-6.481318292121026
1621786823355.33,-0.4945132185903477,0.3189276821586231,-0.23065785427310154,2.216,-6.129,-6.58
1621786823356.35,-0.497,0.321,-0.229,2.208490806027928,-6.153581378558151,-6.608368066116718
1621786823361.269,-0.494,0.321,-0.215,2.172278446011337,-6.272122693826136,-6.7451703150682825
1621786823366.189,-0.497,0.311,-0.202,2.1360588967233514,-6.390687543204756,-6.881999723489562
1621786823371.109,-0.48,0.309,-0.194,2.099839347435366,-6.509252392583376,-7.018829131910841
1621786823371.223,-0.4795131794489948,0.30872181682799704,-0.1939536361379995,2.099,-6.512,-7.022
1621786823376.027,-0.459,0.297,-0.192,2.0367106241740682,-6.586082024647346,-7.13145997111159
1621786823380.947,-0.426,0.3,-0.188,1.9729208334613848,-6.661948523310489,-7.243556593626111
1621786823385.865,-0.389,0.288,-0.19,1.9091563662067057,-6.7377849042687235,-7.355608715695013
1621786823387.111,-0.37886497220015886,0.2839459888800635,-0.1910135027799841,1.893,-6.757,-7.384
1621786823390.783,-0.349,0.272,-0.194,1.8227109826589596,-6.752375722543352,-7.372670520231214
1621786823395.7,-0.312,0.253,-0.199,1.7285872586397737,-6.746183372278932,-7.357499262083385
1621786823400.618,-0.267,0.244,-0.201,1.6344448407329972,-6.739989792153486,-7.342324990776042
1621786823402.992,-0.2520295987286452,0.23579042510925705,-0.20438041319030592,1.589,-6.737,-7.335
1621786823405.534,-0.236,0.227,-0.208,1.5576255361672688,-6.7150698900761014,-7.261205980475055
1621786823410.45,-0.213,0.213,-0.211,1.496949757859943,-6.672658759320471,-7.118494073333846
1621786823415.367,-0.201,0.206,-0.209,1.4362619263586747,-6.630239203628257,-6.975753816588515
1621786823418.872,-0.19957371349095968,0.19458970792767732,-0.209,1.393,-6.6,-6.874
1621786823420.282,-0.199,0.19,-0.209,1.3694644592765748,-6.6,-6.841849563238188
1621786823425.198,-0.202,0.166,-0.211,1.2874018362450788,-6.6,-6.729748923474409
1621786823430.113,-0.211,0.145,-0.202,1.205355514886811,-6.6,-6.6176705524114166
1621786823434.747,-0.2194854460560302,0.1204864891714683,-0.19728586330220546,1.128,-6.6,-6.512
1621786823435.028,-0.22,0.119,-0.197,1.1245298795588439,-6.603824214363723,-6.512867530110289
1621786823439.941,-0.216,0.094,-0.19,1.0638615618895264,-6.670683176693175,-6.5280346095276185
1621786823444.854,-0.211,0.066,-0.187,1.003190229345803,-6.7375454615372785,-6.543202442663549
1621786823449.769,-0.201,0.042,-0.187,0.9424947778068327,-6.804434326498592,-6.5583763055482915
1621786823450.619,-0.19788563049853372,0.03680938416422288,-0.18613489736070382,0.932,-6.816,-6.561
1621786823454.681,-0.183,0.012,-0.182,0.9368634153846154,-6.858490892307692,-6.611169969230769
1621786823459.594,-0.166,-0.007,-0.185,0.9427458153846153,-6.909884492307692,-6.671851569230769
1621786823464.506,-0.136,-0.031,-0.185,0.9486270461538461,-6.961267876923077,-6.732521107692308
1621786823466.488,-0.12914051394204484,-0.03543849097867687,-0.18580699835975942,0.951,-6.982,-6.757
1621786823469.418,-0.119,-0.042,-0.187,0.9945842604988997,-7.043682809350138,-6.778607451179539
1621786823474.329,-0.094,-0.049,-0.183,1.0676399212101626,-7.147075142729637,-6.8148257236508005
1621786823479.241,-0.047,-0.063,-0.187,1.1407064770786206,-7.250482895526522,-6.851049397534739
1621786823482.353,-0.022914375217542637,-0.063,-0.187,1.187,-7.316,-6.874
1621786823484.151,-0.009,-0.063,-0.187,1.2013965395154091,-7.334817524091007,-6.862890859271574
1621786823489.062,0.044,-0.079,-0.188,1.2407230996582619,-7.386220744435208,-6.832544379791262
1621786823493.971,0.106,-0.084,-0.185,1.2800320648994798,-7.437600966719005,-6.802211477479141
1621786823498.213,0.1682016706443914,-0.09868650556881464,-0.18759173627684964,1.314,-7.482,-6.776
1621786823498.881,0.178,-0.101,-0.188,1.316486534345503,-7.470030919421647,-6.749996750997028
1621786823503.79,0.248,-0.122,-0.188,1.3347535223195726,-7.382101689173584,-6.558967402183453
1621786823508.699,0.305,-0.152,-0.182,1.3530205102936421,-7.2941724589255195,-6.367938053369878
1621786823513.608,0.356,-0.183,-0.175,1.3712874982677117,-7.206243228677456,-6.176908704556303
1621786823514.068,0.35843842977262547,-0.18496950097019751,-0.17434349967660082,1.373,-7.198,-6.159
1621786823518.515,0.382,-0.204,-0.168,1.4004962182479166,-7.03554785341282,-5.944361153472896
1621786823523.422,0.396,-0.232,-0.159,1.4308395797710924,-6.856274319515689,-5.70749715790933
1621786823528.33,0.379,-0.25,-0.143,1.461187470154197,-6.676974028374694,-5.470597809510606
1621786823529.917,0.37059162147370517,-0.25840837852629484,-0.13782561321458778,1.471,-6.619,-5.394
1621786823533.237,0.353,-0.276,-0.127,1.4586374632132018,-6.576045423028921,-5.313748278146716
1621786823538.144,0.312,-0.3,-0.12,1.4403659265650761,-6.51255957535323,-5.195138133464816
1621786823543.049,0.264,-0.326,-0.105,1.4221016625321643,-6.449098996933791,-5.076575199149474
1621786823545.762,0.2330396537141151,-0.33595153987760584,-0.09891850340812976,1.412,-6.414,-5.011
1621786823547.956,0.208,-0.344,-0.094,1.3876258456227943,-6.464133203889479,-5.043683525187617
1621786823552.861,0.15,-0.372,-0.086,1.3331359006364323,-6.576209113463702,-5.116749587782966
1621786823557.766,0.099,-0.391,-0.07,1.27864595565007,-6.688285023037924,-5.189815650378315
1621786823561.605,0.06533814597231903,-0.41526784825251417,-0.06608583092701384,1.236,-6.776,-5.247
1621786823562.67,0.056,-0.422,-0.065,1.2208058445461691,-6.819565543071161,-5.3083144680260785
1621786823567.574,0.028,-0.449,-0.068,1.15083679351428,-7.020184769038702,-5.590667452721135
1621786823572.478,0.014,-0.487,-0.073,1.080867742482391,-7.220803995006243,-5.8730204374161925
1621786823577.381,0.017,-0.536,-0.087,1.0109126246512847,-7.421383270911361,-6.155317196097471
1621786823577.445,0.017169570845364933,-0.5364304490690033,-0.087156526934183,1.01,-7.424,-6.159
1621786823582.285,0.03,-0.569,-0.099,1.021919338924519,-7.534635915145535,-6.797143068574248
1621786823587.187,0.047,-0.597,-0.11,1.0339919986433153,-7.646694961766157,-7.4434946965959545
1621786823592.09,0.072,-0.613,-0.126,1.0460670633941784,-7.75877633201776,-8.089975086334483
1621786823593.281,0.0739440071734582,-0.6142150044834114,-0.12964501345023413,1.049,-7.786,-8.247
1621786823596.991,0.08,-0.618,-0.141,0.6653738819320214,-7.597584973166368,-8.656169946332737
1621786823601.892,0.058,-0.634,-0.175,0.15857641416322243,-7.34867528221578,-9.196712633397077
1621786823606.794,0.012,-0.661,-0.22,-0.3482967892171982,-7.099728394300167,-9.73733609894516
1621786823609.112,-0.008342035773005827,-0.6860727417667282,-0.2502765183598226,-0.588,-6.982,-9.993
1621786823611.694,-0.031,-0.714,-0.284,-0.6472168561336398,-7.010874334808965,-10.01224955653931
1621786823616.595,-0.061,-0.764,-0.36,-0.7596146596535608,-7.065679875368265,-10.048786583578844
1621786823621.495,-0.017,-0.792,-0.426,-0.8719956656537766,-7.120477225401428,-10.08531815026762
1621786823624.94,0.05752217239661185,-0.8130911808669656,-0.4421699053313403,-0.951,-7.159,-10.111
1621786823626.395,0.089,-0.822,-0.449,-0.8446239664321855,-7.1147762557077625,-10.074039614957425
1621786823631.294,0.227,-0.836,-0.452,-0.4864794212020239,-6.9658847031963465,-9.949602184376158
1621786823636.193,0.36,-0.853,-0.466,-0.12831702764408237,-6.816985730593608,-9.825158552388004
1621786823640.766,0.45710018941282027,-0.8698058020137573,-0.47253558967201675,0.206,-6.678,-9.709
1621786823641.091,0.464,-0.871,-0.473,0.1991599277755486,-6.642546652674465,-9.676360736442483
1621786823645.989,0.534,-0.911,-0.48,0.09606035680113584,-6.108162690206488,-9.184393113985
1621786823650.887,0.567,-0.942,-0.494,-0.0070392141732769364,-5.57377872773851,-8.692425491527516
1621786823655.784,0.578,-0.955,-0.496,-0.11011822895768383,-5.039501311768882,-8.200555958517237
1621786823656.586,0.5748882740053843,-0.9561464253664373,-0.4950173496859109,-0.127,-4.952,-8.12
1621786823660.681,0.559,-0.962,-0.49,-0.1119850442191045,-4.799779413807473,-7.632531694216789
1621786823665.578,0.499,-0.93,-0.468,-0.09402940223179146,-4.61774635366023,-7.049592489697643
1621786823670.474,0.435,-0.901,-0.442,-0.07607644580265778,-4.4357405195165995,-6.466740473213872
1621786823672.404,0.4030709584122868,-0.8828674578637679,-0.43135698613742895,-0.069,-4.364,-6.237
1621786823675.37,0.354,-0.855,-0.415,-0.06524857186969277,-4.417270279450363,-6.143214296742319
1621786823680.265,0.262,-0.822,-0.391,-0.059057742782152235,-4.505180052493438,-5.988443569553806
1621786823685.16,0.168,-0.787,-0.365,-0.05286660490968041,-4.593094210282538,-5.83366512274201
1621786823688.217,0.12302424423825203,-0.7676354384914696,-0.3531313977850943,-0.049,-4.648,-5.737
1621786823690.054,0.096,-0.756,-0.346,-0.010306935585996019,-4.703889981931339,-5.813340370330332
1621786823694.949,0.026,-0.723,-0.325,0.09280257285376738,-4.852825938566553,-6.0167726437385145
1621786823699.843,-0.017,-0.682,-0.305,0.19589151081803158,-5.001732182292712,-6.220164332154495
1621786823704.026,-0.04862331637234361,-0.6537954205327746,-0.28448757856929063,0.284,-5.129,-6.394
1621786823704.737,-0.054,-0.649,-0.281,0.3122597089628325,-5.170489572712948,-6.404124895727129
1621786823709.629,-0.087,-0.609,-0.26,0.5066434331263324,-5.455874594494392,-6.473768745944944
1621786823714.521,-0.124,-0.567,-0.218,0.7010368585287485,-5.741273859177557,-6.543416071925109
1621786823719.414,-0.161,-0.548,-0.157,0.8954690888868293,-6.026730095467606,-6.613077300954676
1621786823719.83,-0.1632111094475221,-0.5451935918550682,-0.15155726905225334,0.912,-6.051,-6.619
1621786823724.306,-0.187,-0.515,-0.093,1.0536506984794165,-6.342517137470639,-6.691241856224502
1621786823729.198,-0.22,-0.496,-0.023,1.2084751514402274,-6.6611458616639885,-6.770202327234515
1621786823734.089,-0.246,-0.469,0.044,1.3632686982321671,-6.9797109809618,-6.849147036098405
1621786823735.629,-0.25103728847401785,-0.4620737283482254,0.06477881495532371,1.412,-7.08,-6.874
1621786823738.98,-0.262,-0.447,0.11,1.3746624627130957,-7.096759462759462,-7.138332792383425
1621786823743.87,-0.267,-0.414,0.168,1.3201767515185237,-7.121216117216117,-7.524066861408633
1621786823748.761,-0.246,-0.384,0.22,1.265682879708196,-7.145676434676434,-7.909858703884019
1621786823751.425,-0.22038881398252186,-0.3698321098626717,0.2494256179775281,1.236,-7.159,-8.12
1621786823753.65,-0.199,-0.358,0.274,1.0632750912126647,-7.096869751406839,-8.251304743058562
1621786823758.539,-0.133,-0.332,0.305,0.6837086451054356,-6.960337285882135,-8.539849545482653
1621786823763.428,-0.047,-0.312,0.311,0.30416115268072474,-6.8238116381176175,-8.828379939397687
1621786823767.217,0.024317117027121526,-0.30657369761750164,0.3117751860546426,0.01,-6.718,-9.052
1621786823768.316,0.045,-0.305,0.312,-0.03300850392726823,-6.696843713278496,-9.00829556558847
1621786823773.205,0.154,-0.293,0.302,-0.2243633805430144,-6.602714453584019,-8.813844331745933
1621786823778.092,0.243,-0.283,0.283,-0.41563225926154984,-6.508627497062279,-8.619480487352341
1621786823782.98,0.33,-0.279,0.276,-0.6069393592677346,-6.414521739130435,-8.42507780320366
1621786823783.007,0.33033826247689463,-0.2789556377079483,0.27593900184842884,-0.608,-6.414,-8.424
1621786823787.867,0.391,-0.271,0.265,-0.6381760019799836,-6.211697619379089,-8.03448323974817
1621786823792.754,0.403,-0.267,0.265,-0.6685202716290005,-6.0082671585688425,-7.642794452952186
1621786823797.64,0.396,-0.257,0.258,-0.6988584775782325,-5.804877349296951,-7.2511839373830185
1621786823798.79,0.3898796782091641,-0.2586477789436866,0.2584707939839105,-0.706,-5.757,-7.159
1621786823802.526,0.37,-0.264,0.26,-0.7500399832887183,-5.636245207111578,-6.96863362062296
1621786823807.411,0.335,-0.265,0.25,-0.8076269670571123,-5.478345412907918,-6.719709239172483
1621786823812.296,0.302,-0.26,0.257,-0.8652139508255063,-5.320445618704257,-6.4707848577220055
1621786823814.568,0.2815338097855965,-0.2567440151931631,0.25606971862661804,-0.892,-5.247,-6.355
1621786823817.181,0.258,-0.253,0.255,-0.9652038131789904,-5.207913801108051,-6.268877866848247
1621786823822.065,0.218,-0.271,0.26,-1.1020420006809248,-5.134850877464483,-6.107891763904795
1621786823826.949,0.166,-0.253,0.239,-1.2388801881828593,-5.061787953820917,-5.946905660961342
1621786823830.344,0.13054147292635368,-0.24604734763261837,0.2292662866856657,-1.334,-5.011,-5.835
1621786823831.832,0.115,-0.243,0.225,-1.3413595157744822,-5.01288705532679,-5.81556333013406
1621786823836.716,0.07,-0.236,0.206,-1.3655149075822781,-5.019080745533917,-5.75176832100065
1621786823841.598,0.021,-0.225,0.202,-1.3896594321805629,-5.025271649277067,-5.688002012446206
1621786823846.115,-0.027112416862529385,-0.22314952242836425,0.19459808971345702,-1.412,-5.031,-5.629
1621786823846.48,-0.031,-0.223,0.194,-1.4156343718063855,-5.033268588770865,-5.63036578303552
1621786823851.363,-0.075,-0.216,0.185,-1.4642571614381716,-5.063619119878604,-5.648638041559567
1621786823856.244,-0.117,-0.208,0.169,-1.5128580719085813,-5.093955993930197,-5.666902077978384
1621786823861.126,-0.157,-0.208,0.162,-1.5614711374686445,-5.124300455235204,-5.68517068223344
1621786823861.882,-0.1624227325028766,-0.20660558307068888,0.15967597178448148,-1.569,-5.129,-5.688
1621786823866.006,-0.192,-0.199,0.147,-1.6228986694753798,-5.18786990598039,-5.762306903548581
1621786823870.886,-0.23,-0.187,0.134,-1.6866759963445423,-5.257529607657874,-5.850232926999272
1621786823875.767,-0.251,-0.185,0.11,-1.7504692771177646,-5.327206734716005,-5.938180945152647
1621786823877.644,-0.2552317854283427,-0.17884467574059248,0.10192113690952762,-1.775,-5.354,-5.972
1621786823880.646,-0.262,-0.169,0.089,-1.7488991013325068,-5.425063030678649,-6.02248713975829
1621786823885.526,-0.278,-0.154,0.077,-1.7064702819956614,-5.540580911062907,-6.1045574837310195
1621786823890.405,-0.284,-0.14,0.066,-1.664047830802603,-5.6560814533622565,-6.186615509761388
1621786823893.401,-0.2876842473979183,-0.13324554643714973,0.05863150520416333,-1.638,-5.727,-6.237
1621786823895.284,-0.29,-0.129,0.054,-1.6087193547887257,-5.772773416799666,-6.253373258750794
1621786823900.162,-0.29,-0.11,0.047,-1.5328660458341725,-5.891352263042906,-6.2957891906968095
1621786823905.04,-0.291,-0.093,0.044,-1.4570165331515255,-6.009925174705983,-6.338202999829555
1621786823909.157,-0.2800258810572687,-0.08540253303964758,0.044,-1.393,-6.11,-6.374
1621786823909.917,-0.278,-0.084,0.044,-1.382095815251085,-6.124667575945444,-6.378728363298202
1621786823914.793,-0.264,-0.056,0.042,-1.3121380967141971,-6.218769993800372,-6.40906401115933
1621786823919.671,-0.246,-0.04,0.028,-1.2421523558586485,-6.3129101053936765,-6.439411810291383
1621786823924.547,-0.225,-0.016,0.03,-1.172191134531928,-6.407017234965902,-6.469748977061377
1621786823924.909,-0.22344171840576807,-0.014590126176647306,0.030074203885439615,-1.167,-6.414,-6.472
1621786823929.423,-0.204,0.003,0.031,-1.0658254898313493,-6.478488002232143,-6.449644159226191
1621786823934.298,-0.18,0.024,0.035,-0.9565635850694444,-6.548130859375,-6.425501302083333
1621786823939.174,-0.15,0.042,0.042,-0.8472797929067459,-6.617787667410714,-6.401353608630952
1621786823940.659,-0.14299308755760368,0.053271989581246244,0.040781406531757165,-0.814,-6.639,-6.394
1621786823944.048,-0.127,0.079,0.038,-0.7864478074799975,-6.634694969918749,-6.311558673944055
1621786823948.922,-0.108,0.105,0.049,-0.7468244123302115,-6.628503814426596,-6.192998046269305
1621786823953.797,-0.099,0.131,0.045,-0.707193078211251,-6.622311418470508,-6.074413663710228
1621786823956.404,-0.09258003908011424,0.14116493812315245,0.04820998045994288,-0.686,-6.619,-6.011
1621786823958.67,-0.087,0.15,0.051,-0.727022425906109,-6.592227469408645,-5.970121512430404
1621786823963.543,-0.084,0.164,0.068,-0.815246498860094,-6.534649653375517,-5.882206997627135
1621786823968.416,-0.087,0.176,0.061,-0.903470571814079,-6.477071837342391,-5.794292482823866
1621786823972.146,-0.09006233714171176,0.17906233714171177,0.05564091000200441,-0.971,-6.433,-5.727
1621786823973.288,-0.091,0.18,0.054,-0.9752818225538714,-6.446498627034239,-5.7198878201647565
1621786823978.16,-0.105,0.185,0.059,-0.993546843730123,-6.504079880233947,-5.689549310414372
1621786823983.032,-0.119,0.188,0.061,-1.0118127802168821,-6.5616640189888145,-5.659209280317721
1621786823987.883,-0.14488795349769493,0.19696121467227903,0.061,-1.03,-6.619,-5.629
1621786823987.904,-0.145,0.197,0.061,-1.030104100065179,-6.619484465687948,-5.6294577733635425
1621786823992.774,-0.159,0.201,0.056,-1.0542492628573203,-6.731852338682144,-5.735634578975139
1621786823997.645,-0.169,0.208,0.044,-1.0784004779788325,-6.844248378286104,-5.841837999317173
1621786824002.515,-0.162,0.204,0.026,-1.1025456407709737,-6.956616251280301,-5.9480148049287695
1621786824003.615,-0.15928935231602165,0.20174112693001803,0.02396701423701624,-1.108,-6.982,-5.972
1621786824007.385,-0.15,0.194,0.017,-1.2091662682025648,-7.015082808085199,-6.150838948054771
1621786824012.254,-0.12,0.183,-0.005,-1.3398202564659858,-7.057808519886981,-6.381805477070202
1621786824017.123,-0.091,0.152,-0.03,-1.4704807961002266,-7.1005363740801695,-6.612783587418884
1621786824019.341,-0.07186697086697086,0.14061129218272075,-0.04731083588226445,-1.53,-7.12,-6.718
1621786824021.992,-0.049,0.127,-0.068,-1.6159859318954675,-7.091843822300896,-6.82708411360072
1621786824026.86,-0.01,0.103,-0.099,-1.7738934178040715,-7.040136861228863,-7.027409884939675
1621786824031.728,0.026,0.068,-0.131,-1.931792984580985,-6.988432493284266,-7.227725609850779
1621786824035.064,0.04313569099573614,0.03578490092801606,-0.15224825683471283,-2.04,-6.953,-7.365
1621786824036.595,0.051,0.021,-0.162,-2.004642161507277,-6.949201223963592,-7.366850685761327
1621786824041.463,0.075,-0.007,-0.188,-1.8922199096006587,-6.93712280020503,-7.37273504605396
1621786824046.329,0.094,-0.033,-0.208,-1.779837125860114,-6.925048616827946,-7.378617340519719
1621786824050.782,0.11321339352896916,-0.043979082016553796,-0.208,-1.677,-6.914,-7.384
1621786824051.196,0.115,-0.045,-0.208,-1.6519429694418122,-6.921482856654601,-7.3716163991983725
1621786824056.062,0.141,-0.061,-0.208,-1.3574785378054655,-7.0094196585312805,-7.226087184824993
1621786824060.928,0.166,-0.058,-0.209,-1.0630141061691187,-7.09735646040796,-7.080557970451615
1621786824065.792,0.197,-0.051,-0.199,-0.7686678680731408,-7.185257965790987,-6.935087169289565
1621786824066.497,0.2007681537612285,-0.04839127816530336,-0.19740578110101872,-0.726,-7.198,-6.914
1621786824070.657,0.223,-0.033,-0.188,-0.533783050531419,-7.218916169432532,-6.835895316675989
1621786824075.522,0.239,-0.003,-0.161,-0.30898657467835167,-7.243377493939959,-6.744552396046989
1621786824080.385,0.239,0.03,-0.131,-0.08428034682080932,-7.267828998073218,-6.653246146435452
1621786824082.209,0.23187654940532945,0.0461214934510965,-0.11900260952476541,0.0,-7.277,-6.619
1621786824085.25,0.22,0.073,-0.099,0.15758756605533103,-7.297714827479018,-6.7349643145788
1621786824090.112,0.194,0.126,-0.061,0.40954295927883116,-7.330834271059994,-6.920371293130246
1621786824094.976,0.159,0.18,-0.012,0.6615995648119365,-7.363967018961766,-7.105852751010258
1621786824097.917,0.12270593552274782,0.21266465802952697,0.033367580596565236,0.814,-7.384,-7.218
1621786824099.838,0.099,0.234,0.063,0.8427488144289823,-7.442843318044003,-7.379972043846692
1621786824104.699,0.035,0.281,0.147,0.9155014382336935,-7.591754007618752,-7.789863422218767
1621786824109.562,-0.014,0.305,0.22,0.9882832931664464,-7.740724527715153,-8.199919490010107
1621786824113.619,-0.028187584752147055,0.31835302094319723,0.2792540304354377,1.049,-7.865,-8.542
1621786824114.423,-0.031,0.321,0.291,1.0570423923861656,-7.868995583478477,-8.625343773326698
1621786824119.284,0.016,0.335,0.339,1.10565320975367,-7.893146180641951,-9.129100460313511
1621786824124.145,0.11,0.36,0.38,1.1542664686489177,-7.917297990793729,-9.632882448992287
1621786824129.005,0.246,0.384,0.422,1.202867519905449,-7.941443736003981,-10.136537929211247
1621786824129.318,0.2550229567488823,0.3864490882604109,0.42438463856934744,1.206,-7.943,-10.169
1621786824133.865,0.386,0.422,0.459,0.97597392900476,-7.627800547553122,-9.984457673521451
1621786824138.725,0.518,0.443,0.49,0.7301014528824316,-7.290887129390536,-9.787202299100892
1621786824143.583,0.623,0.464,0.506,0.484340136266061,-6.954126030550976,-9.590036104283982
1621786824145.013,0.649191990754698,0.47076871671188825,0.5071771681238066,0.412,-6.855,-9.532
1621786824148.442,0.712,0.487,0.51,0.328309062621548,-6.469322442629327,-9.122722909373785
1621786824153.3,0.764,0.51,0.504,0.20973548035783743,-5.922893271100739,-8.542857845196421
1621786824158.158,0.785,0.52,0.497,0.09116785686503309,-5.376491559704395,-7.963021921431349
1621786824160.705,0.7760994630400964,0.5383246349174488,0.49909424399056557,0.029,-5.09,-7.659
1621786824163.023,0.768,0.555,0.501,0.2341306408970736,-4.890495304950314,-7.407130732063087
1621786824168.015,0.721,0.597,0.518,0.6759155802716749,-4.460826830157717,-6.8646859330841465
1621786824173.008,0.649,0.651,0.538,1.1178085513720486,-4.03105328653478,-6.322108487555839
1621786824176.773,0.5652844916124615,0.7053019513865114,0.5613800068469702,1.451,-3.707,-5.913
1621786824178.0,0.538,0.723,0.569,1.4891288007268322,-3.7203945487583283,-5.831643337371291
1621786824182.992,0.396,0.782,0.614,1.64424610841914,-3.7748868564506357,-5.500664491217444
1621786824187.984,0.241,0.831,0.637,1.7993634161114476,-3.8293791641429435,-5.169685645063598
1621786824192.896,0.08159859154929577,0.8664225352112676,0.6576631455399061,1.952,-3.883,-4.844
1621786824192.976,0.079,0.867,0.658,1.9454245048755374,-3.8875790079341046,-4.850530797650052
1621786824197.969,-0.087,0.869,0.658,1.5354383744170552,-4.1730829447035305,-5.2577300133244504
1621786824202.961,-0.234,0.834,0.641,1.1255324329235057,-4.458531039912785,-5.664849585125068
1621786824207.955,-0.342,0.771,0.604,0.7154460662588578,-4.744104778632426,-6.072148355641693
1621786824209.02,-0.356079913923803,0.7550000978138602,0.597173375067247,0.628,-4.805,-6.159
1621786824212.947,-0.408,0.696,0.572,0.3961125446726028,-5.153805500030287,-6.617416166939245
1621786824217.94,-0.422,0.609,0.517,0.10128317887213034,-5.597288327578896,-7.200261614876734
1621786824222.932,-0.4,0.529,0.449,-0.1934885214125628,-6.040684414561754,-7.782993064389121
1621786824225.142,-0.37830609350547734,0.4997796361502348,0.41092498043818465,-0.324,-6.237,-8.041
1621786824227.924,-0.351,0.463,0.363,-0.33745703125000004,-6.448516927083333,-8.139167317708333
1621786824232.917,-0.29,0.426,0.281,-0.3616088299418605,-6.828133660368217,-8.315351592781008
1621786824237.91,-0.208,0.408,0.208,-0.38576062863372096,-7.207750393653101,-8.491535867853681
1621786824241.267,-0.1481604244083708,0.4059829356542148,0.16564164873850967,-0.402,-7.463,-8.61
1621786824242.903,-0.119,0.405,0.145,-0.4288827207218118,-7.495766486011869,-8.56424865265835
1621786824247.895,-0.037,0.421,0.084,-0.5109109240644302,-7.595748031972871,-8.424645936780912
1621786824252.889,0.024,0.426,0.028,-0.5929712213879134,-7.69576869625772,-8.284988600581325
1621786824257.394,0.048365757042253515,0.43682922535211266,-0.027048562206572768,-0.667,-7.786,-8.159
1621786824257.881,0.051,0.438,-0.033,-0.6750029518619437,-7.7732858764759305,-8.143296094459583
1621786824262.874,0.059,0.447,-0.087,-0.7570422343324251,-7.642951771117166,-7.982313351498638
1621786824267.867,0.065,0.456,-0.145,-0.8390815168029065,-7.512617665758402,-7.821330608537694
1621786824272.859,0.079,0.443,-0.197,-0.921104753254617,-7.382309052376628,-7.660379352104148
1621786824273.522,0.08085881892843176,0.4404773171685569,-0.20217813844348848,-0.932,-7.365,-7.639
1621786824277.853,0.093,0.424,-0.236,-0.802848052793292,-7.2122194221193,-7.499644780456795
1621786824282.845,0.115,0.407,-0.272,-0.6539884211960223,-7.036125595967852,-7.339024928483858
1621786824287.839,0.126,0.382,-0.298,-0.5050632671903617,-6.859954259940365,-7.1783343776960455
1621786824289.652,0.12708933548481738,0.3758270989193683,-0.301994230110997,-0.451,-6.796,-7.12
1621786824292.832,0.129,0.365,-0.309,-0.36010498032092036,-6.610463745080231,-6.984544732061762
1621786824297.825,0.136,0.354,-0.319,-0.21738758704208297,-6.319146896760521,-6.771861762034514
1621786824302.818,0.138,0.344,-0.325,-0.07466321525885555,-6.027815803814715,-6.559168392370572
1621786824305.78,0.13384825226106087,0.33154475678318257,-0.32796553409924223,0.01,-5.855,-6.433
1621786824307.812,0.131,0.323,-0.33,0.05447231472511504,-5.778401792201502,-6.370008052797287
1621786824312.804,0.094,0.298,-0.326,0.16372684063938,-5.590224025187697,-6.215256599660934
1621786824317.797,0.044,0.284,-0.319,0.27300808307096147,-5.402000242189392,-6.060467304432065
1621786824321.909,0.00777179173796138,0.2683560009777561,-0.30747284282571496,0.363,-5.247,-5.933
1621786824322.791,0.0,0.265,-0.305,0.363,-5.242679014775342,-5.915278490977353
1621786824327.784,-0.051,0.244,-0.293,0.363,-5.218220540147754,-5.814967784909774
1621786824332.776,-0.106,0.22,-0.279,0.363,-5.193766849339954,-5.714676698558798
1621786824337.77,-0.155,0.204,-0.269,0.363,-5.169302394937628,-5.614341467845464
1621786824338.036,-0.15723603031043754,0.20362732828159372,-0.2687870447323393,0.363,-5.168,-5.609
1621786824342.764,-0.197,0.197,-0.265,0.394658639218951,-5.228385922954666,-5.632157708317566
1621786824347.757,-0.222,0.195,-0.272,0.42809262090365546,-5.292158147279195,-5.656614046772118
1621786824352.75,-0.243,0.187,-0.283,0.4615249678347082,-5.355927253462498,-5.6810691894346474
1621786824354.165,-0.2489504277682718,0.187,-0.28498347592275725,0.471,-5.374,-5.688
1621786824357.744,-0.264,0.187,-0.29,0.6536162054976992,-5.4219284330346325,-5.7033104716638405
1621786824362.737,-0.278,0.192,-0.291,0.9083993854444176,-5.488797408573504,-5.724671394405425
1621786824367.731,-0.302,0.192,-0.288,1.163219938241705,-5.555676192782756,-5.746035450472269
1621786824370.294,-0.31380588695482103,0.19713299432818307,-0.2808138079405437,1.294,-5.59,-5.757
1621786824372.724,-0.325,0.202,-0.274,1.3901273291455385,-5.601752244002119,-5.768752244002119
1621786824377.718,-0.33,0.22,-0.267,1.5876644516763794,-5.625902550518429,-5.792902550518429
1621786824382.711,-0.328,0.243,-0.253,1.7851629455838944,-5.650048134413078,-5.817048134413078
1621786824386.423,-0.3294868961470761,0.25340827302953256,-0.2359006943086251,1.932,-5.668,-5.835
1621786824387.704,-0.33,0.257,-0.23,1.9717114918866554,-5.676577682247518,-5.844371912085251
1621786824392.698,-0.34,0.278,-0.213,2.126523492371034,-5.710017074352144,-5.880907544199564
1621786824397.692,-0.356,0.3,-0.187,2.281335492855413,-5.743456466456769,-5.917443176313878
1621786824402.552,-0.3715705905357841,0.3107047809933516,-0.15780514274540478,2.432,-5.776,-5.953
1621786824402.686,-0.372,0.311,-0.157,2.433221588156939,-5.7784431763138775,-5.954869777791233
1621786824407.679,-0.394,0.33,-0.131,2.4787274158391863,-5.869454831678373,-6.024521554855897
1621786824412.674,-0.417,0.346,-0.098,2.5242532695567936,-5.960506539113587,-6.0942039840155005
1621786824417.667,-0.438,0.367,-0.07,2.569759097239041,-6.051518194478082,-6.163855761080165
1621786824418.681,-0.44084243461256417,0.3690303104375458,-0.06573634808115376,2.579,-6.07,-6.178
1621786824422.661,-0.452,0.377,-0.049,2.5185518593071303,-6.174118838254658,-6.320854993719069
1621786824427.655,-0.454,0.379,-0.028,2.4427006038775296,-6.304768755770133,-6.500111634101676
1621786824432.648,-0.454,0.374,-0.019,2.3668678885475156,-6.435386738909994,-6.679324459310156
1621786824434.812,-0.4397032258064516,0.37226705767350926,-0.015100879765395894,2.334,-6.492,-6.757
1621786824437.643,-0.421,0.37,-0.01,2.249576739117273,-6.5625574862263125,-6.848268390143488
1621786824442.636,-0.393,0.367,-0.005,2.100685732881274,-6.686994460253072,-7.009231640128353
1621786824447.63,-0.349,0.349,-0.01,1.9517656051341041,-6.811455772840104,-7.170226372827996
1621786824450.942,-0.31650420414548297,0.3363995893625342,-0.014642256550645289,1.853,-6.894,-7.277
1621786824452.624,-0.3,0.33,-0.017,1.798882682325166,-6.907346852914024,-7.278981173479425
1621786824457.618,-0.248,0.3,-0.023,1.6382194409552493,-6.946970927856895,-7.284862872103758
1621786824462.612,-0.202,0.286,-0.037,1.4775483451125204,-6.986596939933714,-7.2907448582714105
1621786824467.074,-0.15375243216817402,0.2502610608653141,-0.041467367391835736,1.334,-7.022,-7.296
1621786824467.606,-0.148,0.246,-0.042,1.3213714609972007,-7.019065430884467,-7.284030914731028
1621786824472.6,-0.106,0.204,-0.068,1.2028173564348945,-6.991516304759022,-7.171667625028372
1621786824477.594,-0.07,0.175,-0.079,1.0842690474389045,-6.963968525383975,-7.059309828251494
1621786824482.589,-0.054,0.126,-0.086,0.9656917606113338,-6.936414012256941,-6.946924566845729
1621786824483.208,-0.05139745783427035,0.12203422146174529,-0.0868675140552432,0.951,-6.933,-6.933
1621786824487.583,-0.033,0.094,-0.093,0.8845603274768844,-6.901271666591001,-6.84784874623568
1621786824492.577,-0.026,0.058,-0.099,0.8087219624400357,-6.8650549779815675,-6.750651821249678
1621786824497.571,-0.017,0.038,-0.112,0.7328798898321757,-6.828836518817814,-6.653450144519605
1621786824499.341,-0.015228163644361895,0.029495185492937094,-0.1137718363556381,0.706,-6.816,-6.619
1621786824502.566,-0.012,0.014,-0.117,0.6708191764652471,-6.823795750669633,-6.634791392382076
1621786824507.56,0.002,-0.01,-0.122,0.6163367079796008,-6.835868570390884,-6.659246591304611
1621786824512.554,0.026,-0.038,-0.134,0.5618569028919054,-6.847940799927362,-6.683700594724656
1621786824515.474,0.04354155260070395,-0.04852493156042237,-0.13750831052014081,0.53,-6.855,-6.698
1621786824517.548,0.056,-0.056,-0.14,0.5274293798132934,-6.857442089177372,-6.700570620186707
1621786824522.543,0.087,-0.068,-0.148,0.5212384064878278,-6.863323513836564,-6.706761593512172
1621786824527.537,0.124,-0.091,-0.157,0.515048340974082,-6.869204076074622,-6.712951659025918
1621786824531.61,0.1549926179418235,-0.09915595208995356,-0.1586311904179907,0.51,-6.874,-6.718
1621786824532.531,0.162,-0.101,-0.159,0.539678766511825,-6.878508889527757,-6.7006493365007795
1621786824537.526,0.202,-0.112,-0.161,0.7006538153096582,-6.902964714248967,-6.606540846434354
1621786824542.52,0.236,-0.117,-0.155,0.8616052595742105,-6.927416952896851,-6.51244615594123
1621786824547.515,0.276,-0.119,-0.141,1.022580308372044,-6.95187277761806,-6.418337665874805
1621786824547.745,0.2771983382209189,-0.11932262952101662,-0.14035474095796674,1.03,-6.953,-6.414
1621786824552.51,0.302,-0.126,-0.127,1.2066003813097688,-6.866176401162087,-6.294986699552112
