time,gyro_x,gyro_y,gyro_z,acc_x,acc_y,acc_z
1621787142582.395,,,,-0.088,-5.227,-7.885
1621787142601.04,,,,-0.029,-5.433,-7.983
1621787142619.266,0.164,1.086,1.426,0.6778505803393149,-5.338753255954758,-7.614668337047676
1621787142619.992,0.16571538081107814,1.083549455984174,1.4253873639960435,0.706,-5.335,-7.6
1621787142625.19,0.178,1.066,1.421,0.962687174351238,-5.258074821566663,-7.512818131108886
1621787142631.143,0.187,1.061,1.424,1.256663974848189,-5.169974518578618,-7.412971121055768
1621787142637.124,0.182,1.047,1.431,1.5520151747569124,-5.081462329331525,-7.312657306575728
1621787142639.25,0.17952422728565046,1.0484147272653426,1.4366589090613704,1.657,-5.05,-7.277
1621787142643.135,0.175,1.051,1.447,1.7759552851616123,-5.03053820042431,-7.261311406464495
1621787142649.176,0.162,1.049,1.456,1.9609254087108448,-5.000275976538125,-7.2369163484337955
1621787142655.246,0.15,1.058,1.468,2.1467850992137776,-4.969868214152003,-7.212403968551105
1621787142658.813,0.1459060886273568,1.060924222409031,1.4802817341179297,2.256,-4.952,-7.198
1621787142661.345,0.143,1.063,1.489,2.302544205304914,-4.963383876839282,-7.200881994136528
1621787142666.177,0.145,1.066,1.503,2.391369093106946,-4.985108849397674,-7.2063819871892845
1621787142671.792,0.148,1.07,1.529,2.494586736324353,-5.010354031484903,-7.2127731725278235
1621787142676.384,0.15126658562000694,1.0781664640500175,1.5518660993400486,2.579,-5.031,-7.218
1621787142677.415,0.152,1.08,1.557,2.569542817679558,-5.012651933701657,-7.229665745856353
1621787142683.043,0.155,1.08,1.58,2.517919098321086,-4.91249573566486,-7.293345303867404
1621787142688.677,0.157,1.087,1.593,2.4662393928015875,-4.812230917770745,-7.357093922651934
1621787142694.318,0.162,1.082,1.609,2.4144947433353,-4.711840100842139,-7.420922651933702
1621787142694.59,0.16195184576813348,1.082,1.6092407711593326,2.412,-4.707,-7.424
1621787142699.966,0.161,1.082,1.614,2.3831695390781564,-4.571379158316633,-7.470187575150301
1621787142705.621,0.157,1.093,1.614,2.3528425651302607,-4.428718597194389,-7.518772625250501
1621787142711.281,0.138,1.101,1.623,2.322489405477622,-4.285934856379426,-7.567399625918504
1621787142712.864,0.13464794072031708,1.1049107358262966,1.6255140444597622,2.314,-4.246,-7.581
1621787142716.948,0.126,1.115,1.632,2.3053159134775374,-4.2199477404326124,-7.576546622296173
1621787142722.622,0.101,1.14,1.637,2.2932507021630615,-4.183752106489185,-7.570359334442596
1621787142728.302,0.07,1.145,1.641,2.2811730316139767,-4.14751909484193,-7.564165657237937
1621787142731.205,0.050091482785266594,1.1495942732034,1.6461047480037778,2.275,-4.129,-7.561
1621787142733.989,0.031,1.154,1.651,2.2483868003341687,-4.125975772765246,-7.546181286549707
1621787142739.682,0.0,1.178,1.658,2.1939654559679624,-4.119791529087268,-7.515878492527615
1621787142745.381,-0.04,1.187,1.658,2.1394834307992205,-4.113600389863548,-7.485541910331384
1621787142749.616,-0.06894587309058235,1.20778165247529,1.6631954131188225,2.099,-4.109,-7.463
1621787142751.087,-0.079,1.215,1.665,2.0794171180931746,-4.127707224585789,-7.470801310678329
1621787142756.801,-0.106,1.218,1.67,2.003344528710726,-4.200378194117802,-7.50110665116402
1621787142762.52,-0.134,1.218,1.663,1.9272069339111593,-4.273111262320641,-7.531437888116693
1621787142768.094,-0.140815223880597,1.2131319829424307,1.663,1.853,-4.344,-7.561
1621787142768.245,-0.141,1.213,1.663,1.8511663726367897,-4.346477434304071,-7.56259729316973
1621787142773.977,-0.148,1.206,1.665,1.7816188714518932,-4.440443835904998,-7.623180894201906
1621787142779.715,-0.154,1.196,1.674,1.7119973142345568,-4.534510295434199,-7.6838290062667856
1621787142785.461,-0.154,1.182,1.676,1.6422809652956973,-4.628704829111591,-7.744559692453525
1621787142786.638,-0.15420466123280693,1.1811813550687722,1.6770233061640345,1.628,-4.648,-7.757
1621787142791.212,-0.155,1.178,1.681,1.5412536497068428,-4.696165112344076,-7.802707708653052
1621787142796.97,-0.162,1.168,1.684,1.4320509450543684,-4.756798908695025,-7.860247943965686
1621787142802.734,-0.161,1.164,1.681,1.3227371161741366,-4.817494405750338,-7.917846731987565
1621787142805.251,-0.15925572050924164,1.1539703929281393,1.6814360698726896,1.275,-4.844,-7.943
1621787142808.506,-0.157,1.141,1.682,1.2493884300760525,-4.854279473642945,-7.992655084546429
1621787142814.284,-0.148,1.124,1.681,1.2039280375297283,-4.872525481535687,-8.080792580299505
1621787142820.067,-0.134,1.112,1.676,1.1584273057522931,-4.890787680004181,-8.169008284765962
1621787142823.934,-0.11663743676222597,1.1039865092748735,1.668654300168634,1.128,-4.903,-8.228
1621787142825.858,-0.108,1.1,1.665,1.1320015625,-4.906078125,-8.234053645833333
1621787142831.656,-0.094,1.082,1.653,1.1440616015625,-4.915355078125,-8.2522983203125
1621787142837.459,-0.086,1.079,1.649,1.156131796875,-4.92463984375,-8.270558359375
1621787142842.684,-0.0716084727242162,1.0664074136336892,1.6400052954526352,1.167,-4.933,-8.287
1621787142843.268,-0.07,1.065,1.639,1.1596908173614542,-4.932066912854654,-8.286377941903103
1621787142849.072,-0.061,1.045,1.63,1.0870481756950043,-4.9227933841312765,-8.280195589420853
1621787142854.882,-0.054,1.026,1.607,1.0143291420695395,-4.91351010324292,-8.27400673549528
1621787142860.7,-0.044,1.004,1.583,0.9415123267365355,-4.904214339583387,-8.267809559722258
1621787142861.46,-0.044,1.0028251352371367,1.578692162536168,0.932,-4.903,-8.267
1621787142866.522,-0.044,0.995,1.55,0.8503118933139799,-4.905687108772566,-8.272374217545133
1621787142872.35,-0.037,0.974,1.527,0.7562606498101373,-4.908780899677298,-8.278561799354597
1621787142878.185,-0.028,0.944,1.496,0.6620990915099597,-4.911878319358225,-8.28475663871645
1621787142880.298,-0.023659659826988172,0.9378511847548999,1.4840640645242176,0.628,-4.913,-8.287
1621787142884.027,-0.016,0.927,1.463,0.5757228579546922,-4.928584506496526,-8.234722857954694
1621787142889.874,0.0,0.901,1.44,0.49375446232531706,-4.953020367835094,-8.152754462325317
1621787142895.726,0.005,0.883,1.424,0.4117141916152197,-4.9774776560845195,-8.07071419161522
1621787142899.201,0.011524002000166681,0.8634279939995,1.4097658138178182,0.363,-4.992,-8.022
1621787142901.585,0.016,0.85,1.4,0.28406856473556175,-4.980813857104244,-7.983791152356068
1621787142907.451,0.023,0.805,1.375,0.08985601019396855,-4.953290103355514,-7.889777431686253
1621787142913.323,0.045,0.759,1.36,-0.10455862175485564,-4.925737711248117,-7.79566589010593
1621787142918.169,0.05654395147889664,0.7103504901960784,1.3435086407444334,-0.265,-4.903,-7.718
1621787142919.2,0.059,0.7,1.34,-0.29474515992456024,-4.900886955852354,-7.688742465647974
1621787142925.083,0.079,0.641,1.318,-0.4644750009622416,-4.888829644740387,-7.521795081020746
1621787142930.974,0.086,0.567,1.297,-0.6344372810900273,-4.87675582156191,-7.354619067780301
1621787142936.869,0.087,0.513,1.269,-0.8045052153496786,-4.864674492898657,-7.187339132442939
1621787142937.198,0.08655391933815924,0.5092083143743537,1.2670483971044466,-0.814,-4.864,-7.178
1621787142942.771,0.079,0.445,1.234,-0.9371824912724901,-4.864,-7.120787278935052
1621787142948.679,0.063,0.391,1.206,-1.0677687753353537,-4.864,-7.060135829465096
1621787142954.594,0.038,0.337,1.178,-1.1985115535606963,-4.864,-6.999411695502615
1621787142956.29,0.029978060046189376,0.3195236308149126,1.1679725750577368,-1.236,-4.864,-6.982
1621787142960.514,0.01,0.276,1.143,-1.3323506137890893,-4.942499431186835,-7.0403596354304465
1621787142966.167,0.0,0.211,1.11,-1.4613026086036298,-5.04756008254405,-7.118465950579396
1621787142971.82,-0.01,0.155,1.07,-1.5902546034181704,-5.152620733901265,-7.196572265728346
1621787142974.746,-0.004824906084027808,0.12964203981173625,1.0591323027764583,-1.657,-5.207,-7.237
1621787142977.474,0.0,0.106,1.049,-1.6262201005562686,-5.2730423085151905,-7.3250066056910565
1621787142983.125,0.023,0.063,1.035,-1.562462130937099,-5.409843388960205,-7.50730487804878
1621787142988.776,0.051,0.005,1.021,-1.498704161317929,-5.54664446940522,-7.689603150406504
1621787142993.004,0.07718611483129563,-0.019689765412364453,1.013518252905344,-1.451,-5.649,-7.826
1621787142994.427,0.086,-0.028,1.011,-1.3661793925289893,-5.655860490310156,-7.851960719014564
1621787143000.077,0.122,-0.059,0.991,-1.029428921076917,-5.68309766079525,-7.955028648236569
1621787143005.726,0.15,-0.047,0.984,-0.6927221040805682,-5.710331300405248,-8.058083216306224
1621787143011.258,0.16860666436165617,-0.021538248768260007,0.99673087561587,-0.363,-5.737,-8.159
1621787143011.375,0.169,-0.021,0.997,-0.3618655516157088,-5.737628112664749,-8.156609326286212
1621787143017.022,0.173,0.017,1.007,-0.30708519435338194,-5.767958479962535,-8.041168234428314
1621787143022.669,0.154,0.042,0.988,-0.25230483709105506,-5.79828884726032,-7.925727142570415
1621787143028.316,0.122,0.077,0.941,-0.19752447982872814,-5.828619214558105,-7.810286050712517
1621787143029.504,0.11842298711407075,0.08688938856698089,0.9336355617054397,-0.186,-5.835,-7.786
1621787143033.962,0.105,0.124,0.906,-0.15251604181445838,-6.005108283920707,-7.872520592683808
1621787143039.607,0.105,0.175,0.888,-0.1101164754855376,-6.220510460307049,-7.982078596190655
1621787143045.251,0.131,0.22,0.867,-0.06772424408721607,-6.435875373104362,-8.09161764666515
1621787143047.744,0.15043101807802092,0.22750743880287172,0.8533099645359398,-0.049,-6.531,-8.14
1621787143050.896,0.175,0.237,0.836,-0.21861086039504518,-6.583560348175427,-8.224718982256444
1621787143056.539,0.227,0.257,0.785,-0.5222577837294945,-6.677656846334115,-8.376387679946435
1621787143062.181,0.271,0.271,0.742,-0.8258390224305323,-6.771732989621694,-8.528023568798126
1621787143065.975,0.2905019039376893,0.2743623972306361,0.7124109043704024,-1.03,-6.835,-8.63
1621787143067.823,0.3,0.276,0.698,-1.2149535266930136,-6.844937196061357,-8.62604540156742
1621787143073.465,0.333,0.257,0.641,-1.7796616786120973,-6.875277875276308,-8.613971049634939
1621787143079.105,0.38,0.209,0.586,-2.344149909571974,-6.905606738562529,-8.601901399959809
1621787143084.199,0.42967427062591984,0.1620352350445849,0.539035235044585,-2.854,-6.933,-8.591
1621787143084.745,0.435,0.157,0.534,-2.8642825076050977,-6.925355570147813,-8.572173717854223
1621787143090.385,0.499,0.117,0.485,-2.970467669958859,-6.846413248281315,-8.377758901649669
1621787143096.023,0.564,0.063,0.44,-3.0766160598223022,-6.767498264563595,-8.18341141233701
1621787143101.661,0.618,0.031,0.41,-3.1827644496857452,-6.688583280845874,-7.98906392302435
1621787143102.417,0.6217555651797315,0.027512689475963623,0.4067809441316587,-3.197,-6.678,-7.963
1621787143107.298,0.646,0.005,0.386,-2.9866066142956726,-6.54935181511073,-7.526668239583892
1621787143112.935,0.627,0.002,0.372,-2.7436329293795914,-6.400781918601534,-7.022768673923535
1621787143118.571,0.572,-0.005,0.358,-2.5007013378733443,-6.252237760737842,-6.5189564051691775
1621787143120.629,0.54095866730211,-0.003174039253065292,0.358,-2.412,-6.198,-6.335
1621787143124.206,0.487,0.0,0.358,-2.294491604527654,-6.145926881605065,-6.192339305831232
1621787143129.84,0.396,-0.003,0.354,-2.1094150796631084,-6.063911364733651,-5.967647738855211
1621787143135.473,0.302,-0.016,0.349,-1.924378654578617,-5.981913617831661,-5.743004854889759
1621787143138.833,0.25309563634787885,-0.021963946786844043,0.34482523724920916,-1.814,-5.933,-5.609
1621787143141.107,0.22,-0.026,0.342,-1.6839016511318243,-5.949990918774967,-5.673491078561917
1621787143146.788,0.155,-0.038,0.346,-1.3588652996005326,-5.9924408521970705,-5.834614913448735
1621787143152.469,0.115,-0.049,0.34,-1.033842916111851,-6.03488896138482,-5.995731824234354
1621787143157.168,0.09184372448760365,-0.05148102951918532,0.34578906887809907,-0.765,-6.07,-6.129
1621787143158.151,0.087,-0.052,0.347,-0.7130146544501922,-6.078940836979215,-6.153145613638479
1621787143163.833,0.077,-0.044,0.353,-0.4124913230229126,-6.130627135999149,-6.292729570871953
1621787143169.514,0.07,-0.04,0.356,-0.11203255362438336,-6.182302331148021,-6.4322835410045345
1621787143175.197,0.059,-0.021,0.367,0.18854242742589655,-6.2339975132648044,-6.571891487918722
1621787143175.527,0.059232332345233486,-0.019896421360140915,0.36775508012200886,0.206,-6.237,-6.58
1621787143180.88,0.063,-0.002,0.38,0.28326024573814523,-6.259740751575756,-6.665715140554773
1621787143186.563,0.052,0.035,0.398,0.3652882503124917,-6.283884843488205,-6.756719794686312
1621787143192.246,0.058,0.065,0.41,0.4473162548868381,-6.308028935400655,-6.84772444881785
1621787143193.887,0.058866219873695065,0.07481715856854405,0.41144369978949175,0.471,-6.315,-6.874
1621787143197.929,0.061,0.099,0.415,0.44722750781094195,-6.319402313368345,-6.869817802300073
1621787143203.614,0.073,0.131,0.429,0.413791517649405,-6.325594163398258,-6.863935544771655
1621787143209.298,0.08,0.162,0.45,0.38036127102306716,-6.331784949810543,-6.858054297679985
1621787143212.25,0.08207740217344617,0.1791385679309308,0.4593483097805077,0.363,-6.335,-6.855
1621787143214.982,0.084,0.195,0.468,0.25217551812610506,-6.292752814963508,-6.869578253991466
1621787143220.667,0.08,0.218,0.476,0.021553633861983723,-6.204837895324569,-6.899915092458424
1621787143226.353,0.082,0.237,0.473,-0.2091078659452561,-6.11690787392154,-6.930257142097497
1621787143230.615,0.08724774542643648,0.25274323627930945,0.47000128832775057,-0.382,-6.051,-6.953
1621787143232.038,0.089,0.258,0.469,-0.42910365634843634,-6.0448796235994635,-6.971980914153565
1621787143237.724,0.098,0.271,0.466,-0.6173081779396323,-6.020425417669029,-7.0478199072289645
1621787143243.409,0.117,0.281,0.464,-0.8054722949534151,-5.995976461675461,-7.123642618854584
1621787143248.984,0.13758266804017513,0.28394038114859643,0.45615898360374285,-0.99,-5.972,-7.198
1621787143249.097,0.138,0.284,0.456,-0.9937653519788202,-5.971754843527256,-7.197383965786437
1621787143254.783,0.155,0.279,0.44,-1.1831715022741158,-5.959422890503021,-7.166395981264001
1621787143260.293,0.173,0.267,0.426,-1.366714113094834,-5.947472703821872,-7.136367307039576
1621787143265.801,0.183,0.258,0.415,-1.5501916638381643,-5.935526753105695,-7.106349277034824
1621787143266.966,0.18384639943242284,0.2544028024122029,0.4114028024122029,-1.589,-5.933,-7.1
1621787143271.307,0.187,0.241,0.398,-1.6393101563143868,-5.942524738331365,-7.076066042141699
1621787143276.809,0.185,0.211,0.386,-1.703080684596577,-5.954597799511003,-7.045728606356968
1621787143282.308,0.183,0.188,0.365,-1.76681442817505,-5.9666638965962475,-7.015408670091481
1621787143284.74,0.18167251565901116,0.1795925991737373,0.35659259917373726,-1.795,-5.972,-7.002
1621787143287.804,0.18,0.169,0.346,-1.8119211931099004,-5.972,-7.022374497826206
1621787143293.299,0.178,0.15,0.328,-1.8422687799240547,-5.972,-7.058915469704474
1621787143298.79,0.183,0.133,0.314,-1.872593445600132,-5.972,-7.095428842661383
1621787143302.485,0.17963352462298143,0.1195340984919258,0.29851421326571465,-1.893,-5.972,-7.12
1621787143304.278,0.178,0.113,0.291,-1.8889519347370742,-5.968053136368647,-7.127893727262705
1621787143309.765,0.175,0.093,0.265,-1.8765641053908058,-5.955975002756036,-7.152049994487929
1621787143315.247,0.175,0.084,0.237,-1.8641867489802668,-5.9439070802557605,-7.17618583948848
1621787143320.202,0.17771251002405772,0.06139574979951884,0.2116832397754611,-1.853,-5.933,-7.198
1621787143320.727,0.178,0.059,0.209,-1.8393428571428572,-5.933593788819875,-7.189568198757764
1621787143326.204,0.183,0.044,0.19,-1.696904761904762,-5.939786749482401,-7.1016281573498965
1621787143331.68,0.185,0.037,0.164,-1.5544984126984127,-5.945978329882678,-7.013707715665976
1621787143337.152,0.183,0.03,0.15,-1.4121873015873017,-5.9521657694962045,-6.925846073153899
1621787143337.89,0.18286509530824516,0.030944332842283824,0.1474368108566582,-1.393,-5.953,-6.914
1621787143342.621,0.182,0.037,0.131,-1.2536906657819067,-5.921387497235125,-6.819430394271179
1621787143348.087,0.178,0.033,0.115,-1.092750608272506,-5.884866484184915,-6.710176855231143
1621787143353.55,0.155,0.052,0.098,-0.9318896261888963,-5.848363415173634,-6.60097699623977
1621787143355.55,0.14877507598784195,0.056027892007866974,0.09470445199356338,-0.873,-5.835,-6.561
1621787143359.012,0.138,0.063,0.089,-0.8052117381426919,-5.819584593513499,-6.561
1621787143364.47,0.113,0.084,0.079,-0.6983376632426933,-5.795280868026035,-6.561
1621787143369.852,0.094,0.099,0.063,-0.5929503407712999,-5.7713152378430355,-6.561
1621787143373.067,0.0838395061728395,0.11095352214960058,0.06180464778503994,-0.53,-5.757,-6.561
1621787143375.231,0.077,0.119,0.061,-0.544585713682967,-5.7618619045609885,-6.607375089658664
1621787143380.605,0.075,0.129,0.044,-0.5808064638622843,-5.773935487954095,-6.722538500485212
1621787143385.976,0.084,0.145,0.028,-0.6170074680393233,-5.7860024893464415,-6.837639129150668
1621787143390.426,0.08648787478957186,0.15661008235133536,0.014731334455616725,-0.647,-5.796,-6.933
1621787143391.342,0.087,0.159,0.012,-0.6553048639503737,-5.8001259833638805,-6.945959819540392
1621787143396.705,0.106,0.169,0.002,-0.7039277174679262,-5.82428256027069,-7.021836247004089
1621787143402.064,0.115,0.175,-0.014,-0.7525129423375159,-5.848420442689976,-7.09765395460313
1621787143407.419,0.131,0.183,-0.024,-0.801062752009023,-5.872540730297476,-7.173416396447202
1621787143407.743,0.1315448946071722,0.18330271922620678,-0.024968701523861665,-0.804,-5.874,-7.178
1621787143412.77,0.14,0.188,-0.04,-0.8412419211258849,-5.879819050175919,-7.1951661980189625
1621787143418.118,0.143,0.187,-0.049,-0.8808604089245595,-5.886009438894463,-7.213427844738664
1621787143423.461,0.147,0.201,-0.065,-0.9204427237145159,-5.892194175580393,-7.23167281796216
1621787143425.021,0.14524683341716585,0.19778586126480407,-0.06733755544377887,-0.932,-5.894,-7.237
1621787143428.8,0.141,0.19,-0.073,-0.8997698975906174,-5.911101686992734,-7.198411578067678
1621787143434.135,0.136,0.19,-0.079,-0.8542700463179366,-5.935244465219054,-7.143935565659571
1621787143439.468,0.131,0.192,-0.084,-0.808786852504993,-5.959378404793269,-7.089479496876726
1621787143442.257,0.12995283926852744,0.19357074109720887,-0.084,-0.785,-5.972,-7.061
1621787143444.795,0.129,0.195,-0.084,-0.7227085285848173,-5.983661199625118,-7.046534208059981
1621787143450.119,0.122,0.199,-0.084,-0.5920312686376417,-6.008124478146034,-7.016187356223908
1621787143455.438,0.106,0.201,-0.077,-0.46147385760131776,-6.032565320496436,-6.985868336599358
1621787143459.45,0.09468146753604555,0.21005482597116357,-0.07398172467627881,-0.363,-6.051,-6.963
1621787143460.755,0.091,0.213,-0.073,-0.3181965360695632,-6.063627122262228,-6.970454566154809
1621787143466.067,0.075,0.213,-0.051,-0.13581416596695464,-6.115028605177395,-7.000800019924005
1621787143471.375,0.052,0.22,-0.03,0.04643408712482383,-6.166392289410392,-7.031123158808544
1621787143476.605,0.02439560034976299,0.21605651433568043,-0.0023956003497629906,0.226,-6.217,-7.061
1621787143476.68,0.024,0.216,-0.002,0.22668328316046282,-6.218589947354154,-7.062843988529198
1621787143481.981,0.002,0.208,0.021,0.27500943059736627,-6.331041175043872,-7.193262630009559
1621787143487.277,-0.014,0.206,0.038,0.32329106447332756,-6.4433888231013965,-7.323561141944044
1621787143492.57,-0.021,0.194,0.063,0.37154376453467636,-6.555669144397997,-7.45378156967371
1621787143493.717,-0.0186144578313253,0.1916144578313253,0.06755421686746987,0.382,-6.58,-7.482
1621787143497.859,-0.01,0.183,0.084,0.36792941613876534,-6.632400795069426,-7.603540733008251
1621787143503.144,0.003,0.169,0.101,0.3499748037351103,-6.699266248158899,-7.758631436701892
1621787143508.425,0.035,0.141,0.106,0.33203429094393044,-6.766079192346742,-7.9136003489153595
1621787143510.79,0.05157965584235359,0.13427851790174852,0.11182528448515126,0.324,-6.796,-7.983
1621787143513.703,0.072,0.126,0.119,0.3004016855140388,-6.7590635077611045,-7.959401685514038
1621787143518.976,0.106,0.103,0.112,0.2576810422668444,-6.692196413982887,-7.916681042266844
1621787143524.245,0.145,0.099,0.112,0.21499402330481146,-6.625381949520574,-7.873994023304811
1621787143527.824,0.16879156039879434,0.08880361697194529,0.10928096452585208,0.186,-6.58,-7.845
1621787143529.51,0.18,0.084,0.108,0.17445595988170245,-6.535501178689297,-7.777314431443144
1621787143534.773,0.211,0.075,0.112,0.1384213707084994,-6.396598617004558,-7.566034703470347
1621787143540.03,0.225,0.072,0.106,0.10242689983284044,-6.257850699355649,-7.354990199019902
1621787143544.912,0.22955325834509768,0.08474912336627351,0.10144674165490232,0.069,-6.129,-7.159
1621787143545.391,0.23,0.086,0.101,0.07007964951391928,-6.119227787732987,-7.136742610020741
1621787143550.75,0.22,0.079,0.096,0.08215829723590085,-6.009900540403256,-6.887736641598352
1621787143556.105,0.201,0.094,0.105,0.0942281404766272,-5.9006529849166816,-6.638912180943378
1621787143561.458,0.168,0.112,0.105,0.10629358147672596,-5.791445275351685,-6.390178474172111
1621787143562.215,0.16318873779319157,0.11369809254357945,0.10613206169571963,0.108,-5.776,-6.355
1621787143566.808,0.134,0.124,0.113,0.07157470533367251,-5.742233485966251,-6.253168701772238
1621787143572.156,0.087,0.131,0.117,0.029162751914977803,-5.702917295570819,-6.134600977981289
1621787143577.502,0.042,0.14,0.124,-0.013233712089092423,-5.6636154639758045,-6.016076556714435
1621787143579.49,0.02190393492070746,0.14186074676660115,0.12251140258671907,-0.029,-5.649,-5.972
1621787143582.844,-0.012,0.145,0.12,-0.07099796195652175,-5.666110280797102,-6.027413977581522
1621787143588.185,-0.068,0.15,0.122,-0.1378773777173913,-5.69335745018116,-6.1156576511548915
1621787143593.523,-0.119,0.141,0.12,-0.2047170516304348,-5.720588428442029,-6.2038488875679345
1621787143596.74,-0.1388957265739385,0.14039709919472915,0.11939709919472913,-0.245,-5.737,-6.257
1621787143598.859,-0.152,0.14,0.119,-0.2570545083477423,-5.800962697355367,-6.3232997959125825
1621787143604.191,-0.18,0.134,0.113,-0.2873887014938065,-5.9619196405793815,-6.4901378582159355
1621787143609.521,-0.188,0.126,0.105,-0.31771178321380994,-6.122817625216134,-6.656914807675955
1621787143613.966,-0.18299532710280372,0.10931775700934579,0.09916121495327103,-0.343,-6.257,-6.796
1621787143614.85,-0.182,0.106,0.098,-0.3566210910329752,-6.272625704430281,-6.820723565233438
1621787143620.175,-0.169,0.089,0.087,-0.4386673811517879,-6.366746731585447,-6.969645322015132
1621787143625.498,-0.138,0.066,0.072,-0.5206835777250983,-6.4608332363336975,-7.118512456172725
1621787143630.818,-0.098,0.051,0.054,-0.6026546339801553,-6.554867957471575,-7.2672976563941685
1621787143631.165,-0.09558621797814709,0.04949954090533468,0.0528909650169865,-0.608,-6.561,-7.277
1621787143636.136,-0.061,0.028,0.037,-0.6192891526869491,-6.535237574637475,-7.3024729599090135
1621787143641.452,-0.031,0.003,0.017,-0.6313617429627524,-6.507687304520899,-7.329713676428775
1621787143646.764,0.002,-0.012,0.0,-0.6434254620415126,-6.480157278930907,-7.3569343758885415
1621787143648.338,0.007038107934173026,-0.01614903006343661,-0.005038107934173026,-0.647,-6.472,-7.365
1621787143652.075,0.019,-0.026,-0.017,-0.5807463088203887,-6.45064190218552,-7.270850017797395
1621787143657.383,0.042,-0.045,-0.028,-0.48663983768776253,-6.42030494767566,-7.137119769345768
1621787143662.688,0.044,-0.056,-0.038,-0.39258963479746567,-6.389986132270235,-7.003469481027977
1621787143665.485,0.040307086614173225,-0.06233070866141733,-0.04274803149606299,-0.343,-6.374,-6.933
1621787143667.99,0.037,-0.068,-0.047,-0.28858038069437514,-6.3539583660084125,-6.889990946032651
1621787143673.291,0.03,-0.065,-0.052,-0.17341340272331932,-6.311544720895416,-6.798971882797462
1621787143678.589,0.016,-0.07,-0.059,-0.058310073429813924,-6.269154516290012,-6.7080031225493695
1621787143682.608,0.0015791682036149033,-0.06848201770564367,-0.062035964588712654,0.029,-6.237,-6.639
1621787143683.884,-0.003,-0.068,-0.063,0.055349227429811784,-6.23408889555308,-6.639
1621787143689.176,-0.023,-0.07,-0.065,0.1646176134578585,-6.222016750921087,-6.639
1621787143694.467,-0.04,-0.068,-0.066,0.2738658355467969,-6.209946834033074,-6.639
1621787143699.704,-0.0607983286393647,-0.06601920679625098,-0.066,0.382,-6.198,-6.639
1621787143699.755,-0.061,-0.066,-0.066,0.3820891008524553,-6.198056430539888,-6.639582125569374
1621787143705.04,-0.068,-0.059,-0.066,0.3913624434195308,-6.203929547499036,-6.700167963674268
1621787143710.323,-0.077,-0.058,-0.063,0.4006319306612597,-6.209800222752131,-6.760728613653564
1621787143715.627,-0.086,-0.061,-0.059,0.409938257678523,-6.215694229863065,-6.82152995016635
1621787143716.802,-0.08622166444065767,-0.06055667111868466,-0.05944332888131534,0.412,-6.217,-6.835
1621787143720.928,-0.087,-0.059,-0.061,0.4047707751097929,-6.221819483260138,-6.880062168482291
1621787143726.227,-0.087,-0.059,-0.061,0.39548614042092056,-6.228009239719386,-6.937936391376262
1621787143731.525,-0.087,-0.059,-0.063,0.38620364455598016,-6.234197570296013,-6.995797282267724
1621787143733.924,-0.08654691318179722,-0.0608123472728111,-0.06526543409101387,0.382,-6.237,-7.022
1621787143736.82,-0.086,-0.063,-0.068,0.37878183142232946,-6.246993260320135,-7.041817143346708
1621787143742.112,-0.084,-0.077,-0.068,0.3729011180443505,-6.265254422914912,-7.078029957305842
1621787143747.403,-0.077,-0.075,-0.072,0.36702148986906175,-6.283512215669756,-7.114236088701041
1621787143751.022,-0.06878591549295775,-0.075,-0.0754225352112676,0.363,-6.296,-7.139
1621787143752.69,-0.065,-0.075,-0.077,0.36778711873132086,-6.309384393187571,-7.139
1621787143757.976,-0.051,-0.082,-0.08,0.3829584733523044,-6.351802262229913,-7.139
1621787143763.26,-0.044,-0.084,-0.086,0.3981235217571606,-6.394202499606755,-7.139
1621787143768.095,-0.02752031806204059,-0.08674661365632656,-0.08233784845823125,0.412,-6.433,-7.139
1621787143768.541,-0.026,-0.087,-0.082,0.4130202757850423,-6.434020275785042,-7.1369594484299155
1621787143773.819,-0.019,-0.094,-0.084,0.4250932600197603,-6.446093260019761,-7.112813479960479
1621787143779.096,-0.002,-0.089,-0.084,0.4371634520383178,-6.458163452038318,-7.088673095923364
1621787143784.371,0.007,-0.091,-0.082,0.4492297349542506,-6.470229734954251,-7.064540530091499
1621787143785.145,0.008027600259331295,-0.09026599981476335,-0.08258720014818931,0.451,-6.472,-7.061
1621787143789.643,0.014,-0.086,-0.086,0.46658803453121867,-6.446108010439671,-7.032465970688617
1621787143794.912,0.033,-0.091,-0.089,0.4848479651246164,-6.415777956233688,-6.999041012992228
1621787143800.179,0.04,-0.086,-0.087,0.5031002810680586,-6.385460550090343,-6.965629993977113
1621787143802.17,0.04151228558182661,-0.0852438572090867,-0.08586578581363004,0.51,-6.374,-6.953
1621787143805.445,0.044,-0.084,-0.084,0.5138626547653325,-6.3550729916498705,-6.934072991649871
1621787143810.708,0.037,-0.091,-0.079,0.5200696803915923,-6.324658566081197,-6.903658566081198
1621787143815.968,0.035,-0.077,-0.079,0.5262732507918226,-6.294261071120069,-6.873261071120069
1621787143819.128,0.028296308503625578,-0.077,-0.07656229400131839,0.53,-6.276,-6.855
1621787143821.153,0.024,-0.077,-0.075,0.5180198258129459,-6.268860300231958,-6.855
1621787143826.334,0.016,-0.072,-0.072,0.48737108845026045,-6.250594891096619,-6.855
1621787143831.512,0.007,-0.066,-0.068,0.4567396822618058,-6.232339810640874,-6.855
1621787143835.863,0.0027961032221540784,-0.066,-0.07136311742227673,0.431,-6.217,-6.855
1621787143836.687,0.002,-0.066,-0.072,0.42956930902924967,-6.217986683428103,-6.856924032684803
1621787143841.859,-0.003,-0.066,-0.068,0.42058923272573123,-6.224179839499495,-6.869000687024017
1621787143847.028,-0.014,-0.063,-0.068,0.41161381941500635,-6.230369779713788,-6.881071070441888
1621787143852.193,-0.017,-0.066,-0.065,0.4026456125476897,-6.236554749967111,-6.893131762435866
1621787143852.565,-0.017648299673650853,-0.06578390010878306,-0.065,0.402,-6.237,-6.894
1621787143857.355,-0.026,-0.063,-0.065,0.3962531597369693,-6.242746840263031,-6.930779777683397
1621787143862.515,-0.031,-0.066,-0.072,0.3900625649887963,-6.248937435011204,-6.9703995840717035
1621787143867.671,-0.031,-0.073,-0.068,0.383876656756638,-6.255123343243362,-7.009989396757517
1621787143869.235,-0.02948225707111385,-0.073,-0.06921419434310892,0.382,-6.257,-7.022
1621787143872.824,-0.026,-0.073,-0.072,0.38631458299702087,-6.252685417002979,-7.034512290691361
1621787143877.975,-0.021,-0.084,-0.075,0.39250733038845925,-6.24649266961154,-7.052471258126532
1621787143883.121,-0.017,-0.079,-0.072,0.39869391408990185,-6.240306085910098,-7.070412350860716
1621787143885.871,-0.019138497318334995,-0.08274237030708624,-0.07360387298875125,0.402,-6.237,-7.08
1621787143888.265,-0.021,-0.086,-0.075,0.402,-6.2284944717264095,-7.085766459846503
1621787143893.405,-0.024,-0.094,-0.079,0.402,-6.2102307907195575,-7.098148616461317
1621787143898.544,-0.024,-0.093,-0.077,0.402,-6.1919714470550185,-7.110527832505072
1621787143902.476,-0.02553178943363926,-0.09146821056636074,-0.07853178943363925,0.402,-6.178,-7.12
1621787143903.678,-0.026,-0.091,-0.079,0.3991713149171271,-6.178,-7.121378077348067
1621787143908.809,-0.026,-0.093,-0.08,0.3870952486187845,-6.178,-7.127261289134439
1621787143913.938,-0.028,-0.099,-0.08,0.3750243535911602,-6.178,-7.133141981583794
1621787143919.047,-0.028,-0.099,-0.08199380716463416,0.363,-6.178,-7.139
1621787143919.063,-0.028,-0.099,-0.082,0.363,-6.177952727272727,-7.13896237476809
1621787143924.156,-0.024,-0.099,-0.08,0.363,-6.162781090909091,-7.126886990723563
1621787143929.248,-0.024,-0.106,-0.087,0.363,-6.147612363636363,-7.114813922077922
1621787143934.335,-0.028,-0.105,-0.086,0.363,-6.132458909090909,-7.102753009276437
1621787143935.496,-0.028,-0.10522843419788665,-0.08782747358309317,0.363,-6.129,-7.1
1621787143939.418,-0.028,-0.106,-0.094,0.35368144159688236,-6.119681441596882,-7.095221252100965
1621787143944.498,-0.021,-0.108,-0.099,0.3416109384063899,-6.107610938406389,-7.089031250464815
1621787143949.576,-0.021,-0.106,-0.101,0.32954565602177566,-6.095545656021775,-7.082843926165014
1621787143951.91,-0.021920159776697628,-0.10139920111651186,-0.10330039944174407,0.324,-6.09,-7.08
1621787143954.649,-0.023,-0.096,-0.106,0.31413368808597536,-6.086655487486771,-7.0636118886851795
1621787143959.719,-0.023,-0.098,-0.106,0.2958705898135313,-6.080464606716451,-7.033276572910611
1621787143964.785,-0.026,-0.098,-0.11,0.2776224418310006,-6.074278793841017,-7.002966089820984
1621787143968.289,-0.02876777708142506,-0.09869194427035627,-0.11138388854071253,0.265,-6.07,-6.982
1621787143969.849,-0.03,-0.099,-0.112,0.2706323109789803,-6.073818515917953,-6.9839092579589765
1621787143974.908,-0.033,-0.099,-0.11,0.2888963353601147,-6.086200905328892,-6.9901004526644455
1621787143979.965,-0.037,-0.098,-0.106,0.3071541897605211,-6.0985791117020485,-6.996289555851024
1621787143984.631,-0.037,-0.09615280529647707,-0.10138201324119268,0.324,-6.11,-7.002
1621787143985.017,-0.037,-0.096,-0.101,0.3226034614405701,-6.11,-7.003846271315856
1621787143990.067,-0.044,-0.091,-0.099,0.30433274444926867,-6.11,-7.028000778524696
1621787143995.113,-0.045,-0.089,-0.106,0.28607527734942284,-6.11,-7.0521377689278815
1621787144000.155,-0.037,-0.087,-0.098,0.26783282679322684,-6.11,-7.076254906951327
1621787144000.938,-0.03606791319511722,-0.08731069560162759,-0.09846604340244139,0.265,-6.11,-7.08
1621787144005.195,-0.031,-0.089,-0.101,0.23412508628192433,-6.117587902523934,-7.090466072446805
1621787144010.23,-0.026,-0.091,-0.103,0.19760886528015364,-6.126562228024369,-7.102844452447406
1621787144015.262,-0.014,-0.096,-0.099,0.1611138921400918,-6.13553133159269,-7.11521562978302
1621787144017.208,-0.012452458379847596,-0.09483934378488569,-0.09977377081007621,0.147,-6.139,-7.12
1621787144020.292,-0.01,-0.093,-0.101,0.14319873010141132,-6.125885618849869,-7.123611206403659
1621787144025.315,-0.002,-0.098,-0.096,0.13700752309590442,-6.10452595468087,-7.129492853058891
1621787144030.334,0.0,-0.096,-0.099,0.13082113087177635,-6.083182901507628,-7.135369925671813
1621787144033.434,0.0018537226277372263,-0.09723581508515815,-0.09838209245742092,0.127,-6.07,-7.139
1621787144035.351,0.003,-0.098,-0.098,0.1247498717987391,-6.065381315797412,-7.134381315797412
1621787144040.364,0.0,-0.106,-0.101,0.11886578082109137,-6.0533034448432925,-7.1223034448432925
1621787144045.373,0.003,-0.103,-0.099,0.11298627492383337,-6.041234985369973,-7.110234985369973
1621787144049.621,0.000453658536585366,-0.10130243902439025,-0.099,0.108,-6.031,-7.1
1621787144050.378,0.0,-0.101,-0.099,0.10982755388940955,-6.032827553889409,-7.100937207122774
1621787144055.381,0.0,-0.094,-0.101,0.12190886416543217,-6.044908864165432,-7.107132750854068
1621787144060.379,0.002,-0.098,-0.105,0.1339772047041751,-6.056977204704175,-7.113321643438039
1621787144065.374,0.003,-0.098,-0.101,0.1460390603742782,-6.069039060374278,-7.119507210448348
1621787144065.772,0.002920281703917445,-0.09768112681566979,-0.10076084511175235,0.147,-6.07,-7.12
1621787144070.366,0.002,-0.094,-0.098,0.147,-6.064584215708551,-7.108598348860108
1621787144075.354,0.002,-0.103,-0.101,0.147,-6.058703900628645,-7.096218738165568
1621787144080.339,0.005,-0.096,-0.096,0.147,-6.052827039309248,-7.083846398545785
1621787144081.889,0.0034442701695912166,-0.096,-0.0981780217625723,0.147,-6.051,-7.08
1621787144085.32,0.0,-0.096,-0.103,0.13440910471331388,-6.038409104713314,-7.088536200194364
1621787144090.298,0.0,-0.093,-0.098,0.11614182458697764,-6.020141824586978,-7.100920796890184
1621787144095.272,-0.009,-0.089,-0.096,0.09788977465986394,-6.001889774659864,-7.113295068027211
1621787144097.967,-0.010626811416220464,-0.09008454094414697,-0.09491545905585302,0.088,-5.992,-7.12
1621787144100.242,-0.012,-0.091,-0.094,0.07140402794903411,-5.983631091017034,-7.131063981367311
1621787144105.209,-0.016,-0.093,-0.098,0.03516824222496232,-5.965358344369853,-7.155221171850025
1621787144110.174,-0.028,-0.094,-0.093,-0.0010532949719139623,-5.9470927828774105,-7.179368863314609
1621787144114.005,-0.02954469383736956,-0.09554469383736956,-0.09377234691868477,-0.029,-5.933,-7.198
1621787144115.134,-0.03,-0.096,-0.094,-0.030408708100452313,-5.934408708100452,-7.198
1621787144120.09,-0.035,-0.099,-0.094,-0.036591794465680824,-5.940591794465681,-7.198
1621787144125.058,-0.045,-0.101,-0.096,-0.04278980552213575,-5.946789805522136,-7.198
1621787144130.021,-0.049,-0.103,-0.094,-0.04898142028235079,-5.952981420282351,-7.198
1621787144130.036,-0.049006006301693585,-0.10298798739661283,-0.09401201260338717,-0.049,-5.953,-7.198
1621787144134.98,-0.051,-0.099,-0.098,0.011518952215411826,-6.010431250571768,-7.149523084194798
1621787144139.937,-0.059,-0.103,-0.093,0.07219629189156222,-6.068012807611381,-7.1009192968011465
1621787144144.89,-0.061,-0.103,-0.087,0.13282282804257006,-6.125546153142439,-7.052356204067942
1621787144146.048,-0.061,-0.10417008681925809,-0.08512786108918705,0.147,-6.139,-7.041
1621787144149.839,-0.061,-0.108,-0.079,0.147,-6.143745938841939,-7.031745419258218
1621787144154.785,-0.068,-0.103,-0.072,0.147,-6.149937542980271,-7.019671791188472
1621787144159.729,-0.065,-0.105,-0.063,0.147,-6.1561270076562185,-7.007602335070373
1621787144162.024,-0.06546465645081562,-0.10639396935244685,-0.06392931290163124,0.147,-6.159,-7.002
1621787144164.668,-0.066,-0.108,-0.065,0.1274294093324553,-6.141087933965298,-7.034507082803718
1621787144169.604,-0.059,-0.106,-0.068,0.09089402594220432,-6.107648769506424,-7.095192973858712
1621787144174.536,-0.051,-0.106,-0.07,0.05438936277737791,-6.074237721864041,-7.155827838098593
1621787144177.966,-0.04473823908091512,-0.1087830048529266,-0.07,0.029,-6.051,-7.198
1621787144179.466,-0.042,-0.11,-0.07,0.025321184020634387,-6.045434611723524,-7.205451960573587
1621787144184.391,-0.026,-0.101,-0.086,0.013242285135259622,-6.027161405717444,-7.229919473700372
1621787144189.313,-0.009,-0.101,-0.086,0.001171170202966195,-6.008899975435257,-7.254371219332453
1621787144193.868,-0.002518016676593211,-0.1056299880881477,-0.09340798094103633,-0.01,-5.992,-7.277
1621787144194.232,-0.002,-0.106,-0.094,-0.010435884416543575,-5.9915411742983755,-7.273834102658789
1621787144199.147,0.005,-0.103,-0.096,-0.01632134724273757,-5.985345950270803,-7.231087056868538
1621787144204.059,0.012,-0.108,-0.101,-0.02220330194485475,-5.979154419005416,-7.188365491137371
1621787144208.968,0.016,-0.108,-0.103,-0.02808145617922206,-5.972966888232398,-7.145671528803545
1621787144209.735,0.015061669404210842,-0.10878194216315763,-0.10378194216315763,-0.029,-5.972,-7.139
1621787144213.873,0.01,-0.113,-0.108,-0.0034441572428648357,-5.972,-7.098058496807447
1621787144218.774,0.012,-0.101,-0.106,0.026823586429725366,-5.972,-7.049568336025849
1621787144223.697,0.007,-0.105,-0.106,0.05722854065697362,-5.972,-7.000858358335257
1621787144225.603,0.004287083002382844,-0.10034928514694201,-0.10561244042891182,0.069,-5.972,-6.982
1621787144228.615,0.0,-0.093,-0.105,0.069,-5.97939946788878,-6.969098363681103
1621787144233.53,-0.012,-0.091,-0.096,0.069,-5.991474209522638,-6.948044968011811
1621787144238.442,-0.012,-0.086,-0.098,0.069,-6.0035411540354335,-6.927005167322834
1621787144241.478,-0.016329222200119356,-0.08476307937139448,-0.098,0.069,-6.011,-6.914
1621787144243.351,-0.019,-0.084,-0.098,0.06427010989349732,-6.017976587907092,-6.91861164285384
1621787144248.256,-0.021,-0.072,-0.098,0.0518837410027589,-6.036246482020931,-6.93068835252231
1621787144253.158,-0.023,-0.068,-0.101,0.03950538678503722,-6.054504554492071,-6.942757247884589
1621787144257.318,-0.017904814113425697,-0.07394438353433669,-0.09845240705671285,0.029,-6.07,-6.953
1621787144258.057,-0.017,-0.075,-0.098,0.03086960349701117,-6.073225066032345,-6.953467400874253
1621787144262.953,-0.021,-0.073,-0.098,0.04325989712855841,-6.094598322546764,-6.95656497428214
1621787144267.845,-0.024,-0.072,-0.093,0.05564030521616905,-6.115954526497892,-6.959660076304043
1621787144272.734,-0.024,-0.065,-0.096,0.06801268129933119,-6.137296875241346,-6.962753170324833
1621787144273.124,-0.024319376436494455,-0.06484031178175277,-0.09576046767262916,0.069,-6.139,-6.963
1621787144277.62,-0.028,-0.063,-0.093,0.08553397727624532,-6.150117674375407,-6.968416302900839
1621787144282.502,-0.026,-0.063,-0.094,0.10348648648648649,-6.162189189189189,-6.974297297297298
1621787144287.381,-0.037,-0.058,-0.094,0.12142911984149098,-6.174254063341692,-6.980175056499799
1621787144288.896,-0.035757509010812975,-0.05737875450540649,-0.09027252703243893,0.127,-6.178,-6.982
1621787144292.258,-0.033,-0.056,-0.082,0.127,-6.194875440147673,-6.990544526657049
1621787144297.13,-0.038,-0.063,-0.087,0.127,-6.21932895900228,-7.002926055191028
1621787144302.0,-0.04,-0.059,-0.082,0.127,-6.243773899824716,-7.015303240417579
1621787144304.635,-0.03837511918502534,-0.05845837306167512,-0.08416650775329954,0.127,-6.257,-7.022
1621787144306.865,-0.037,-0.058,-0.086,0.127,-6.262537995149555,-7.030235992786518
1621787144311.729,-0.033,-0.068,-0.082,0.127,-6.274617421180275,-7.0482002673963065
1621787144316.588,-0.031,-0.068,-0.077,0.127,-6.286684114793856,-7.066145606616504
1621787144320.339,-0.028682620280528884,-0.06568262028052889,-0.07854491981298074,0.127,-6.296,-7.08
1621787144321.444,-0.028,-0.065,-0.079,0.13116044497070922,-6.294589679670946,-7.08
1621787144326.298,-0.026,-0.066,-0.084,0.14943661971830985,-6.288394366197183,-7.08
1621787144331.147,-0.024,-0.075,-0.089,0.16769349058955502,-6.2822055964103205,-7.08
1621787144335.993,-0.012,-0.079,-0.086,0.18593933067431134,-6.2760205658731145,-7.08
1621787144336.009,-0.011993347109520689,-0.07900332644523965,-0.08600997933571895,0.186,-6.276,-7.08
1621787144340.837,-0.01,-0.08,-0.089,0.1983514623444356,-6.2821757311722175,-7.040784107056417
1621787144345.677,-0.01,-0.084,-0.086,0.21073415468215675,-6.2883670773410785,-7.001469058884153
1621787144350.513,-0.01,-0.075,-0.087,0.2231062288221608,-6.29455311441108,-6.96218772348964
1621787144351.644,-0.011404223075368761,-0.075,-0.08793614871691251,0.226,-6.296,-6.953
1621787144355.346,-0.016,-0.075,-0.091,0.23976168121929084,-6.286746455731857,-6.9482545926830035
1621787144360.177,-0.017,-0.075,-0.101,0.2577209338716239,-6.2746704065345975,-6.942061746940819
1621787144365.003,-0.023,-0.075,-0.103,0.2756611272806935,-6.262607173035396,-6.9358754733514845
1621787144367.246,-0.02532501644820082,-0.0736049901310795,-0.10206999342071967,0.284,-6.257,-6.933
1621787144369.827,-0.028,-0.072,-0.101,0.2775342523760233,-6.263465747623976,-6.916752736739751
1621787144374.648,-0.035,-0.075,-0.101,0.2654560082807942,-6.275543991719206,-6.886402277218406
1621787144379.464,-0.049,-0.066,-0.101,0.25338999717700195,-6.287610002822998,-6.856082557008877
1621787144382.813,-0.05734790546708591,-0.066,-0.10447829394461913,0.245,-6.296,-6.835
1621787144384.278,-0.061,-0.066,-0.106,0.2505649529258287,-6.290435047074172,-6.842451377646449
1621787144389.089,-0.068,-0.075,-0.112,0.2688390676327743,-6.272160932367226,-6.866920107508291
1621787144393.896,-0.072,-0.08,-0.122,0.28709741760055324,-6.253902582399447,-6.891367728651588
1621787144398.346,-0.06644101052203528,-0.09297097544858435,-0.12570599298530982,0.304,-6.237,-6.914
1621787144398.699,-0.066,-0.094,-0.126,0.30623232514177695,-6.238343950850662,-6.909968147448015
1621787144403.5,-0.072,-0.089,-0.124,0.33659102079395087,-6.256621124763705,-6.855136625708885
1621787144408.298,-0.073,-0.103,-0.12,0.366931190926276,-6.274887145557656,-6.800338563327032
1621787144413.091,-0.084,-0.101,-0.119,0.3972389413988658,-6.293133648393195,-6.745599054820416
1621787144413.844,-0.08478577252344069,-0.10068569099062373,-0.12025723603750509,0.402,-6.296,-6.737
1621787144417.882,-0.089,-0.099,-0.127,0.4354199434876636,-6.280595494798655,-6.721595494798655
1621787144422.67,-0.099,-0.101,-0.136,0.4750450046567428,-6.262330818166033,-6.703330818166033
1621787144427.454,-0.108,-0.094,-0.134,0.5146397575336628,-6.244080111761828,-6.6850801117618275
1621787144429.31,-0.10955277536638922,-0.09128264310881887,-0.134,0.53,-6.237,-6.678
1621787144432.235,-0.112,-0.087,-0.134,0.552175454416022,-6.248182494107225,-6.659425687754101
1621787144437.012,-0.115,-0.08,-0.129,0.5883898723363865,-6.266444465537153,-6.6290922436840525
1621787144441.787,-0.126,-0.073,-0.127,0.6245913340610317,-6.284699903500862,-6.598769651812128
1621787144444.743,-0.12785861221983422,-0.0767172244396684,-0.13133676184627982,0.647,-6.296,-6.58
1621787144446.558,-0.129,-0.079,-0.134,0.6493578473345385,-6.286686503028573,-6.58459780230235
1621787144451.325,-0.138,-0.072,-0.126,0.6555497732534171,-6.262228395649003,-6.596672057844163
1621787144456.091,-0.143,-0.077,-0.131,0.6617407477880316,-6.237774046237275,-6.608744458186662
1621787144460.14,-0.14640167170914312,-0.07104707450899954,-0.131,0.667,-6.217,-6.619
1621787144460.852,-0.147,-0.07,-0.131,0.6651921432771307,-6.215192143277131,-6.620854212023455
1621787144465.61,-0.155,-0.065,-0.127,0.6531135283741478,-6.203113528374147,-6.633242535000874
1621787144470.365,-0.161,-0.065,-0.131,0.6410429704260493,-6.191042970426049,-6.645622594434821
1621787144475.116,-0.169,-0.079,-0.138,0.6289823287301158,-6.1789823287301155,-6.657992483353727
1621787144475.503,-0.16948899629781983,-0.07908149938296997,-0.13816299876593996,0.628,-6.178,-6.659
1621787144479.864,-0.175,-0.08,-0.14,0.6445029308697038,-6.1947874641605605,-6.6476186683657215
1621787144484.61,-0.18,-0.079,-0.145,0.6624627906976744,-6.213056976744186,-6.635232558139535
1621787144489.351,-0.182,-0.084,-0.14,0.6804032494424976,-6.2313067537432305,-6.622859827970691
1621787144490.83,-0.1823121554078425,-0.08680939867058278,-0.14218508785489772,0.686,-6.237,-6.619
1621787144494.089,-0.183,-0.093,-0.147,0.6985724889853777,-6.241261860673009,-6.6002478130387585
1621787144498.824,-0.187,-0.099,-0.15,0.716838340463572,-6.247453674733414,-6.5730038311729775
1621787144503.556,-0.19,-0.106,-0.152,0.7350928899814827,-6.253641657620841,-6.545776706468296
1621787144506.124,-0.19488750645327826,-0.1081722250903459,-0.15091388745482703,0.745,-6.257,-6.531
1621787144508.285,-0.199,-0.11,-0.15,0.742308994607396,-6.251334725489254,-6.525476357352023
1621787144513.01,-0.209,-0.115,-0.148,0.7364247195685917,-6.23894677803914,-6.513398108588162
1621787144517.732,-0.223,-0.124,-0.148,0.7305443969724609,-6.22656715152097,-6.501327972732946
1621787144521.381,-0.23305282218428267,-0.12786647007087795,-0.148,0.726,-6.217,-6.492
1621787144522.451,-0.236,-0.129,-0.148,0.7321840050034478,-6.218405455682602,-6.4892593614189265
1621787144527.166,-0.248,-0.145,-0.148,0.7594390685889314,-6.224599788315666,-6.477180412784451
1621787144531.878,-0.264,-0.15,-0.152,0.7866757861988228,-6.230789951408823,-6.465109594752795
1621787144536.587,-0.278,-0.154,-0.145,0.8138955690620139,-6.236976265695913,-6.453046281892972
1621787144536.605,-0.2780230386052304,-0.15403071814030717,-0.1449923204649232,0.814,-6.237,-6.453
1621787144541.292,-0.284,-0.162,-0.143,0.8322038828710102,-6.2610661502362515,-6.453
1621787144545.995,-0.302,-0.176,-0.143,0.8504703481083861,-6.285215036482273,-6.453
1621787144550.694,-0.305,-0.175,-0.136,0.8687206936453344,-6.3093426119379,-6.453
1621787144551.796,-0.30805027555370695,-0.17406145367578246,-0.13553072683789125,0.873,-6.315,-6.453
1621787144555.39,-0.318,-0.171,-0.134,0.8869899650467922,-6.301247153004849,-6.487856353591161
1621787144560.082,-0.319,-0.178,-0.133,0.9052545624406038,-6.28329212505839,-6.533363062352013
1621787144564.772,-0.33,-0.176,-0.129,0.9235106067683585,-6.265345505210766,-6.578848460931334
1621787144566.953,-0.3290691882880067,-0.17553459414400333,-0.12760378243201,0.932,-6.257,-6.6
1621787144569.458,-0.328,-0.175,-0.126,0.9351477492895893,-6.240764240506329,-6.62269692908809
1621787144574.14,-0.333,-0.182,-0.126,0.9410306445362956,-6.210420886075949,-6.665115700077499
1621787144578.819,-0.339,-0.185,-0.117,0.9469101653319556,-6.18009493670886,-6.7075101394988375
1621787144582.074,-0.34108780080388373,-0.1829121991961163,-0.11421626559482174,0.951,-6.159,-6.737
1621787144583.496,-0.342,-0.182,-0.113,0.9546762088161046,-6.15249593824843,-6.742561444106415
1621787144588.168,-0.351,-0.187,-0.103,0.9667531069972166,-6.13112911838954,-6.7608316234060455
1621787144592.838,-0.356,-0.182,-0.089,0.9788249563078516,-6.109771231147647,-6.779094164670853
1621787144597.161,-0.3606314605566018,-0.16903191044151497,-0.08066337099811677,0.99,-6.09,-6.796
1621787144597.505,-0.361,-0.168,-0.08,0.9848586649800526,-6.08865182770588,-6.799130501767702
1621787144602.167,-0.365,-0.164,-0.065,0.9151787973143913,-6.07038021796244,-6.84155779896857
1621787144606.827,-0.368,-0.162,-0.056,0.8455317699717817,-6.052117219681489,-6.883965100061626
1621787144611.484,-0.374,-0.155,-0.045,0.7759285297265739,-6.033865703350523,-6.926345739677597
1621787144612.215,-0.374785718033475,-0.156100005246865,-0.044528569179915,0.765,-6.031,-6.933
1621787144616.137,-0.379,-0.162,-0.042,0.6777949809836492,-5.990008419204889,-7.032998569710366
1621787144620.787,-0.368,-0.161,-0.045,0.5743964502811819,-5.9414049182459445,-7.151566345935052
1621787144625.433,-0.353,-0.157,-0.045,0.4710902057666677,-5.892844797321457,-7.270028296980138
1621787144627.236,-0.34756442878923294,-0.15428221439461648,-0.048494295778350245,0.431,-5.874,-7.316
1621787144630.077,-0.339,-0.15,-0.054,0.3176167834446798,-5.8201524523382755,-7.358660909239042
1621787144634.717,-0.312,-0.166,-0.065,0.13241899951116182,-5.732198989734398,-7.428342349682255
1621787144639.354,-0.276,-0.185,-0.082,-0.05265211015153981,-5.644305686817663,-7.4979761284015
1621787144642.219,-0.25188825667773035,-0.19798324640429904,-0.09683799589062747,-0.167,-5.59,-7.541
1621787144643.988,-0.237,-0.206,-0.106,-0.2621319257336011,-5.557461095053806,-7.4934340371332
1621787144648.618,-0.206,-0.227,-0.131,-0.5111081663645716,-5.472301311255899,-7.368945916817714
1621787144653.244,-0.185,-0.244,-0.159,-0.759874344780287,-5.387213377096295,-7.244562827609856
1621787144657.17,-0.16123163006756758,-0.2609774070945946,-0.18701272170608108,-0.971,-5.315,-7.139
1621787144657.869,-0.157,-0.264,-0.192,-0.9888996072013093,-5.305347332242226,-7.115571194762684
1621787144662.489,-0.15,-0.272,-0.222,-1.1072133224222585,-5.24154464811784,-6.960710310965631
1621787144667.106,-0.145,-0.283,-0.244,-1.2254457610474632,-5.1777857937806875,-6.8059558101472994
1621787144671.72,-0.145,-0.291,-0.265,-1.3436031751227495,-5.114067397708674,-6.651299509001637
1621787144672.087,-0.14579578546089902,-0.291,-0.266671149467888,-1.353,-5.109,-6.639
1621787144676.331,-0.155,-0.291,-0.286,-1.425717311067732,-5.195690441429766,-6.53006661636128
1621787144680.938,-0.182,-0.293,-0.288,-1.5046505634750087,-5.2897912599858925,-6.411821508833516
1621787144685.542,-0.208,-0.293,-0.3,-1.5835336198553174,-5.383832237003986,-6.293651596922622
1621787144686.97,-0.21979359015175634,-0.28989642364427465,-0.3027932187201528,-1.608,-5.413,-6.257
1621787144690.143,-0.246,-0.283,-0.309,-1.5263707540034857,-5.5619413205747925,-6.3638445628226625
1621787144694.74,-0.291,-0.278,-0.309,-1.4081129196672257,-5.777715431916083,-6.51863230410049
1621787144699.334,-0.339,-0.267,-0.297,-1.2899304527966855,-5.99335202722699,-6.673321396862977
1621787144701.819,-0.3649820260568998,-0.2697064610475937,-0.2872567402286626,-1.226,-6.11,-6.757
1621787144703.925,-0.387,-0.272,-0.279,-1.1060246531096536,-6.2507293760917575,-6.903273260604462
1621787144708.513,-0.422,-0.281,-0.253,-0.8446547575887413,-6.557312547378135,-7.221933950759698
1621787144713.097,-0.445,-0.295,-0.239,-0.5835073992287664,-6.863634685738769,-7.540323324873933
1621787144716.634,-0.445,-0.30967021956938817,-0.21583649541675548,-0.382,-7.1,-7.786
1621787144717.678,-0.445,-0.314,-0.209,-0.32804059924351286,-7.1734525874172075,-7.836569281337231
1621787144722.257,-0.435,-0.33,-0.183,-0.09135619311894028,-7.495640784235998,-8.058383462993245
1621787144726.831,-0.401,-0.354,-0.155,0.14506321127132782,-7.817468245709661,-8.279949292238575
1621787144731.402,-0.339,-0.384,-0.124,0.3813311860991362,-8.139089572700396,-8.501373205820657
1621787144731.415,-0.3387677674468313,-0.3840792989205942,-0.1239207010794058,0.382,-8.14,-8.502
1621787144735.971,-0.257,-0.412,-0.096,0.39126947594999584,-8.264210977729945,-8.429389105058366
1621787144740.535,-0.178,-0.452,-0.079,0.40055534398542925,-8.388641609404752,-8.356649805447471
1621787144745.097,-0.091,-0.475,-0.052,0.4098372381819687,-8.513018991638381,-8.283941634241245
1621787144746.16,-0.07141469422726786,-0.4773315840205633,-0.046404198350647956,0.412,-8.542,-8.267
1621787144749.656,-0.007,-0.485,-0.028,0.4866117978926408,-8.385885505683232,-8.099242263336928
1621787144754.21,0.068,-0.487,-0.005,0.5837999170331037,-8.182533294615448,-7.880723753422384
1621787144758.761,0.133,-0.475,0.017,0.6809255123205841,-7.979311905749606,-7.662345822616776
1621787144760.873,0.14506878789504749,-0.4675730536030477,0.034174813542952195,0.726,-7.885,-7.561
1621787144763.311,0.159,-0.459,0.054,0.7959227609147609,-7.761098860706861,-7.391590935550935
1621787144767.855,0.157,-0.447,0.105,0.9262454553014553,-7.530170760914761,-7.07584474012474
1621787144772.397,0.134,-0.443,0.15,1.0565121330561331,-7.299341920997922,-6.760234261954262
1621787144775.552,0.10411139199655767,-0.4346589931153184,0.18405911144578313,1.147,-7.139,-6.541
1621787144776.936,0.091,-0.431,0.199,1.1174198146234122,-7.066703380788851,-6.506694545393926
1621787144781.471,0.044,-0.414,0.236,1.0204976161104258,-6.829816857266696,-6.394289567565766
1621787144786.003,-0.003,-0.389,0.278,0.9236380322075151,-6.593083369452872,-6.281957206681559
1621787144790.197,-0.04559791924963614,-0.3778874993261819,0.31967187752681797,0.834,-6.374,-6.178
1621787144790.532,-0.049,-0.377,0.323,0.8333121427855209,-6.365676927704802,-6.181141214612788
1621787144795.057,-0.094,-0.346,0.365,0.8240200541461947,-6.253242655168956,-6.22357508606571
1621787144799.579,-0.133,-0.321,0.403,0.8147334803970722,-6.140875112804572,-6.265983772853371
1621787144804.098,-0.157,-0.278,0.436,0.8054539255991177,-6.028592499749323,-6.308360406430697
1621787144804.806,-0.16107611633690128,-0.27078840955779004,0.4425844956211482,0.804,-6.011,-6.315
1621787144808.614,-0.183,-0.232,0.478,0.7580190272008576,-5.9958471794184645,-6.340864297199518
1621787144813.126,-0.204,-0.192,0.508,0.7035393273482514,-5.977893641967038,-6.3715091283666085
1621787144817.635,-0.225,-0.159,0.543,0.6490950020099155,-5.959951762025995,-6.402134061369423
1621787144819.382,-0.238569919271821,-0.14891948854093298,0.556569919271821,0.628,-5.953,-6.414
1621787144822.141,-0.26,-0.133,0.578,0.5665279027600564,-6.025476361560674,-6.436198257336646
1621787144826.644,-0.291,-0.101,0.618,0.4662012625075549,-6.143762709018871,-6.472427321872272
1621787144831.143,-0.323,-0.08,0.651,0.3659616546907528,-6.261946444160903,-6.508624958028339
1621787144833.924,-0.3328971490632637,-0.06391713277219657,0.6670828672278034,0.304,-6.335,-6.531
1621787144835.639,-0.339,-0.054,0.677,0.24606961556587895,-6.358172153773649,-6.582073318521511
1621787144840.132,-0.335,-0.037,0.693,0.09428277115734193,-6.418886891537063,-6.715893556857201
1621787144844.621,-0.319,-0.016,0.702,-0.05736386588567971,-6.479545546354272,-6.8495901838012525
1621787144848.429,-0.3011738870142593,-0.010057962338086425,0.7079420376619135,-0.186,-6.531,-6.963
1621787144849.107,-0.298,-0.009,0.709,-0.20482870635857647,-6.543411958171698,-6.971243413729128
1621787144853.59,-0.276,0.012,0.73,-0.3293341204250295,-6.62548642266824,-7.025753246753247
1621787144858.07,-0.257,0.038,0.733,-0.45375139146567717,-6.707502782931354,-7.080224489795919
1621787144862.546,-0.232,0.063,0.737,-0.5780533985495024,-6.7894431607353685,-7.134645269016698
1621787144862.904,-0.23007837572317433,0.06508175963322782,0.7370800676782011,-0.588,-6.796,-7.139
1621787144867.019,-0.208,0.089,0.738,-0.7418957086334583,-6.854708362923135,-7.203408203983633
1621787144871.489,-0.185,0.099,0.731,-0.9090672618443745,-6.918481214703594,-7.273372594771905
1621787144875.955,-0.152,0.12,0.735,-1.0760927259815358,-6.982198336207771,-7.343275844577458
1621787144877.343,-0.14267013129102846,0.12932986870897156,0.7356219912472648,-1.128,-7.002,-7.365
1621787144880.418,-0.122,0.15,0.737,-1.3122191922444622,-6.9936749148348385,-7.377594359608834
1621787144884.879,-0.101,0.152,0.735,-1.5794723149670356,-6.981597427249461,-7.395865430571328
1621787144889.335,-0.084,0.178,0.717,-1.8464329101910073,-6.969533159330881,-7.414116502550718
1621787144891.748,-0.0726203947368421,0.178,0.709413596491228,-1.991,-6.963,-7.424
1621787144893.788,-0.063,0.178,0.703,-2.0661053266502423,-6.956043173901962,-7.4211604791436585
1621787144898.239,-0.038,0.171,0.686,-2.2299690425622294,-6.940864871293858,-7.41496525358933
1621787144902.686,-0.005,0.159,0.672,-2.3936889474131338,-6.925699889559086,-7.4087754651261575
1621787144906.117,0.011989009781294649,0.14818881195735795,0.6503776239147159,-2.52,-6.914,-7.404
1621787144907.129,0.017,0.145,0.644,-2.5352483139178417,-6.90983495129096,-7.375621193541794
1621787144911.57,0.037,0.14,0.627,-2.6021679950950336,-6.8915559643027455,-7.251076231350909
1621787144916.007,0.059,0.12,0.602,-2.6690251379521768,-6.873294059540841,-7.126647659922338
1621787144920.44,0.073,0.103,0.572,-2.7358197424892707,-6.855049237005246,-7.00233547925608
1621787144920.452,0.07303779614325068,0.10297300275482094,0.5719352066115702,-2.736,-6.855,-7.002
1621787144924.871,0.087,0.093,0.548,-2.675441904924469,-6.812671127421695,-6.832375539813945
1621787144929.298,0.094,0.091,0.529,-2.6147767517282583,-6.7702674234018945,-6.662451207647009
1621787144933.722,0.093,0.096,0.503,-2.5541550908935733,-6.727894119655202,-6.492648698472306
1621787144934.755,0.09206543707548732,0.09272902976420565,0.4976262631840521,-2.54,-6.718,-6.453
1621787144938.143,0.089,0.082,0.48,-2.519102973888642,-6.68071780568769,-6.338778755004962
1621787144942.56,0.091,0.073,0.454,-2.4918606481639918,-6.632115020019849,-6.189874679169091
1621787144946.974,0.079,0.068,0.426,-2.464636391636152,-6.583544471441772,-6.041069367920332
1621787144949.023,0.07807101344993635,0.068,0.415316654674268,-2.452,-6.561,-5.972
1621787144951.385,0.077,0.068,0.403,-2.3998821410190425,-6.556020586721565,-5.9280151827071546
1621787144955.793,0.068,0.072,0.382,-2.3026224052153026,-6.546728255275347,-5.845932921598902
1621787144960.197,0.061,0.07,0.365,-2.205448859152513,-6.537444158517756,-5.763923400240178
1621787144963.254,0.04502047497503052,0.07694761957607368,0.3504099988902452,-2.138,-6.531,-5.707
1621787144964.597,0.038,0.08,0.344,-2.0980821597455077,-6.556066890207204,-5.67918994067578
1621787144968.996,0.03,0.087,0.33,-1.967327830797008,-6.63817565127676,-5.5880956925457825
1621787144973.39,0.017,0.106,0.326,-1.836733144183647,-6.720184163012639,-5.497112664431262
1621787144977.452,0.005899366173690648,0.12265095073946403,0.31304926053597243,-1.716,-6.796,-5.413
1621787144977.781,0.005,0.124,0.312,-1.7094017235436056,-6.803969045156843,-5.410723129955188
1621787144982.169,-0.005,0.147,0.307,-1.6214263357462944,-6.910221009996553,-5.380365425715271
1621787144986.554,-0.017,0.171,0.298,-1.5335096863150637,-7.016402033781455,-5.350027990348156
1621787144990.935,-0.012,0.188,0.295,-1.445671354705274,-7.122488469493279,-5.319717580144778
1621787144991.617,-0.010909714476912781,0.19298416239125585,0.2932866941780058,-1.432,-7.139,-5.315
1621787144995.313,-0.005,0.22,0.284,-1.4113329589244672,-7.180072474036185,-5.345869757555859
1621787144999.688,0.003,0.241,0.29,-1.386869429228084,-7.228689868496086,-5.382410219634001
1621787145004.059,0.01,0.255,0.304,-1.36242774196893,-7.277263854568076,-5.418918056299573
1621787145005.745,0.009613995863842154,0.2623340785869991,0.304,-1.353,-7.296,-5.433
1621787145008.427,0.009,0.274,0.304,-1.3642245198385896,-7.335190696385584,-5.462868637536586
1621787145012.793,-0.01,0.297,0.307,-1.3824974454893402,-7.398991080861086,-5.511493202403837
1621787145017.154,-0.031,0.318,0.316,-1.4007499350548136,-7.4627201122252815,-5.560063386501793
1621787145019.842,-0.043952941176470584,0.34020504201680674,0.3264857142857143,-1.412,-7.502,-5.59
1621787145021.512,-0.052,0.354,0.333,-1.4143749175375855,-7.609108780945106,-5.646998020902052
1621787145025.867,-0.059,0.372,0.34,-1.4205684524842888,-7.888437207041422,-5.79564285962293
1621787145030.22,-0.045,0.391,0.353,-1.4267592097496613,-8.167640359709733,-5.944221033991876
1621787145033.905,-0.02635496911847277,0.40710252667040986,0.3555425042111173,-1.432,-8.404,-6.07
1621787145034.568,-0.023,0.41,0.356,-1.4644312619669277,-8.419317389033942,-6.1061660574412535
1621787145038.914,0.021,0.419,0.353,-1.6769897650130547,-8.519709451697128,-6.343202872062664
1621787145043.256,0.075,0.431,0.34,-1.8893572149695386,-8.620011279373369,-6.580026631853786
1621787145047.594,0.138,0.438,0.312,-2.1015216710182765,-8.72021723237598,-6.816624020887728
1621787145047.931,0.1436722972972973,0.4377668918918919,0.31036824324324325,-2.118,-8.728,-6.835
1621787145051.93,0.211,0.435,0.291,-2.283457431960921,-8.756004884856944,-6.8827226099092815
1621787145056.262,0.284,0.435,0.278,-2.4626928820655967,-8.786341800418702,-6.934419190509421
1621787145060.591,0.353,0.415,0.255,-2.6418071179344036,-8.816658199581298,-6.986080809490579
1621787145061.925,0.3699641546711826,0.4125324865932825,0.2494480948348857,-2.697,-8.826,-7.002
1621787145064.916,0.408,0.407,0.237,-2.7096409408884226,-8.838640940888423,-6.806601049317943
1621787145069.239,0.452,0.386,0.216,-2.7279115424973766,-8.856911542497377,-6.524180902413431
1621787145073.558,0.475,0.386,0.206,-2.7461656348373555,-8.875165634837355,-6.242015949632739
1621787145075.885,0.4793131575970132,0.3886957234981333,0.206,-2.756,-8.885,-6.09
1621787145077.874,0.483,0.391,0.206,-2.7251493487140825,-8.859719605196263,-6.021300170053119
1621787145082.187,0.473,0.424,0.209,-2.6582526253046055,-8.80490145684683,-5.872331077645904
1621787145086.496,0.457,0.459,0.23,-2.5914164898932346,-8.750132956995845,-5.723496905734471
1621787145089.811,0.4223563531212791,0.48594505868344956,0.25848477632250383,-2.54,-8.708,-5.609
1621787145090.802,0.412,0.494,0.267,-2.6071256919913535,-8.527523909948858,-5.861595191648653
1621787145095.105,0.316,0.506,0.3,-2.898599040438657,-7.743860178204249,-6.958414667580534
1621787145099.404,0.168,0.504,0.309,-3.1898077889668017,-6.960907857506898,-8.054238449236394
1621787145103.7,-0.038,0.524,0.284,-3.4808015500606313,-6.178533558285443,-9.149253229292983
1621787145103.703,-0.03817265696087352,0.524,0.2839959053685168,-3.481,-6.178,-9.15
1621787145107.993,-0.291,0.524,0.278,-2.9529144573431747,-6.0900889249035535,-10.667704229569997
1621787145112.283,-0.52,0.422,0.274,-2.4248289146863495,-6.002177849807106,-12.185408459139994
1621787145116.569,-0.623,0.276,0.265,-1.897224214772667,-5.914346821216552,-13.701730759067768
1621787145117.562,-0.6016716069087386,0.2521214729521747,0.2610588838853104,-1.775,-5.894,-14.053
1621787145120.852,-0.531,0.173,0.248,-1.4156526921786428,-6.783087113920922,-13.793841577339432
1621787145125.132,-0.288,0.103,0.264,-0.9481758701679411,-7.939705264273227,-13.456701008352907
1621787145129.408,0.059,0.04,0.279,-0.48115236547936524,-9.095201829515956,-13.119887368216576
1621787145131.387,0.24190129098594768,0.007587112989832057,0.2678870101679424,-0.265,-9.63,-12.964
1621787145133.682,0.454,-0.03,0.255,-0.32004524996370326,-9.179478133217184,-12.540166739260192
1621787145137.992,0.827,-0.084,0.208,-0.4234249140976625,-8.33335972511252,-11.744171804675023
1621787145143.027,1.114,-0.113,0.138,-0.5441965348690897,-7.344895578247754,-10.81426359515398
1621787145146.521,1.259060332702847,-0.10605931422474417,0.10676691401134876,-0.628,-6.659,-10.169
1621787145148.061,1.323,-0.103,0.093,-0.35321647009393475,-6.272807508778248,-9.872919090063323
1621787145153.097,1.415,-0.061,0.061,0.5453187029200804,-5.009967858107499,-8.904742024549083
1621787145158.132,1.403,0.01,0.077,1.4437231925812548,-3.7473118753938954,-7.936705771135321
1621787145162.791,1.2901102167482907,0.10068195703825825,0.13622086990253598,2.275,-2.579,-7.041
1621787145163.167,1.281,0.108,0.141,2.270932406879371,-2.5570211303538737,-6.982066122399976
1621787145168.202,1.091,0.222,0.239,2.216460995887985,-2.2626898130083744,-6.192849656331602
1621787145173.237,0.82,0.304,0.314,2.1619869436023653,-1.968344223669598,-5.403594921511541
1621787145178.272,0.511,0.36,0.332,2.1075155326109796,-1.6740129063240987,-4.614378455443166
1621787145179.059,0.4625282021436539,0.3642217372326495,0.32887278723507446,2.099,-1.628,-4.491
1621787145183.306,0.201,0.387,0.312,1.8992915222187206,-1.9326533249290891,-4.60638712049585
1621787145188.342,-0.075,0.389,0.298,1.6624656251406962,-2.293928909099095,-4.74321986102982
1621787145193.377,-0.304,0.387,0.286,1.4256971320516862,-2.6551169240466432,-4.880019434814582
1621787145195.327,-0.36596276183087667,0.3924217416602017,0.284838198215671,1.334,-2.795,-4.933
1621787145198.412,-0.464,0.401,0.283,1.2609019059989126,-3.1412139491330877,-5.266044840814354
1621787145203.407,-0.565,0.442,0.272,1.1425578444994866,-3.701726031535069,-5.805236452606778
1621787145208.402,-0.623,0.459,0.255,1.0242079985501118,-4.262265510783544,-6.344454419138525
1621787145211.492,-0.6328976489564495,0.4719906642553399,0.23458609902732294,0.951,-4.609,-6.678
1621787145213.397,-0.639,0.48,0.222,0.8700200148257968,-4.722442807219255,-6.87950558993056
1621787145218.393,-0.641,0.499,0.171,0.6576434395848776,-5.019955764663167,-7.407970333277863
1621787145223.387,-0.595,0.52,0.131,0.44536026686434393,-5.3173378768853725,-7.936202659566421
1621787145227.63,-0.5525210207274149,0.5471865467344544,0.09956555533828707,0.265,-5.57,-8.385
1621787145228.381,-0.545,0.552,0.094,0.24674688639699763,-5.582339477308152,-8.404603471497103
1621787145233.376,-0.494,0.574,0.054,0.12538177388356714,-5.664384770206262,-8.534947125497496
1621787145238.369,-0.459,0.597,0.007,0.004064118279081763,-5.7463979812654165,-8.66523981174619
1621787145243.363,-0.424,0.628,-0.045,-0.11728319789349434,-5.8284312434739185,-8.795564352839696
1621787145243.763,-0.4213569018629896,0.6317644124981664,-0.04932506967874432,-0.127,-5.835,-8.806
1621787145248.356,-0.391,0.675,-0.099,-0.13838715290913217,-5.879694575168344,-8.674763062722251
1621787145253.35,-0.365,0.749,-0.15,-0.15076878262843307,-5.9282924718166,-8.532064780207309
1621787145258.343,-0.353,0.812,-0.201,-0.16314738594234698,-5.9768784898237115,-8.389401377014451
1621787145259.897,-0.3486427558554594,0.8281840496797223,-0.21625035450589214,-0.167,-5.992,-8.345
1621787145263.336,-0.339,0.864,-0.25,-0.10838382386320648,-5.992,-8.309617144586518
1621787145268.329,-0.332,0.901,-0.278,-0.02327676477264129,-5.992,-8.258243428917304
1621787145273.322,-0.335,0.93,-0.298,0.06182613301051676,-5.992,-8.206872225164561
1621787145276.031,-0.3284879444417274,0.9327133564826137,-0.30885342593045434,0.108,-5.992,-8.179
1621787145278.314,-0.323,0.935,-0.318,0.060726978264818064,-5.955908321729128,-8.235897469274082
1621787145283.307,-0.284,0.927,-0.33,-0.042660955379306156,-5.876974420294243,-8.360334443300841
1621787145288.299,-0.215,0.897,-0.349,-0.14603372283102262,-5.798052097838591,-8.484753163407397
1621787145292.161,-0.14304020936261802,0.8784297314484175,-0.35751137308614195,-0.226,-5.737,-8.581
1621787145293.29,-0.122,0.873,-0.36,-0.2623335351547718,-5.711587527435102,-8.584430333762203
1621787145298.282,-0.019,0.82,-0.363,-0.42296311208658144,-5.5992396730492695,-8.599595746613184
1621787145303.274,0.08,0.754,-0.363,-0.583592689018391,-5.4868918186634374,-8.614761159464164
1621787145308.265,0.192,0.698,-0.375,-0.7441908423522289,-5.374565942632255,-8.62992360554
1621787145308.29,0.19253404421835257,0.697692672666797,-0.3750251907650166,-0.745,-5.374,-8.63
1621787145313.256,0.298,0.637,-0.38,-0.784422930167767,-5.21076442977409,-8.370055054206286
1621787145318.247,0.393,0.576,-0.384,-0.8240435467264248,-5.046710314335897,-8.108806613772636
1621787145323.237,0.454,0.524,-0.386,-0.8636564108775967,-4.882688298709951,-7.847609290775846
1621787145324.414,0.4613106197720491,0.5119728513427579,-0.38623582644425963,-0.873,-4.844,-7.786
1621787145328.228,0.485,0.473,-0.387,-0.8195453609496124,-4.7536474685077525,-7.465981740552325
1621787145333.219,0.494,0.426,-0.398,-0.7495944464631783,-4.635411851986434,-7.04720480559593
1621787145338.208,0.487,0.401,-0.389,-0.6796709060077519,-4.517222504844961,-6.628591751453488
1621787145340.539,0.48046123367411825,0.3897906862984885,-0.38806589052487406,-0.647,-4.462,-6.433
1621787145343.199,0.473,0.377,-0.387,-0.6001433330809419,-4.4491309154236385,-6.240458696145983
1621787145348.188,0.456,0.368,-0.379,-0.512257514954191,-4.424993261149391,-5.879322253350496
1621787145353.177,0.442,0.36,-0.384,-0.42437169682744,-4.400855606875142,-5.518185810555009
1621787145356.661,0.4147711727579627,0.3502255491951661,-0.39028357551739323,-0.363,-4.384,-5.266
1621787145358.167,0.403,0.346,-0.393,-0.2888210261691301,-4.403245426459899,-5.1707071117034165
1621787145363.156,0.349,0.318,-0.396,-0.04310092076568933,-4.466996486551975,-4.855046522897989
1621787145368.145,0.271,0.293,-0.398,0.20261918463775141,-4.530747546644052,-4.539385934092562
1621787145372.782,0.1882641084626303,0.27533728158190984,-0.38963344917037834,0.431,-4.59,-4.246
1621787145373.133,0.182,0.274,-0.389,0.4532185866848443,-4.603026191017193,-4.239377989850792
1621787145378.123,0.096,0.251,-0.382,0.7690222676664394,-4.788173839278952,-4.145256108460199
1621787145383.111,0.012,0.227,-0.375,1.084702340377187,-4.973249019162312,-4.051171067181701
1621787145388.099,-0.068,0.22,-0.36,1.4003824130879345,-5.158324199045671,-3.957086025903204
1621787145388.899,-0.0795453744493392,0.21807577092511013,-0.3567929515418502,1.451,-5.188,-3.942
1621787145393.087,-0.14,0.208,-0.34,1.5045282961706254,-5.432515178138633,-4.09998642753272
1621787145398.075,-0.199,0.202,-0.332,1.5682823254968492,-5.723741108216189,-4.288153659718856
1621787145403.062,-0.225,0.194,-0.323,1.6320238730004848,-6.014910021812893,-4.476284052350945
1621787145405.016,-0.22225769663746267,0.1849895746659488,-0.3249587881160981,1.657,-6.129,-4.55
1621787145408.05,-0.218,0.171,-0.328,1.6607665565422969,-6.322977661928287,-4.784656472585094
1621787145413.037,-0.18,0.166,-0.335,1.6669578698511807,-6.641830297335798,-5.170375291728549
1621787145418.024,-0.106,0.169,-0.342,1.6731488800654686,-6.960667323371624,-5.556075228078683
1621787145421.126,-0.0531283105693445,0.16402384099476183,-0.3407559602486905,1.677,-7.159,-5.796
1621787145423.011,-0.021,0.161,-0.34,1.6254026458153386,-7.210597354184661,-5.861403448955161
1621787145427.997,0.073,0.129,-0.335,1.4889212619902714,-7.347078738009729,-6.034403661105302
1621787145432.983,0.178,0.087,-0.325,1.3524465608946674,-7.483553439105332,-6.207395402403359
1621787145437.237,0.25818553874773587,0.030699515347334408,-0.3130574729524649,1.236,-7.6,-6.355
1621787145437.97,0.272,0.021,-0.311,1.1793035438202928,-7.59645078364204,-6.333113165792585
1621787145442.956,0.347,-0.056,-0.304,0.7935901112559494,-7.572304998938976,-6.184214160123685
1621787145447.942,0.396,-0.136,-0.3,0.40789556491951373,-7.548160396519841,-6.035322445205687
1621787145452.928,0.436,-0.225,-0.291,0.022182132355170303,-7.524014611816776,-5.886423439536787
1621787145453.344,0.4389208090503942,-0.2312588765365591,-0.2915007101229247,-0.01,-7.522,-5.874
1621787145457.913,0.471,-0.3,-0.297,-0.19073216397319673,-7.363398305084746,-5.851869530942057
1621787145462.898,0.494,-0.354,-0.305,-0.38791032715806073,-7.190364406779661,-5.827725266062278
1621787145467.884,0.51,-0.414,-0.325,-0.5851367757193536,-7.017288135593221,-5.803575088687427
1621787145469.448,0.514707063779759,-0.42812119133927695,-0.33033467228372687,-0.647,-6.963,-5.796
1621787145472.868,0.525,-0.459,-0.342,-0.5699116157787817,-6.9400646129589765,-5.906217276613808
1621787145477.853,0.541,-0.504,-0.354,-0.45754241836208726,-6.906632455049878,-6.066877368788091
1621787145482.837,0.536,-0.529,-0.353,-0.3452007367878475,-6.873208483672418,-6.227498120129772
1621787145485.552,0.5283750428522455,-0.5480623928693863,-0.3442857632597091,-0.284,-6.855,-6.315
1621787145487.822,0.522,-0.564,-0.337,-0.10441702798580996,-6.870223674236682,-6.38829917225069
1621787145492.806,0.51,-0.585,-0.314,0.28986204178163194,-6.903647645614142,-6.5492294048088295
1621787145497.789,0.485,-0.583,-0.293,0.6840831690973592,-6.937066705072618,-6.7101359873866775
1621787145501.656,0.47025810718134614,-0.554292103458411,-0.26894743803272264,0.99,-6.963,-6.835
1621787145502.773,0.466,-0.546,-0.262,1.136322849213691,-6.948707678075856,-6.954750231267345
1621787145507.757,0.443,-0.482,-0.225,1.7892585796393745,-6.884931120243854,-7.489111099316055
1621787145512.74,0.422,-0.428,-0.195,2.4420343943828575,-6.8211701824358135,-8.023341092795075
1621787145517.724,0.419,-0.354,-0.176,3.0949701248085413,-6.757393624603812,-8.557701960843785
1621787145517.755,0.4190740958541605,-0.35366656865627755,-0.17607409585416053,3.099,-6.757,-8.561
1621787145522.706,0.431,-0.3,-0.188,2.414326235326236,-6.621049504049504,-8.959316498316499
1621787145527.688,0.454,-0.265,-0.234,1.7253985803985805,-6.484254345254345,-9.360107744107744
1621787145532.672,0.504,-0.271,-0.335,1.0361670761670765,-6.347398853398854,-9.761075757575757
1621787145533.852,0.5177368421052632,-0.28071052631578947,-0.3743157894736842,0.873,-6.315,-9.856
1621787145537.654,0.562,-0.312,-0.501,0.21507907950425498,-6.433354894494926,-9.712367712868433
1621787145542.635,0.642,-0.358,-0.707,-0.6468552054732182,-6.588410218291592,-9.524196780995434
1621787145547.618,0.757,-0.37,-0.876,-1.509127470760456,-6.7435263421368,-9.335952063833982
1621787145549.946,0.830831920419464,-0.3559812809330132,-0.931607585632381,-1.912,-6.816,-9.248
1621787145552.6,0.915,-0.34,-0.995,-2.0445792036405006,-6.676824816078877,-9.406468426241942
1621787145557.581,1.075,-0.319,-1.058,-2.2933954038680318,-6.415629700417141,-9.70387186954873
1621787145562.563,1.211,-0.321,-1.063,-2.5422603868031857,-6.154383375047402,-10.001333621539628
1621787145566.041,1.2612750710714635,-0.3712750710714636,-1.0602069404960297,-2.716,-5.972,-10.209
1621787145567.544,1.283,-0.393,-1.059,-2.857121114195986,-5.780631923899686,-10.132041827864002
1621787145572.524,1.26,-0.529,-1.129,-3.324728080955199,-5.146530881616677,-9.877039749366588
1621787145577.506,1.166,-0.654,-1.227,-3.792541365132827,-4.512150061444632,-9.62192515892161
1621787145582.133,1.0359245024021964,-0.7339035199529366,-1.2725264241592313,-4.227,-3.923,-9.385
1621787145582.486,1.026,-0.74,-1.276,-4.14371194464676,-3.953322469045885,-9.362620174799709
1621787145587.466,0.894,-0.803,-1.272,-2.968808934207332,-4.381066399611556,-9.046919155134741
1621787145592.446,0.737,-0.829,-1.232,-1.793905923767905,-4.808810330177227,-8.731218135469774
1621787145597.427,0.534,-0.846,-1.187,-0.6187725176013599,-5.236638140325321,-8.415455207574654
1621787145598.223,0.49947219770520745,-0.8480780621751496,-1.178048347553202,-0.431,-5.305,-8.365
1621787145602.406,0.318,-0.859,-1.131,0.00730014110364291,-5.866003383452942,-8.181465065469055
1621787145607.386,0.141,-0.867,-1.086,0.5290957684079565,-6.533877027416589,-7.962967015126917
1621787145612.366,0.052,-0.873,-1.009,1.0508913957122699,-7.201750671380236,-7.744468964784779
1621787145614.314,0.05004378738844758,-0.8784773953123468,-0.9679195351573991,1.255,-7.463,-7.659
1621787145617.345,0.047,-0.887,-0.904,1.620900716323681,-7.560975475019729,-7.878879575669277
1621787145622.323,0.075,-0.895,-0.792,2.2218443817155347,-7.72188727007831,-8.240002777271899
1621787145627.303,0.115,-0.925,-0.684,2.8230238268682086,-7.882862198749469,-8.601267665270443
1621787145630.401,0.13989259440902405,-0.9455363903874449,-0.6124337910740559,3.197,-7.983,-8.826
1621787145632.281,0.155,-0.958,-0.569,3.1293191967335043,-7.868328379957802,-8.863873195610267
1621787145637.26,0.178,-0.942,-0.469,2.950085032103338,-7.564651841957469,-8.96417003384891
1621787145642.238,0.171,-0.96,-0.372,2.7708860217665183,-7.261034865894567,-9.064447200255005
1621787145646.485,0.13346081412457086,-0.9915670426679745,-0.2969216282491417,2.618,-7.002,-9.15
1621787145647.216,0.127,-0.997,-0.284,2.587724974568422,-6.980589283816407,-9.142408514644034
1621787145652.194,0.044,-1.016,-0.216,2.3815433551462886,-6.83477615656742,-9.090708318782928
1621787145657.172,-0.04,-1.028,-0.138,2.1753617357241546,-6.688963029318433,-9.039008122921823
1621787145662.149,-0.099,-1.002,-0.073,1.9692306757967297,-6.543185658108498,-8.987320604891973
1621787145662.565,-0.10050456195428235,-0.9969012067104875,-0.06748327283429804,1.952,-6.531,-8.983
1621787145667.126,-0.117,-0.941,-0.007,1.918521747053821,-6.486456900741101,-9.085988184910704
1621787145672.103,-0.115,-0.897,0.047,1.8819899161705747,-6.437850990159154,-9.198370003644758
1621787145677.081,-0.087,-0.864,0.086,1.845450917264002,-6.389235542461426,-9.310773873162434
1621787145678.641,-0.06630719788037878,-0.8486371620627055,0.09132996418232667,1.834,-6.374,-9.346
1621787145682.057,-0.021,-0.815,0.103,1.773447616588966,-6.280303154090294,-9.202161531335895
1621787145687.034,0.063,-0.759,0.12,1.6852179769479583,-6.143779395908946,-8.992577439978133
1621787145692.01,0.141,-0.691,0.152,1.5970056491169458,-6.007282425475695,-8.783034471762008
1621787145694.718,0.16984290059856735,-0.6599802767147482,0.16506093612010597,1.549,-5.933,-8.669
1621787145696.986,0.194,-0.634,0.176,1.5296678818257765,-5.856941520467836,-8.472574390521759
1621787145701.963,0.227,-0.571,0.194,1.4872475127211968,-5.690046783625731,-8.041558669400775
1621787145706.938,0.262,-0.499,0.204,1.444841710336447,-5.523209356725146,-7.6106909546593755
1621787145710.791,0.2891061929531848,-0.435494062223967,0.21097016390224752,1.412,-5.394,-7.277
1621787145711.913,0.297,-0.417,0.213,1.4359465905120687,-5.396722790174842,-7.174930276009783
1621787145716.889,0.342,-0.344,0.227,1.5421379441296652,-5.408797025717368,-6.722301241056646
1621787145721.864,0.368,-0.276,0.251,1.6483136668135072,-5.42086948398171,-6.2697388312497155
1621787145726.839,0.394,-0.209,0.269,1.7544893894973492,-5.432941942246054,-5.8171764214427855
1621787145726.863,0.3940096186877362,-0.20874029543112332,0.26910580556509794,1.755,-5.433,-5.815
1621787145731.814,0.396,-0.155,0.291,1.667492235694533,-5.408658051478409,-5.404268134439481
1621787145736.788,0.38,-0.105,0.325,1.579574528215881,-5.384202069468502,-4.991612134196372
1621787145741.762,0.363,-0.065,0.37,1.491661135928526,-5.359747287811104,-4.578976388002553
1621787145742.931,0.36088495140865806,-0.05912486502405026,0.3732900755865319,1.471,-5.354,-4.482
1621787145746.736,0.354,-0.04,0.384,1.0925231206406614,-5.196261826249487,-4.277603537617579
1621787145751.711,0.309,-0.017,0.386,0.5977057607853268,-4.990036318324798,-4.010377391462915
1621787145756.684,0.243,-0.01,0.387,0.10305838284680968,-4.783881653927393,-3.7432430440530644
1621787145758.997,0.2081229568546606,-0.005349727580621411,0.38467486379031074,-0.127,-4.688,-3.619
1621787145761.658,0.168,0.0,0.382,-0.35607080331904806,-4.583982310568068,-3.573450852557673
1621787145766.632,0.089,0.007,0.363,-0.7842833500501505,-4.389537278502173,-3.4883037445670344
1621787145771.605,0.017,-0.003,0.332,-1.2123908087900064,-4.195139965350597,-3.4031775325977933
1621787145775.062,-0.020546771421556594,-0.0023046894181193225,0.31809378836238644,-1.51,-4.06,-3.344
1621787145776.577,-0.037,-0.002,0.312,-1.5877157622739018,-4.0544354005167955,-3.3245710594315243
1621787145781.551,-0.077,-0.005,0.293,-1.8428939960480317,-4.036164143486852,-3.260776500987992
1621787145786.523,-0.119,-0.019,0.269,-2.0979595075239397,-4.01790095759234,-3.197010123119015
1621787145791.124,-0.15416390061867818,-0.0365819503093391,0.24123902582735932,-2.334,-4.001,-3.138
1621787145791.495,-0.157,-0.038,0.239,-2.3387599647319934,-4.007585388100089,-3.1264466875437047
1621787145796.468,-0.206,-0.044,0.218,-2.402546623696452,-4.0958339211334405,-2.9716246997658935
1621787145801.44,-0.265,-0.044,0.194,-2.4663207564379315,-4.184065124198109,-2.816833115441914
1621787145806.411,-0.326,-0.056,0.178,-2.5300823629564317,-4.272278997294093,-2.662071934571767
1621787145807.184,-0.3364167403043692,-0.056777368679430534,0.17753357879234166,-2.54,-4.286,-2.638
1621787145811.384,-0.393,-0.061,0.175,-2.3655666377829463,-4.470632614280719,-2.6123711101989935
1621787145816.355,-0.459,-0.066,0.173,-2.159112084036424,-4.689158723643605,-2.582037457624542
1621787145821.326,-0.518,-0.059,0.175,-1.9526575302899014,-4.907684833006491,-2.5517038050500904
1621787145823.244,-0.5403729745654522,-0.06054296376313464,0.1796288912894039,-1.873,-4.992,-2.54
1621787145826.298,-0.576,-0.063,0.187,-1.727499498281996,-5.152335846991212,-2.6202630218627423
1621787145831.268,-0.607,-0.061,0.195,-1.49073261471098,-5.4132436677106455,-2.750871681819564
1621787145836.239,-0.621,-0.063,0.216,-1.2539192081977681,-5.67420275488795,-2.881506005412473
1621787145839.302,-0.6203837009382522,-0.0642325981234956,0.22031409343223463,-1.108,-5.835,-2.962
1621787145841.209,-0.62,-0.065,0.223,-1.1324669048886187,-5.851271679464761,-3.109870371778302
1621787145846.18,-0.602,-0.075,0.222,-1.196244993537596,-5.8936872044400515,-3.4953253250209078
1621787145851.149,-0.571,-0.077,0.199,-1.2599980232646546,-5.936086064015814,-3.880628829924732
1621787145855.358,-0.5354309082870757,-0.0532872721913838,0.1735935059193398,-1.314,-5.972,-4.207
1621787145856.119,-0.529,-0.049,0.169,-1.2698275704771462,-5.99569765532342,-4.249750570203449
1621787145861.09,-0.48,0.0,0.148,-0.98126837575647,-6.150504090259405,-4.529021378827966
1621787145866.059,-0.435,0.089,0.131,-0.6928367241431743,-6.305242100781559,-4.808168749809932
1621787145871.028,-0.405,0.185,0.136,-0.4044050725298787,-6.459980111303714,-5.087316120791899
1621787145871.414,-0.40391270815935554,0.19152375104386699,0.13693196443483815,-0.382,-6.472,-5.109
1621787145875.998,-0.391,0.269,0.148,-0.5613494258118488,-6.455435881055593,-5.447993261845007
1621787145880.966,-0.415,0.307,0.155,-0.7557242375846072,-6.437484067229447,-5.81538641721804
1621787145885.935,-0.454,0.286,0.152,-0.9501372575861283,-6.419528724617842,-6.182851791010723
1621787145887.465,-0.470627425932295,0.2622905222817275,0.14214671055864,-1.01,-6.414,-6.296
1621787145890.904,-0.508,0.209,0.12,-1.3189937325057808,-6.479141535840331,-6.714062948764756
1621787145895.872,-0.574,0.122,0.073,-1.7653740720457587,-6.5732466837045145,-7.318007499695753
1621787145900.84,-0.634,0.051,0.01,-2.211754411585737,-6.667351831568699,-7.921952050626749
1621787145903.514,-0.6636014546169344,0.010634380067816598,-0.01798682981964716,-2.452,-6.718,-8.247
1621787145905.808,-0.689,-0.024,-0.042,-2.3383283425389143,-7.148379482965871,-8.527533071620942
1621787145910.776,-0.695,-0.134,-0.063,-2.0921869265531567,-8.08031113342767,-9.134991509563154
1621787145915.743,-0.642,-0.236,-0.031,-1.8460818003377915,-9.012105384884588,-9.742360387090883
1621787145919.559,-0.5406047471620227,-0.31895975232198137,0.019697626418988652,-1.657,-9.728,-10.209
1621787145920.711,-0.51,-0.344,0.035,-1.5957636335970786,-9.820249391357272,-10.258247534996956
1621787145925.678,-0.298,-0.429,0.084,-1.3316996500304321,-10.21804800669507,-10.470613177115034
1621787145930.645,-0.012,-0.456,0.086,-1.0676356664637858,-10.615846622032867,-10.68297881923311
1621787145935.604,0.34541931678545096,-0.4310405505038093,0.05405190464487589,-0.804,-11.013,-10.895
1621787145935.612,0.346,-0.431,0.054,-0.8028083723902856,-11.012374307626757,-10.894152854708137
1621787145940.578,0.728,-0.358,0.037,-0.06833244567533026,-10.626720281210055,-10.372003302087771
1621787145945.544,1.065,-0.264,0.058,0.6661795909671921,-10.241047294418406,-9.849828078397955
1621787145950.511,1.292,-0.138,0.145,1.4008360673199831,-9.85529846612697,-9.327550170430337
1621787145951.648,1.309170984710683,-0.11121326385133476,0.1781972371073202,1.569,-9.767,-9.208
1621787145955.477,1.367,-0.021,0.29,2.1308819017471237,-8.971199549522128,-9.26194448164607
1621787145960.443,1.318,0.061,0.398,2.8596016010227068,-7.939104614354417,-9.331906525841601
1621787145965.409,1.164,0.138,0.466,3.588285475132404,-6.90706041882267,-9.401865130577708
1621787145967.69,1.052823031912278,0.1738338988051335,0.5211290750848208,3.923,-6.433,-9.434
1621787145970.374,0.922,0.216,0.586,3.9803928832338977,-6.35586262632412,-9.758947461341775
1621787145975.339,0.67,0.216,0.784,4.086559798490199,-6.213171816023378,-10.360044106903688
1621787145980.305,0.52,0.157,0.958,4.192742374893462,-6.070459956775843,-10.961229422866188
1621787145983.731,0.5179295234348105,0.12111173953671373,1.0373682683322678,4.266,-5.972,-11.376
1621787145985.269,0.517,0.105,1.073,4.054369863013699,-6.0435342465753426,-11.491643835616438
1621787145990.233,0.634,0.101,1.11,3.371375585996956,-6.274396834094368,-11.864861369863014
1621787145995.199,0.777,0.183,1.14,2.6880789802130898,-6.505361613394216,-12.238244109589042
1621787145999.771,0.9004160232134953,0.2585232380858703,1.1786826341415433,2.059,-6.718,-12.582
1621787146000.163,0.911,0.265,1.182,2.027363110461576,-6.6983186274509805,-12.583442485689929
1621787146005.126,1.023,0.298,1.206,1.6269180976738522,-6.449200980392157,-12.60170079771039
1621787146010.09,1.141,0.284,1.215,1.2263745889660211,-6.20002205882353,-12.619963600657655
1621787146015.054,1.299,0.241,1.21,0.8258507794422116,-5.950855392156863,-12.638225505419559
1621787146015.808,1.3233120665059765,0.2350739337891682,1.2004271238132715,0.765,-5.913,-12.641
1621787146020.017,1.459,0.202,1.147,0.8345637609440426,-6.260556299961934,-11.48755409212029
1621787146024.98,1.59,0.188,1.077,0.9165876665397792,-6.670366303768557,-10.127504880091358
1621787146029.944,1.679,0.195,1.031,0.998631747240198,-7.080277106966121,-8.767121141987058
1621787146031.842,1.6801472845336483,0.20570798898071627,1.021056867375049,1.03,-7.237,-8.247
1621787146034.907,1.682,0.223,1.005,0.8837498286810727,-7.021543865259567,-7.324763625565352
1621787146039.869,1.599,0.255,0.962,0.6469815889259445,-6.6727362754503785,-5.831730960756545
1621787146044.832,1.395,0.293,0.89,0.4101551007355292,-6.3238428738940415,-4.338330988167573
1621787146047.874,1.2116925802007479,0.3218142098012202,0.8385022633339894,0.265,-6.11,-3.423
1621787146049.794,1.096,0.34,0.806,0.05703753465557687,-5.852682387350334,-3.2114437132498552
1621787146054.756,0.716,0.4,0.726,-0.48045446790360424,-5.187628918746001,-2.6646632544252506
1621787146059.719,0.295,0.51,0.634,-1.0180258050757094,-4.5224772872680745,-2.1178020899978676
1621787146063.901,-0.05988725393700789,0.6305436515748032,0.5530755905511812,-1.471,-3.962,-1.657
1621787146064.68,-0.126,0.653,0.538,-1.473867550072348,-3.9629234483283833,-1.7923580839235398
1621787146069.642,-0.518,0.838,0.433,-1.492132343309725,-3.9688053308963522,-2.6545182392810904
1621787146074.604,-0.848,1.028,0.34,-1.5103962379102887,-3.9746869240728047,-3.516635975934811
1621787146079.564,-1.126,1.204,0.267,-1.528652943416343,-3.980566202117127,-4.378414362957886
1621787146079.93,-1.1400162401574803,1.2132949803149606,0.263016437007874,-1.53,-3.981,-4.442
1621787146084.525,-1.316,1.33,0.213,-1.4568781138112288,-4.5519242172621315,-5.727224681953226
1621787146089.487,-1.4,1.405,0.169,-1.3779130037327645,-5.168471410070847,-7.1151526167441155
1621787146094.447,-1.415,1.431,0.129,-1.298982859754704,-5.784745593052488,-8.502465970899673
1621787146095.954,-1.4028460326835992,1.4237076196101595,0.11897297696396929,-1.275,-5.972,-8.924
1621787146099.407,-1.375,1.407,0.096,-1.4693773579155873,-6.288994560414445,-9.401539052262684
1621787146104.368,-1.297,1.342,0.065,-1.7486496419320432,-6.744437498095383,-10.087644796586927
1621787146109.327,-1.183,1.25,0.016,-2.0278119762303826,-7.199701127533141,-10.773480420539387
1621787146111.977,-1.0878978687798395,1.201380371117783,-0.016591179800167347,-2.177,-7.443,-11.14
1621787146114.287,-1.005,1.159,-0.045,-2.220830920671685,-7.506727851766068,-11.131637521713955
1621787146119.246,-0.784,1.054,-0.113,-2.3149224088013898,-7.6435319233230725,-11.113685856215525
1621787146124.206,-0.565,0.944,-0.176,-2.4090324261725535,-7.780362935421937,-11.095730655532869
1621787146127.999,-0.3982587632926349,0.8644537219377707,-0.21347853485624263,-2.481,-7.885,-11.082
1621787146129.165,-0.347,0.84,-0.225,-2.438199865882281,-7.829316152040723,-10.964881945926175
1621787146134.124,-0.147,0.737,-0.274,-2.256173834852318,-7.592496570853781,-10.46678690523364
1621787146139.083,0.047,0.634,-0.314,-2.074147803822355,-7.35567698966684,-9.968691864541105
1621787146144.018,0.2261315478534856,0.5394583497439938,-0.3438552579755809,-1.893,-7.12,-9.473
1621787146144.042,0.227,0.539,-0.344,-1.8926190606850506,-7.118022103321596,-9.469250362037165
1621787146149.001,0.368,0.456,-0.372,-1.813663556957973,-6.708072742793555,-8.69208050182162
1621787146153.959,0.478,0.372,-0.386,-1.734723601774363,-6.298204112742184,-7.915063688053536
1621787146158.917,0.562,0.297,-0.401,-1.6557836465907532,-5.888335482690813,-7.138046874285453
1621787146160.034,0.5710130023640663,0.2859590721040189,-0.40347857565011824,-1.638,-5.796,-6.963
1621787146163.874,0.602,0.248,-0.412,-1.5156979722518675,-5.548997865528282,-6.445494557097119
1621787146168.832,0.599,0.213,-0.408,-1.3577915840829393,-5.230088885500838,-5.777333800884281
1621787146173.79,0.572,0.173,-0.415,-1.199885195914011,-4.911179905473396,-5.109173044671444
1621787146176.047,0.5546974980299448,0.15387618203309691,-0.415,-1.128,-4.766,-4.805
1621787146178.747,0.534,0.131,-0.415,-0.9494522738706873,-4.6469681825804585,-4.578569786410135
1621787146183.704,0.497,0.099,-0.41,-0.6216438796822832,-4.4284292531215215,-4.162850548076777
1621787146188.661,0.459,0.077,-0.41,-0.29385163050935315,-4.209901087006235,-3.7471517844891986
1621787146192.061,0.4233477575936592,0.06123073893565697,-0.40314379953724216,-0.069,-4.06,-3.462
1621787146193.62,0.407,0.054,-0.4,0.023479584306973292,-4.029173471897675,-3.341639097282007
1621787146198.531,0.311,0.019,-0.374,0.3147772414217193,-3.932074252859427,-2.962519216578527
1621787146203.44,0.197,-0.017,-0.349,0.6059590456278439,-3.8350136514573854,-2.583550116836798
1621787146207.942,0.08239180588703263,-0.033503579952267305,-0.3205771678599841,0.873,-3.746,-2.236
1621787146208.35,0.072,-0.035,-0.318,0.8919195596951736,-3.7485226079593565,-2.2221256562235396
1621787146213.259,-0.051,-0.031,-0.274,1.1194408436609962,-3.7788587791547994,-2.055276714648603
1621787146218.167,-0.187,-0.026,-0.236,1.3469168655222847,-3.809188915402971,-1.8884609652836581
1621787146223.074,-0.309,-0.017,-0.208,1.5743476252790394,-3.839513016703872,-1.7216784081287044
1621787146223.8,-0.3257170074118291,-0.01596443316917873,-0.20282216584589363,1.608,-3.844,-1.697
1621787146227.982,-0.422,-0.01,-0.173,1.8254072488100923,-4.0614072488100925,-1.7977883119483682
1621787146232.889,-0.531,0.003,-0.143,2.080510774633786,-4.316510774633786,-1.9160523251336241
1621787146237.795,-0.632,0.014,-0.106,2.335563531060828,-4.571563531060828,-2.034292802020918
1621787146239.65,-0.6637607365016173,0.023830704155262505,-0.09087583976113461,2.432,-4.668,-2.079
1621787146242.701,-0.716,0.04,-0.066,2.4905357616098116,-4.877688961819358,-2.3489576900557765
1621787146247.607,-0.766,0.072,-0.024,2.584660441897014,-5.2148658592955535,-2.783045853748729
1621787146252.511,-0.798,0.106,-0.002,2.6787476503035346,-5.551908523620227,-3.2169612030445904
1621787146255.495,-0.8010413038069172,0.1266808658870366,0.01198999751181886,2.736,-5.757,-3.481
1621787146257.417,-0.803,0.14,0.021,2.7384263346073237,-5.899668474910615,-3.685661324127728
1621787146262.32,-0.789,0.18,0.033,2.744616385155961,-6.263643447170509,-4.207792087905314
1621787146267.223,-0.749,0.213,0.052,2.7508061274811983,-6.627600295894464,-4.729896853039083
1621787146271.337,-0.6927936476327974,0.2322947179768009,0.06542241250560064,2.756,-6.933,-5.168
1621787146272.127,-0.682,0.236,0.068,2.6591110837020704,-6.952108370207058,-5.236500763170472
1621787146277.029,-0.592,0.236,0.07,2.057926735634665,-7.07067356346649,-5.6615399546723
1621787146281.931,-0.48,0.209,0.044,1.4567723285179075,-7.189232851790752,-6.0865579778295125
1621787146286.833,-0.365,0.154,0.005,0.855587980450502,-7.307798045050184,-6.51159716933134
1621787146287.172,-0.3564199461990635,0.14901803327687557,0.00077916708179735,0.814,-7.316,-6.541
1621787146291.734,-0.241,0.082,-0.056,0.27136586005336294,-7.530690618300714,-6.597482364009315
1621787146296.635,-0.099,0.016,-0.122,-0.31163549715449046,-7.76135233424328,-6.65816652014991
1621787146301.536,0.042,-0.037,-0.178,-0.8946078131988463,-7.992002560187541,-6.718847653418467
1621787146303.002,0.09257283101609608,-0.05405710868590223,-0.18637893058254845,-1.069,-8.061,-6.737
1621787146306.435,0.211,-0.094,-0.206,-0.9243193990251126,-8.05254041463565,-6.82007746652681
1621787146311.335,0.365,-0.134,-0.201,-0.7178239032516813,-8.04046646510767,-6.9386498426605785
1621787146316.233,0.504,-0.134,-0.162,-0.5114107175911644,-8.028397328314925,-7.057174955266243
1621787146318.829,0.5543528884015352,-0.1265795743408264,-0.13178826695907891,-0.402,-8.022,-7.12
1621787146321.131,0.599,-0.12,-0.105,-0.21374297572942866,-7.857893413155175,-7.06995331039484
1621787146326.03,0.644,-0.086,-0.037,0.18688969465059946,-7.508655660304578,-6.963448180092885
1621787146330.927,0.611,-0.07,0.014,0.5873626390581846,-7.159557143077564,-6.8569855117186895
1621787146334.652,0.547088959808517,-0.0555439313852598,0.0459555200957415,0.892,-6.894,-6.776
1621787146335.823,0.527,-0.051,0.056,0.9827643481213918,-6.9375313513012875,-6.743351486524034
1621787146340.72,0.415,-0.024,0.086,1.36236219937637,-7.119589700842827,-6.60680772436788
1621787146345.616,0.305,0.007,0.103,1.7418843505912136,-7.3016117440029635,-6.470291191997777
1621787146350.468,0.24354423940149625,0.0555698753117207,0.12678932668329176,2.118,-7.482,-6.335
1621787146350.511,0.243,0.056,0.127,2.116402223251505,-7.483307024857187,-6.337611332406978
1621787146355.407,0.251,0.089,0.159,1.9343464566929134,-7.632233595800525,-6.635154855643044
1621787146360.301,0.293,0.101,0.18,1.752363316350162,-7.781100756523082,-6.932579681951521
1621787146365.195,0.367,0.089,0.169,1.570380176007411,-7.929967917245639,-7.230004508259997
1621787146366.281,0.3863092161069807,0.08433915473279777,0.15856858440197596,1.53,-7.963,-7.296
1621787146370.088,0.454,0.068,0.122,1.2395504208819215,-8.022005096918681,-7.57248102556182
1621787146374.982,0.532,0.044,0.031,0.8661551625608155,-8.09786068422272,-7.927918634643603
1621787146379.874,0.599,0.024,-0.093,0.4929089196076917,-8.173685998918836,-8.283214394933973
1621787146382.088,0.617101606946801,0.03531350434175068,-0.15047260205609342,0.324,-8.208,-8.444
1621787146384.766,0.639,0.049,-0.22,0.03979344971419746,-8.026833153097481,-8.839550440290438
1621787146389.658,0.635,0.077,-0.346,-0.4793174571296153,-7.695927035377723,-9.562033956434421
1621787146394.549,0.585,0.124,-0.459,-0.9983506411246716,-7.36507046191874,-10.284409300169937
1621787146397.891,0.5453672939649579,0.16431602855288774,-0.5355321219987021,-1.353,-7.139,-10.778
1621787146399.44,0.527,0.183,-0.571,-1.5001404907596267,-7.281337103652883,-10.76447209345448
1621787146404.331,0.546,0.248,-0.644,-1.964801996415106,-7.730829779343593,-10.721751715186354
1621787146409.22,0.667,0.283,-0.691,-2.4292547592558256,-8.180120526608565,-10.679050528462822
1621787146413.691,0.8453288389513108,0.25922282147315856,-0.7467849188514357,-2.854,-8.591,-10.64
1621787146414.109,0.862,0.257,-0.752,-2.8760426913148986,-8.55829319752075,-10.615866825355118
1621787146418.999,1.082,0.157,-0.864,-3.133937029537691,-8.175631250289813,-10.333514320602193
1621787146423.886,1.3,0.024,-1.005,-3.391663987511013,-7.793217660787981,-10.051345070095985
1621787146428.774,1.497,-0.188,-1.115,-3.649442447099556,-7.410727653523348,-9.769119433667713
1621787146429.486,1.5171051842972731,-0.21888622515233244,-1.122721556288083,-3.687,-7.355,-9.728
1621787146433.662,1.635,-0.4,-1.168,-3.3603112444520047,-6.501641355953173,-9.346819030975983
1621787146438.549,1.665,-0.536,-1.183,-2.978006139523375,-5.503004701297496,-8.900744815427679
1621787146443.435,1.555,-0.618,-1.204,-2.595777430679059,-4.5045676043487,-8.454759738954271
1621787146445.273,1.4572191137533097,-0.6401887395713644,-1.2197953739321576,-2.452,-4.129,-8.287
1621787146448.322,1.295,-0.677,-1.246,-2.2928355605048254,-4.267109920193021,-7.5690215757238315
1621787146453.207,0.951,-0.707,-1.292,-2.0378334570650827,-4.488379949269983,-6.418726893095769
1621787146458.091,0.585,-0.705,-1.29,-1.7828823311061617,-4.709605744246474,-5.268662165924276
1621787146461.058,0.3748896717133863,-0.6740299805126667,-1.2517429171038825,-1.628,-4.844,-4.57
1621787146462.977,0.239,-0.654,-1.227,-1.1211385957854998,-5.135007519262308,-4.679690255902466
1621787146467.86,-0.052,-0.564,-1.127,0.16864956524429897,-5.875521691369867,-4.958814277315345
1621787146472.744,-0.288,-0.478,-0.997,1.4586311848253246,-6.616146935049665,-5.237980165238111
1621787146476.838,-0.4389134543272837,-0.44194845257737114,-0.8989062546872656,2.54,-7.237,-5.472
1621787146477.627,-0.468,-0.435,-0.88,2.6071801396047114,-7.281169816285153,-5.614764049465261
1621787146482.51,-0.579,-0.438,-0.761,3.022919611211713,-7.554511553760196,-6.498249121666589
1621787146487.392,-0.602,-0.447,-0.616,3.4385759390815807,-7.827798625621024,-7.381557505687886
1621787146492.274,-0.572,-0.426,-0.433,3.854211481017164,-8.1010720310783,-8.264821717664175
1621787146492.612,-0.5692290301605561,-0.424545240834292,-0.42136192667433603,3.883,-8.12,-8.326
1621787146497.155,-0.532,-0.405,-0.265,3.4142998730532246,-8.439188531442548,-8.523620336254142
1621787146502.035,-0.497,-0.429,-0.126,2.910840170913707,-8.782048611326129,-8.735896522896864
1621787146506.916,-0.476,-0.496,-0.024,2.4072545282843603,-9.124994457689569,-8.948225810446791
1621787146508.382,-0.4699913948369021,-0.5236395837502501,0.001536571943165893,2.256,-9.228,-9.012
1621787146511.796,-0.456,-0.588,0.061,1.964908598070042,-9.079422096931584,-9.186135035083101
1621787146516.675,-0.429,-0.693,0.159,1.5488704326141167,-8.867069283313455,-9.435015009061198
1621787146521.554,-0.4,-0.784,0.244,1.1328530846796052,-8.654727095305216,-9.683882529700593
1621787146524.144,-0.3840705705705706,-0.8227616116116117,0.27638983983983983,0.912,-8.542,-9.816
1621787146526.432,-0.37,-0.857,0.305,0.8507317065613138,-8.39391075993493,-9.855926020605779
1621787146531.31,-0.318,-0.899,0.332,0.7200944457355334,-8.078152451777829,-9.941056937020683
1621787146536.188,-0.22,-0.895,0.332,0.5894637229839647,-7.762409946548919,-10.026183592842203
1621787146539.902,-0.13316433006208694,-0.8805273883436812,0.3380937312237132,0.49,-7.522,-10.091
1621787146541.064,-0.106,-0.876,0.34,0.5492994234703367,-7.486523603620358,-9.991946361043953
1621787146545.941,0.007,-0.834,0.349,0.7982099683838573,-7.337610702994235,-9.576166682164775
1621787146550.817,0.162,-0.761,0.342,1.047070671378092,-7.188727620730271,-9.160470259128386
1621787146555.655,0.3038830921744355,-0.6776560857157162,0.33902343163270415,1.294,-7.041,-8.748
1621787146555.693,0.305,-0.677,0.339,1.2963266976744185,-7.039244093023256,-8.741975255813953
1621787146560.568,0.4,-0.595,0.351,1.594144,-6.814488000000001,-7.970808
1621787146565.442,0.435,-0.518,0.368,1.8918867286821706,-6.589788186046512,-7.1998338449612405
1621787146570.316,0.419,-0.456,0.396,2.189644372093023,-6.36507711627907,-6.428821069767442
1621787146571.402,0.40808029453015426,-0.44262893207773996,0.4015712783009417,2.256,-6.315,-6.257
1621787146575.19,0.37,-0.396,0.421,2.1874230214488435,-6.034195319406319,-5.942989624528916
1621787146580.063,0.335,-0.333,0.44,2.0991989484948586,-5.672940957521053,-5.53901623784488
1621787146584.936,0.325,-0.269,0.445,2.0109748755408736,-5.311686595635789,-5.1350428511608435
1621787146587.144,0.32409360593305275,-0.23410382842252958,0.44409360593305275,1.971,-5.148,-4.952
1621787146589.808,0.323,-0.192,0.443,1.8995702142181272,-5.043563559650674,-4.79763041556145
1621787146594.68,0.318,-0.119,0.461,1.7689450881846527,-4.852578482014053,-4.515331564986737
1621787146599.551,0.314,-0.035,0.482,1.6383396001054802,-4.661622116741898,-4.233075154730328
1621787146602.883,0.3222105579786434,0.01152649521231263,0.4915789843084173,1.549,-4.531,-4.04
1621787146604.421,0.326,0.033,0.496,1.4723665001086248,-4.491705781943453,-3.924072282052078
1621787146609.292,0.319,0.103,0.492,1.2296308928959374,-4.367241860898171,-3.5568727537941096
1621787146614.162,0.281,0.171,0.496,0.9869439495980882,-4.2428028925235095,-3.1897468421215978
1621787146618.616,0.19592759364187934,0.21856736699593843,0.509721355864213,0.765,-4.129,-2.854
1621787146619.031,0.188,0.223,0.511,0.7342007948582606,-4.118891948955196,-2.8433905051696837
1621787146623.9,0.08,0.267,0.524,0.37288988418666746,-4.000312618374887,-2.7189286490514486
1621787146628.769,-0.017,0.311,0.534,0.011560856335579128,-3.8817273418821996,-2.5944605520539015
1621787146633.636,-0.099,0.339,0.536,-0.3496051169000528,-3.763195578600925,-2.470048622970162
1621787146634.342,-0.11277902602938965,0.3414657204473645,0.5336793219318923,-0.402,-3.746,-2.452
1621787146638.504,-0.194,0.356,0.52,-0.8173672448868666,-3.7978878138928143,-2.436380709083285
1621787146643.371,-0.297,0.356,0.51,-1.3031278710418834,-3.8585691923035115,-2.4181143757861876
1621787146648.237,-0.415,0.346,0.489,-1.7887666671843214,-3.91923535166866,-2.399852623732393
1621787146650.063,-0.4532672686230248,0.3426234762979684,0.47699458239277653,-1.971,-3.942,-2.393
1621787146653.104,-0.517,0.337,0.457,-2.204343212638054,-4.086339997203971,-2.4518195162868723
1621787146657.969,-0.609,0.307,0.431,-2.577643646022648,-4.317253863957625,-2.5459184646690587
1621787146662.834,-0.681,0.271,0.398,-2.950944079407242,-4.5481677307112784,-2.640017413051245
1621787146665.78,-0.7137002559341596,0.2473831484919958,0.37801651026245797,-3.177,-4.688,-2.697
1621787146667.699,-0.735,0.232,0.365,-3.1973908470942787,-4.802896928836624,-2.7807612042315877
1621787146672.563,-0.787,0.185,0.333,-3.2490761965420285,-5.094129945784723,-2.9930734780109676
1621787146677.426,-0.813,0.14,0.311,-3.300751168968356,-5.385304491013312,-3.2053431252233078
1621787146681.496,-0.8238780304171058,0.10736590874868243,0.30179551272398736,-3.344,-5.629,-3.383
1621787146682.29,-0.826,0.101,0.3,-3.334598818775256,-5.660741622629779,-3.4196949331675475
1621787146687.152,-0.826,0.079,0.298,-3.2770267018961765,-5.855124898974199,-3.6444119055020208
1621787146692.014,-0.799,0.049,0.284,-3.2194574759092323,-6.049498414672055,-3.8691175940317066
1621787146696.877,-0.77,0.021,0.265,-3.1618737954616103,-6.243920733602735,-4.093879701585328
1621787146697.204,-0.7669042237958917,0.019586710863341874,0.2639905077595299,-3.158,-6.257,-4.109
1621787146701.738,-0.724,0.0,0.25,-3.0532030562594246,-6.185980583580767,-4.46842753431685
1621787146706.598,-0.672,-0.009,0.211,-2.940872650675455,-6.109855845912292,-4.8536929749560835
1621787146711.459,-0.628,-0.003,0.164,-2.828514029878589,-6.033711987190449,-5.239055186780046
1621787146712.909,-0.6151714974632039,-0.002701662731702416,0.156839905560858,-2.795,-6.011,-5.354
1621787146716.319,-0.585,-0.002,0.14,-2.445729407374003,-6.194323619512651,-5.445661809756325
1621787146721.177,-0.56,0.019,0.143,-1.9481788452268027,-6.455475780241653,-5.576237890120827
1621787146726.037,-0.55,0.042,0.159,-1.4504032375946632,-6.716746061859518,-5.706873030929759
1621787146728.609,-0.5489412001206152,0.0705875967433913,0.1738231983113881,-1.187,-6.855,-5.776
1621787146730.895,-0.548,0.096,0.187,-1.1312055414676645,-7.007815631854883,-5.8402437499027675
1621787146735.753,-0.557,0.148,0.216,-1.0126452962865011,-7.33254068980538,-5.976758288087867
1621787146740.611,-0.557,0.183,0.257,-0.8940790927052382,-7.657282067238134,-6.11327968698953
1621787146744.302,-0.553960289534533,0.18603971046546697,0.26839891424550116,-0.804,-7.904,-6.217
1621787146745.468,-0.553,0.187,0.272,-0.914812237403131,-7.911283433444337,-6.388309327440789
1621787146750.324,-0.524,0.166,0.243,-1.376297874326974,-7.9416158227257165,-7.101739503905885
1621787146755.181,-0.456,0.119,0.188,-1.8378763188198313,-7.971954312035106,-7.815313155519592
1621787146759.991,-0.3846661973247511,0.0635181534748064,0.11072171376848035,-2.295,-8.002,-8.522
1621787146760.036,-0.384,0.063,0.11,-2.2926967772069125,-8.005512128288963,-8.527084851315585
1621787146764.891,-0.321,0.0,0.031,-2.0437609528257825,-8.385108298302974,-9.07666331932119
1621787146769.745,-0.265,-0.084,-0.021,-1.7948877160205512,-8.764609030048264,-9.626103612019307
1621787146774.6,-0.194,-0.155,-0.007,-1.5459644091546008,-9.144186112408532,-10.175654444963413
1621787146775.672,-0.16771187805000753,-0.16825451526890375,0.001173617749157317,-1.491,-9.228,-10.297
1621787146779.453,-0.075,-0.215,0.03,-1.491,-9.500035382243471,-10.306405478641397
1621787146784.307,0.105,-0.248,0.065,-1.491,-9.849293258374471,-10.31848088393316
1621787146789.159,0.347,-0.265,0.068,-1.491,-10.198410602214505,-10.330551430395715
1621787146791.349,0.4661679581362584,-0.26138884975344673,0.05626376169870183,-1.491,-10.356,-10.336
1621787146794.011,0.611,-0.257,0.042,-1.1961774454828662,-10.232704392523365,-10.239367492211839
1621787146798.864,0.841,-0.225,0.056,-0.6586664174454828,-10.007915794392524,-10.063190202492212
1621787146803.715,0.981,-0.171,0.134,-0.12137171339563846,-9.783217663551403,-9.887083816199377
1621787146807.023,1.0096462622703246,-0.12803060659451296,0.2131182481751825,0.245,-9.63,-9.767
1621787146808.565,1.023,-0.108,0.25,0.5316882946896035,-9.292233358264772,-9.87801421091997
1621787146813.416,0.972,-0.049,0.365,1.4336034966342557,-8.229626776364997,-10.227262528047868
1621787146818.266,0.853,-0.016,0.492,2.3353371353777113,-7.167234106207928,-10.576440538519073
1621787146822.691,0.7243574628744022,-0.06161792096652404,0.6160807450289454,3.158,-6.198,-10.895
1621787146823.116,0.712,-0.066,0.628,3.1143257093857186,-6.217950654817587,-10.844974072341753
1621787146827.964,0.625,-0.183,0.721,2.6161728874337387,-6.445509588400374,-10.274373916432802
1621787146832.812,0.665,-0.298,0.754,2.118045151231681,-6.673057062675397,-9.703802494543186
1621787146837.66,0.794,-0.351,0.757,1.6199174150296227,-6.9006045369504205,-9.13323107265357
1621787146838.35,0.8143575888810556,-0.3527083291368718,0.7588506898982778,1.549,-6.933,-9.052
1621787146842.508,0.937,-0.363,0.77,1.2130802214079677,-6.993014126452015,-8.604018445466593
1621787146847.355,1.059,-0.33,0.784,0.8214992593747564,-7.062972464333047,-8.081807312699773
1621787146852.202,1.161,-0.276,0.806,0.4299182973415452,-7.132930802214079,-7.559596179932954
1621787146854.008,1.1908156171284636,-0.24991133501259447,0.8108450377833754,0.284,-7.159,-7.365
1621787146857.048,1.241,-0.206,0.819,0.5469856184682576,-6.850370644205272,-7.3249888940882855
1621787146861.893,1.271,-0.131,0.833,0.966111027920761,-6.358501902979254,-7.261222399001716
1621787146866.738,1.223,-0.068,0.853,1.3852364373732646,-5.866633161753237,-7.197455903915146
1621787146869.66,1.1530434366339128,-0.021563315696649037,0.8554122952884857,1.638,-5.57,-7.159
1621787146871.583,1.107,0.009,0.857,1.7464024652831953,-5.68086057107193,-7.017904727726634
1621787146876.427,0.967,0.091,0.853,2.019452270244968,-5.960101981588392,-6.662506568887502
1621787146881.271,0.833,0.178,0.852,2.2925020752067407,-6.239343392104853,-6.30710841004837
1621787146885.307,0.7246874149488433,0.2538188095358097,0.8461677838818608,2.52,-6.472,-6.011
1621787146886.115,0.703,0.269,0.845,2.4607397059282614,-6.549033215746262,-5.9882155277370215
1621787146890.957,0.572,0.314,0.792,2.1056613336246994,-7.010604142602941,-5.851694549370961
1621787146895.799,0.443,0.333,0.728,1.7505829613211374,-7.47217506945962,-5.715173571004901
1621787146900.641,0.33,0.346,0.648,1.3955045890175757,-7.933745996316299,-5.578652592638841
1621787146900.948,0.32347029453298365,0.34840901755093806,0.6435623360903773,1.373,-7.963,-5.57
1621787146905.482,0.227,0.384,0.578,0.7331205720262908,-7.658861567764196,-5.797596443570169
1621787146910.323,0.127,0.438,0.503,0.049895695751955405,-7.334120790595288,-6.0406102758652995
1621787146915.164,0.003,0.503,0.408,-0.6333291805223797,-7.009380013426381,-6.28362410816043
1621787146916.586,-0.03519209039548023,0.5265028248587571,0.3774463276836158,-0.834,-6.914,-6.355
1621787146920.004,-0.127,0.583,0.304,-1.1704827510814737,-6.733842893508035,-6.429992581949932
1621787146924.843,-0.246,0.695,0.192,-1.64687022316618,-6.47877903580966,-6.536166008152047
1621787146929.682,-0.34,0.806,0.094,-2.1232336607686664,-6.223728046476036,-6.6423340777411655
1621787146932.219,-0.37670046919933403,0.8610507037990011,0.05205660662933253,-2.373,-6.09,-6.698
1621787146934.521,-0.41,0.911,0.014,-2.34987382053365,-6.123142613884896,-6.7745962632006504
1621787146939.358,-0.49,0.983,-0.065,-2.3012816190714243,-6.192781119165157,-6.935538586515029
1621787146944.196,-0.571,0.998,-0.119,-2.252677154283572,-6.262437199275136,-7.096521527213648
1621787146947.847,-0.6381767615586513,1.013850696547547,-0.16126852412679182,-2.216,-6.315,-7.218
1621787146949.033,-0.66,1.019,-0.175,-2.2234388125,-6.3544712500000005,-7.25739534375
1621787146953.869,-0.754,0.993,-0.208,-2.2537698125000003,-6.5154112500000005,-7.41802584375
1621787146958.705,-0.822,0.948,-0.25,-2.28410234375,-6.676359375,-7.5786644531250005
1621787146963.472,-0.8476285339256866,0.8977286449919225,-0.2992856421647819,-2.314,-6.835,-7.737
1621787146963.541,-0.848,0.897,-0.3,-2.3149997186444917,-6.834566493685132,-7.7412112042015755
1621787146968.376,-0.822,0.838,-0.37,-2.3849588283106167,-6.804230242590972,-8.035906214830561
1621787146973.21,-0.74,0.764,-0.44,-2.454903807677879,-6.773900118794548,-8.330541703138676
1621787146978.045,-0.63,0.689,-0.503,-2.524862917344004,-6.743563867700388,-8.625236713767663
1621787146979.091,-0.5966722222222223,0.6701719696969697,-0.5146863636363637,-2.54,-6.737,-8.689
1621787146982.879,-0.476,0.602,-0.557,-2.3973556406848564,-6.625164881557345,-8.653338910171215
1621787146987.712,-0.288,0.489,-0.6,-2.2153519193182705,-6.482471487764835,-8.607837979829567
1621787146992.545,-0.113,0.361,-0.634,-2.0333481979516845,-6.339778093972324,-8.56233704948792
1621787146994.705,-0.045942603071948265,0.31271867421180277,-0.6469644300727567,-1.952,-6.276,-8.542
1621787146997.377,0.037,0.253,-0.663,-1.79740825329287,-6.178588367800269,-8.143964771767356
1621787147002.21,0.166,0.168,-0.682,-1.5177757407001846,-6.002385821105653,-7.423980727716422
1621787147007.041,0.239,0.106,-0.689,-1.2382562337702967,-5.826254481744517,-6.704287645089634
1621787147010.312,0.2450949251920744,0.06468995147594014,-0.6795190052567731,-1.049,-5.707,-6.217
1621787147011.871,0.248,0.045,-0.675,-0.9765657874151256,-5.620778309709315,-6.020078851027879
1621787147016.702,0.215,0.012,-0.663,-0.7521286179167057,-5.3536206858787825,-5.409919318501831
1621787147021.532,0.176,-0.024,-0.653,-0.5277254763916268,-5.086503567070309,-4.799852295128133
1621787147025.917,0.13968580671249495,-0.06576132228063082,-0.6421057420137485,-0.324,-4.844,-4.246
1621787147026.362,0.136,-0.07,-0.641,-0.3024599674481204,-4.822203198848165,-4.214388932360951
1621787147031.191,0.084,-0.108,-0.63,-0.0687571128986823,-4.5857144824564156,-3.8714183855519737
1621787147036.019,0.014,-0.143,-0.632,0.1649102945319102,-4.349261635731948,-3.5284998591505214
1621787147040.847,-0.084,-0.188,-0.621,0.39856588625622086,-4.1128207455632415,-3.18559867288491
1621787147041.517,-0.09760285194174757,-0.19244174757281554,-0.6179462985436893,0.431,-4.08,-3.138
1621787147045.675,-0.182,-0.22,-0.599,0.7397286986740972,-3.9962860005322396,-2.8871246066905654
1621787147050.501,-0.288,-0.232,-0.572,1.0980541162473976,-3.8991234952489786,-2.5959465255709837
1621787147055.328,-0.394,-0.223,-0.55,1.4564520436436499,-3.8019413284075076,-2.3047095223931997
1621787147057.113,-0.4361590127452964,-0.22263018409872548,-0.5414942342706859,1.589,-3.766,-2.197
1621787147060.155,-0.508,-0.222,-0.527,1.8204345674371984,-3.844445780868258,-2.1605090521831736
1621787147064.98,-0.632,-0.216,-0.494,2.1875165382446906,-3.968869855290359,-2.1026301916932906
1621787147069.805,-0.747,-0.192,-0.454,2.554598509052183,-4.09329392971246,-2.0447513312034076
1621787147072.702,-0.8172485452613469,-0.17819045691443608,-0.4221780094115266,2.775,-4.168,-2.01
1621787147074.63,-0.864,-0.169,-0.401,2.8029596753979193,-4.262642264068179,-2.1022916718887075
1621787147079.454,-0.965,-0.15,-0.361,2.872920823411455,-4.499457654467978,-2.333225372853741
1621787147084.278,-1.059,-0.12,-0.321,2.9428784308810627,-4.736261060283243,-2.5641473868905873
1621787147088.286,-1.1213234624145785,-0.10005649202733485,-0.2952396355353075,3.001,-4.933,-2.756
1621787147089.101,-1.134,-0.096,-0.29,2.9799651162790695,-4.99610465116279,-2.8463139534883717
1621787147093.924,-1.178,-0.075,-0.257,2.8555134457468814,-5.369459662759356,-3.380651225474832
1621787147098.746,-1.185,-0.047,-0.227,2.731086974236821,-5.742739077289539,-3.9148803046448943
1621787147103.568,-1.171,-0.035,-0.202,2.60666050272676,-6.1160184918197205,-4.449109383814957
1621787147103.865,-1.168228805834093,-0.03358361187075864,-0.2008299402410615,2.599,-6.139,-4.482
1621787147108.389,-1.126,-0.012,-0.183,2.599,-6.6575715629556464,-5.008996535126915
1621787147113.21,-1.044,0.014,-0.162,2.599,-7.210201495696346,-5.570604769295894
1621787147118.031,-0.918,0.028,-0.133,2.599,-7.762831428437044,-6.132213003464873
1621787147119.437,-0.8722033632173429,0.028,-0.12424905029630756,2.599,-7.924,-6.296
1621787147122.851,-0.761,0.028,-0.103,2.259108826896238,-8.042194414388986,-6.6163748412287715
1621787147127.67,-0.578,0.01,-0.084,1.7793625472393408,-8.20902231421806,-7.068574399021498
1621787147132.49,-0.391,-0.035,-0.086,1.2994947389879412,-8.375892474635805,-7.520888507315237
1621787147135.006,-0.2933449708639473,-0.06581094502153534,-0.09957770458576133,1.049,-8.463,-7.757
1621787147137.308,-0.204,-0.094,-0.112,0.8343885647058823,-8.471726447058822,-7.748273552941177
1621787147142.126,-0.03,-0.161,-0.15,0.3852272470588235,-8.489990070588235,-7.730009929411764
1621787147146.944,0.143,-0.23,-0.161,-0.06395683137254915,-8.508254619607843,-7.711745380392157
1621787147150.57,0.2627134746020481,-0.2683986616648079,-0.1579883402615837,-0.402,-8.522,-7.698
1621787147151.76,0.302,-0.281,-0.157,-0.34054953740003135,-8.442511839422927,-7.700980806021641
1621787147156.578,0.456,-0.295,-0.136,-0.09174702838325233,-8.12067774815744,-7.7130495844440965
1621787147161.394,0.592,-0.278,-0.096,0.1569672259683237,-7.798957817155403,-7.725114081856673
1621787147166.139,0.6687365223993926,-0.23766413566185773,-0.04779372310807391,0.402,-7.482,-7.737
1621787147166.217,0.67,-0.237,-0.047,0.4065266752675116,-7.477619033163847,-7.730190559307885
1621787147171.196,0.698,-0.213,0.01,0.6950173484101085,-7.198414540487213,-7.296216392198528
1621787147176.174,0.651,-0.195,0.059,0.9834514381118616,-6.919264809896031,-6.862327343097822
1621787147181.152,0.56,-0.175,0.096,1.2718855278136147,-6.64011507930485,-6.428438293997116
1621787147182.224,0.5302801510618471,-0.16509338368728235,0.10246083672568543,1.334,-6.58,-6.335
1621787147186.13,0.422,-0.129,0.126,1.4053892902677434,-6.860943567482241,-6.046771811061866
1621787147191.108,0.279,-0.052,0.148,1.4963773905652358,-7.219015785319653,-5.679415093194098
1621787147196.086,0.166,0.012,0.173,1.5873654908627284,-7.577088003157064,-5.31205837532633
1621787147198.309,0.14412131018927135,0.03477169755810533,0.18594861233696186,1.628,-7.737,-5.148
1621787147201.065,0.117,0.063,0.202,1.3440521010444497,-7.831249453485548,-5.453882317221277
1621787147206.042,0.152,0.07,0.211,0.8312454153509837,-8.001462897741074,-6.006302313577848
1621787147211.021,0.244,0.042,0.178,0.31823749089142583,-8.171743138207434,-6.558939094000485
1621787147214.391,0.33268680725846,0.012212064737616476,0.12587111329082884,-0.029,-8.287,-6.933
1621787147215.999,0.375,-0.002,0.101,-0.1329826327215315,-8.232009184618422,-7.156562660351293
1621787147220.977,0.515,-0.059,-0.012,-0.45490882178804026,-8.061759757708248,-7.848703966844287
1621787147225.955,0.649,-0.105,-0.169,-0.7768350108545491,-7.891510330798075,-8.54084527333728
1621787147230.473,0.7406448465234873,-0.11770324605276061,-0.3214389526331274,-1.069,-7.737,-9.169
1621787147230.934,0.75,-0.119,-0.337,-1.1249450938126175,-7.697371030420791,-9.202463825976077
1621787147235.911,0.796,-0.075,-0.485,-1.728672323759791,-7.269718015665797,-9.563586161879895
1621787147240.89,0.766,-0.014,-0.606,-2.332666099945352,-6.841876191632765,-9.924867933693607
1621787147245.868,0.693,0.005,-0.714,-2.9365414111360737,-6.4141182828344165,-10.28607884510292
1621787147246.556,0.6891302599313388,-0.0002517900931829327,-0.7265766552231486,-3.02,-6.355,-10.336
1621787147250.846,0.665,-0.033,-0.805,-2.983456129698221,-6.836205416236567,-10.045782986216528
1621787147255.824,0.737,-0.108,-0.885,-2.9410517639200924,-7.394581152468274,-9.709024227336208
1621787147260.802,0.881,-0.161,-0.927,-2.898647398141964,-7.952956888699982,-9.372265468455886
1621787147262.639,0.9463137812653262,-0.16727307503678274,-0.941022167729279,-2.883,-8.159,-9.248
1621787147265.78,1.058,-0.178,-0.965,-2.532599162011173,-7.762504068496479,-9.464412557687636
1621787147270.758,1.227,-0.253,-0.997,-1.9772849162011172,-7.134138450327908,-9.80738256011659
1621787147275.737,1.356,-0.33,-0.997,-1.4218617318435753,-6.505649562788438,-10.150419844547
1621787147278.721,1.3685876410004905,-0.37255821481118195,-0.9862105934281511,-1.089,-6.129,-10.356
1621787147280.715,1.377,-0.401,-0.979,-1.1692267427738645,-6.042697352441097,-9.947426402720428
1621787147285.693,1.278,-0.461,-0.984,-1.3694989373330095,-5.827257711926159,-8.92749304712169
1621787147290.671,1.059,-0.49,-0.988,-1.5697613098129706,-5.6118286373572985,-7.907609712776294
1621787147294.803,0.8564644433545855,-0.5074313388916135,-0.9805294261893085,-1.736,-5.433,-7.061
1621787147295.649,0.815,-0.511,-0.979,-1.51988456284153,-5.557809426229508,-6.968642076502732
1621787147300.628,0.581,-0.49,-0.955,-0.24789084699453556,-6.292402049180327,-6.425049726775956
1621787147305.606,0.365,-0.428,-0.894,1.0238533849423195,-7.026850591985427,-5.881563995142684
1621787147310.584,0.175,-0.349,-0.805,2.2955976168791743,-7.761299134790528,-5.338078263509411
1621787147310.887,0.16666174595389896,-0.34540907307503677,-0.7997657675331045,2.373,-7.806,-5.305
1621787147315.562,0.038,-0.29,-0.719,3.319519674520282,-8.142340068617926,-5.9209936088171
1621787147320.54,-0.045,-0.257,-0.644,4.327380981297061,-8.500477517002672,-6.576908261476804
1621787147325.518,-0.08,-0.227,-0.511,5.3352422880738395,-8.858614965387417,-7.2328229141365075
1621787147326.969,-0.07766872609591056,-0.22175463371579876,-0.45271815239776403,5.629,-8.963,-7.424
1621787147330.497,-0.072,-0.209,-0.311,5.233214428857715,-9.143780105665877,-7.643393332118783
1621787147335.475,-0.052,-0.176,-0.112,4.6747708750835,-9.398856318698002,-7.9529518430801
1621787147340.453,-0.066,-0.168,0.037,4.116354709418838,-9.653920021861905,-8.262495172162506
1621787147343.05,-0.08060547219770521,-0.1831270962047661,0.07768667255075024,3.825,-9.787,-8.424
1621787147345.432,-0.094,-0.197,0.115,3.1117749722909678,-9.635911832136404,-8.582346324947238
1621787147350.409,-0.108,-0.286,0.134,1.6214300138165587,-9.320200127537465,-8.91322457221809
1621787147355.387,-0.106,-0.394,0.152,0.1307926301565372,-9.004426476170233,-9.244167742131394
1621787147359.13,-0.09697911150338334,-0.467670589389036,0.16628307345297638,-0.99,-8.767,-9.493
1621787147360.366,-0.094,-0.492,0.171,-1.1091348372601408,-8.647942023925188,-9.540500212533399
1621787147365.344,-0.084,-0.579,0.19,-1.588921393004615,-8.168465007894097,-9.731795755404422
1621787147370.322,-0.072,-0.67,0.182,-2.068707948749089,-7.688987991863007,-9.923091298275445
1621787147375.212,-0.05235794841620084,-0.7367829753849171,0.14566220456997153,-2.54,-7.218,-10.111
1621787147375.301,-0.052,-0.738,0.145,-2.534403540199174,-7.215445576269128,-10.104638875394706
1621787147380.278,-0.014,-0.771,0.113,-2.2218297607481174,-7.072775762084041,-9.74935699538499
1621787147385.256,0.038,-0.775,0.11,-1.9091946502307506,-6.930077954214234,-9.394005404420694
1621787147390.235,0.112,-0.735,0.126,-1.5964982086470731,-6.787352152659704,-9.03858410250182
1621787147391.294,0.12603904065917898,-0.7264914905095885,0.1311051056942469,-1.53,-6.757,-8.963
1621787147395.213,0.178,-0.695,0.15,-1.159644201578628,-6.51797431693989,-8.434999332119004
1621787147400.192,0.202,-0.681,0.155,-0.6891086824529448,-6.214293169398907,-7.764176654523375
1621787147405.17,0.187,-0.667,0.182,-0.2186654523375835,-5.910671584699453,-7.09348554948391
1621787147407.378,0.16526174825860884,-0.6567963308152655,0.1935345825566565,-0.01,-5.776,-6.796
1621787147410.147,0.138,-0.644,0.208,0.1353043108682453,-5.618988706739526,-6.459940740740741
1621787147415.125,0.066,-0.606,0.239,0.3965241044323011,-5.33672276867031,-5.855792592592593
1621787147420.104,-0.026,-0.571,0.264,0.6577951426836672,-5.0544014571949,-5.251525925925926
1621787147423.462,-0.09345463462481608,-0.5460417851888181,0.2815382050024522,0.834,-4.864,-4.844
1621787147425.082,-0.126,-0.534,0.29,0.9209340579270143,-4.8214899508166855,-4.807534033638959
1621787147430.06,-0.209,-0.483,0.305,1.1880506102374158,-4.690872123383326,-4.69548746129091
1621787147435.039,-0.272,-0.433,0.325,1.4552195640293886,-4.56022867205052,-4.5834189082518675
1621787147439.545,-0.3244986758214811,-0.371449828347229,0.3485338891613536,1.697,-4.442,-4.482
1621787147440.017,-0.33,-0.365,0.351,1.7093597971947296,-4.439710061327342,-4.492069858522072
1621787147444.995,-0.333,-0.295,0.377,1.8396681037100007,-4.415567429716437,-4.598235533426438
1621787147449.973,-0.302,-0.216,0.401,1.969970019430445,-4.391425982148278,-4.704396001578724
1621787147454.951,-0.271,-0.148,0.428,2.100278325945716,-4.367283350537373,-4.81056167648309
1621787147455.628,-0.2663760666993624,-0.1412000980872977,0.4289519862677783,2.118,-4.364,-4.825
1621787147459.929,-0.237,-0.098,0.435,1.9503234713704536,-4.369348533608598,-4.633522496812192
1621787147464.908,-0.237,-0.035,0.438,1.7562157842006194,-4.375540166373186,-4.411862043839942
