time,gyro_x,gyro_y,gyro_z,acc_x,acc_y,acc_z
1621784803486.129,,,,0.951,-3.687,-7.885
1621784803503.541,,,,1.089,-3.727,-7.757
1621784803520.549,0.738,-0.377,-0.182,0.8627122015002409,-3.7452180854724384,-7.879732365288005
1621784803521.279,0.7370727860718558,-0.3773973773977761,-0.18107278607185576,0.853,-3.746,-7.885
1621784803526.06,0.731,-0.38,-0.175,0.7874145911365066,-3.751353910927632,-7.911234163545397
1621784803531.582,0.723,-0.379,-0.168,0.7116646663203652,-3.757537578259562,-7.941534133471854
1621784803537.115,0.716,-0.379,-0.159,0.6357640320419936,-3.763733548404735,-7.971894387183203
1621784803539.139,0.7112557668603627,-0.3775402359570347,-0.15571553090332804,0.608,-3.766,-7.983
1621784803542.661,0.703,-0.375,-0.15,0.6156380890318902,-3.7736380890318904,-7.963806853201917
1621784803548.219,0.686,-0.367,-0.134,0.6276919317395023,-3.7856919317395024,-7.933517709987917
1621784803553.789,0.672,-0.36,-0.119,0.6397717183236264,-3.7977717183236264,-7.903163374468836
1621784803557.122,0.6636359021487025,-0.3564153866351582,-0.10944103102708852,0.647,-3.805,-7.885
1621784803559.368,0.658,-0.354,-0.103,0.661638212368854,-3.812319106184427,-7.880037894112252
1621784803564.961,0.637,-0.344,-0.086,0.6980929147449901,-3.830546457372495,-7.867680367883054
1621784803570.566,0.613,-0.325,-0.07,0.7346255899884025,-3.8488127949942013,-7.855296410173422
1621784803575.226,0.5922512717944258,-0.31421066133310144,-0.05672081394843254,0.765,-3.864,-7.845
1621784803576.181,0.588,-0.312,-0.054,0.7629570732099328,-3.8680858535801343,-7.8563146714526795
1621784803581.808,0.565,-0.307,-0.044,0.7509173341190968,-3.8921653317618063,-7.922996303340387
1621784803587.448,0.55,-0.295,-0.023,0.7388504326163242,-3.9162991347673515,-7.989828373201896
1621784803593.099,0.536,-0.291,-0.019,0.7267595028260695,-3.9404809943478614,-8.05679352280946
1621784803593.454,0.5349968522271571,-0.2911253934716053,-0.018561122849381224,0.726,-3.942,-8.061
1621784803598.761,0.52,-0.293,-0.012,0.6464726268875142,-3.9761244728264487,-8.08384604536686
1621784803604.435,0.51,-0.297,-0.012,0.5614426927426329,-4.012610044568616,-8.10827282644848
1621784803610.122,0.501,-0.29,-0.007,0.476218851859243,-4.049178819929488,-8.132755311647708
1621784803611.805,0.49952303406899506,-0.2858644953931862,-0.006409213627598029,0.451,-4.06,-8.14
1621784803615.819,0.496,-0.276,-0.005,0.4360065022599318,-4.0706475563661355,-8.131308117252134
1621784803621.528,0.501,-0.269,-0.002,0.41468257870113395,-4.085790632516586,-8.11894642243544
1621784803627.249,0.49,-0.257,0.0,0.3933139719292681,-4.100965440224143,-8.106558824306822
1621784803630.278,0.49369853504812194,-0.24748948130482923,0.0,0.382,-4.109,-8.1
1621784803632.982,0.497,-0.239,0.0,0.37065758065151455,-4.1060916873465425,-8.082986370977272
1621784803638.727,0.49,-0.232,-0.003,0.3465573718832473,-4.09991214663673,-8.046836057824871
1621784803644.482,0.49,-0.209,0.003,0.32241619726631743,-4.093722101863158,-8.010624295899476
1621784803648.872,0.4861944467959028,-0.19606111910606958,0.008327774485736053,0.304,-4.089,-7.983
1621784803650.25,0.485,-0.192,0.01,0.29531239238194623,-4.0839935820506135,-7.971441064440386
1621784803656.03,0.478,-0.176,0.009,0.2588703104617793,-4.06299306026611,-7.9229545656144005
1621784803661.82,0.475,-0.169,0.012,0.22236511870597442,-4.041956170101748,-7.874384098617271
1621784803667.588,0.45213934115865206,-0.14514539946989774,0.0030545248012116607,0.186,-4.021,-7.826
1621784803667.623,0.452,-0.145,0.003,0.18580912447756753,-4.020885085144658,-7.825789647383441
1621784803673.438,0.44,-0.145,0.009,0.15423778285745202,-4.00187784886316,-7.790996740291885
1621784803679.263,0.417,-0.133,0.007,0.1226120947344217,-3.9828378937686826,-7.7561439411358934
1621784803684.374,0.398,-0.12,0.009,0.09486224013633965,-3.966131348653511,-7.72556246872168
1621784803685.638,0.3925550637626539,-0.11818502125421797,0.009680617029668258,0.088,-3.962,-7.718
1621784803689.945,0.374,-0.112,0.012,0.09278141854351302,-3.9761051847033637,-7.7086762338401495
1621784803695.518,0.351,-0.099,0.016,0.09896810038756539,-3.994355896143318,-7.696612204244247
1621784803701.093,0.318,-0.098,0.014,0.10515695042957421,-4.012613003767244,-7.68454394666233
1621784803703.654,0.3056031864139712,-0.09478601129251105,0.015377423731780979,0.108,-4.021,-7.679
1621784803706.671,0.291,-0.091,0.017,0.11786446663419387,-4.045577569410619,-7.693713102776425
1621784803712.252,0.269,-0.082,0.023,0.13611337067705798,-4.091045177788602,-7.720931807111544
1621784803717.836,0.244,-0.065,0.031,0.15437185419710991,-4.136536653677545,-7.748164799480436
1621784803721.698,0.22463769889840882,-0.065,0.03998963979716734,0.167,-4.168,-7.767
1621784803723.421,0.216,-0.065,0.044,0.15946851654215582,-4.186685705794146,-7.776342852897073
1621784803729.01,0.192,-0.045,0.047,0.13503628601921025,-4.247302378990314,-7.806651189495157
1621784803734.602,0.168,-0.044,0.051,0.11059124866595518,-4.307950826094592,-7.836975413047297
1621784803739.77,0.14951992666637565,-0.03753197433323148,0.06024003666681217,0.088,-4.364,-7.865
1621784803740.195,0.148,-0.037,0.061,0.08569799101420726,-4.367922811230891,-7.872375824709581
1621784803745.792,0.138,-0.016,0.066,0.055385781939366135,-4.4195772899604675,-7.969498617051419
1621784803751.391,0.124,-0.007,0.077,0.025061672760635215,-4.471252047438509,-8.066659538297557
1621784803756.993,0.127,0.01,0.077,-0.0052769809895165665,-4.522951590053563,-8.16386706153784
1621784803757.865,0.12840078431372548,0.010311285403050109,0.07668871459694988,-0.01,-4.531,-8.179
1621784803762.596,0.136,0.012,0.075,-0.0815190193965517,-4.582159590517241,-8.242949488146552
1621784803768.203,0.148,0.01,0.077,-0.16628038793103447,-4.642791810344828,-8.318739762931035
1621784803773.813,0.159,0.023,0.073,-0.2510897359913793,-4.703458351293103,-8.39457293911638
1621784803775.99,0.16636910095254664,0.02416354225566526,0.07106076290722456,-0.284,-4.727,-8.424
1621784803779.426,0.178,0.026,0.068,-0.3379451281016744,-4.749145894694372,-8.442549552820926
1621784803785.04,0.201,0.017,0.068,-0.42608412346177116,-4.785329271736938,-8.472856996839486
1621784803790.657,0.218,0.017,0.059,-0.5142691143836997,-4.821531531168046,-8.5031802568758
1621784803794.143,0.232366447944007,0.0076305774278215225,0.05150446194225722,-0.569,-4.844,-8.522
1621784803796.238,0.241,0.002,0.047,-0.5943795785351426,-4.848699921950953,-8.510485191220168
1621784803801.755,0.272,-0.003,0.04,-0.6612135531486629,-4.861076583916419,-8.480162369404773
1621784803807.271,0.291,-0.01,0.028,-0.728038654817817,-4.873451602744041,-8.449843573277102
1621784803811.973,0.30890028326104274,-0.015966761087014253,0.02373802779498982,-0.785,-4.884,-8.424
1621784803812.787,0.312,-0.017,0.023,-0.7925824521996384,-4.887106064756479,-8.409200514983837
1621784803818.303,0.333,-0.026,0.019,-0.8439498712540404,-4.908148140031776,-8.308941215142715
1621784803823.818,0.349,-0.035,0.009,-0.895310469511861,-4.929187421245823,-8.208695228181668
1621784803829.334,0.358,-0.04,0.002,-0.946677888566263,-4.9502294965211195,-8.108435928340546
1621784803829.798,0.35842076139884904,-0.04042076139884905,0.0018316954404603808,-0.951,-4.952,-8.1
1621784803834.849,0.363,-0.045,0.0,-0.9787685681024446,-5.002153434225844,-8.011027240977882
1621784803840.365,0.374,-0.059,-0.002,-1.0090926658905703,-5.05692246798603,-7.913866356228172
1621784803845.878,0.38,-0.068,-0.009,-1.0394006573991645,-5.111662411833184,-7.8167570773128805
1621784803847.624,0.385065604249668,-0.069266401062417,-0.007733598937583001,-1.049,-5.129,-7.786
1621784803851.393,0.396,-0.072,-0.005,-1.0614767749270577,-5.153953549854116,-7.759143213292604
1621784803856.907,0.394,-0.08,-0.012,-1.0797296549456872,-5.1904593098913745,-7.719853115625385
1621784803862.42,0.393,-0.093,-0.003,-1.0979793022204567,-5.226958604440913,-7.6805699765763045
1621784803865.447,0.3891572212875233,-0.09629381032498008,-0.001353094837509962,-1.108,-5.247,-7.659
1621784803867.934,0.386,-0.099,0.0,-1.1504330382834125,-5.235972993340824,-7.664443712148201
1621784803873.448,0.367,-0.101,0.0,-1.2445088377956208,-5.211525663862322,-7.676512646954044
1621784803878.961,0.346,-0.124,0.0,-1.3385679756652324,-5.187082664218575,-7.6885794442465265
1621784803883.265,0.32258001948454523,-0.13727132229209105,-0.002341998051545479,-1.412,-5.168,-7.698
1621784803884.474,0.316,-0.141,-0.003,-1.4352802877697841,-5.1806242959917785,-7.691348489208633
1621784803889.985,0.291,-0.157,-0.005,-1.5413788009592326,-5.238158766700925,-7.6610346282973625
1621784803895.498,0.278,-0.18,0.0,-1.6475149160671463,-5.295713627954779,-7.630710023980815
1621784803901.01,0.246,-0.204,-0.007,-1.7536322302158274,-5.35325829393628,-7.600390791366906
1621784803901.081,0.24558894559373007,-0.20425193657158477,-0.007119338376013852,-1.755,-5.354,-7.6
1621784803906.368,0.215,-0.223,-0.016,-1.7966291477446856,-5.389595937926615,-7.635595937926615
1621784803911.82,0.188,-0.243,-0.024,-1.8395597470258824,-5.42630471122503,-7.6723047112250295
1621784803917.272,0.18,-0.257,-0.033,-1.882488423926671,-5.463011840748893,-7.709011840748892
1621784803918.607,0.18195924217315357,-0.25993886325973037,-0.03740829488959556,-1.893,-5.472,-7.718
1621784803922.723,0.188,-0.269,-0.051,-1.9455886927950534,-5.5269259680303895,-7.766147869847916
1621784803928.17,0.211,-0.279,-0.08,-2.01518394310352,-5.599614340574788,-7.829866187908112
1621784803933.618,0.239,-0.295,-0.112,-2.0847916707102354,-5.672315744964024,-7.893595929628038
1621784803936.217,0.25475205129354794,-0.29929601398914946,-0.12250136752903197,-2.118,-5.707,-7.924
1621784803939.063,0.272,-0.304,-0.134,-2.0816006911195304,-5.756179510665167,-7.8319501922089465
1621784803944.508,0.284,-0.309,-0.143,-2.011958949165244,-5.850273242016737,-7.655833964777885
1621784803949.95,0.288,-0.325,-0.155,-1.9423578000749406,-5.944312127898747,-7.479820392189517
1621784803953.809,0.28090593304012207,-0.3257094066959878,-0.155,-1.893,-6.011,-7.355
1621784803955.39,0.278,-0.326,-0.155,-1.8770829548768801,-6.012798536172104,-7.337374345513382
1621784803960.83,0.271,-0.332,-0.159,-1.8223061955751843,-6.018988000499979,-7.276717595100204
1621784803966.267,0.264,-0.332,-0.157,-1.7675613932752803,-6.0251738538672,-7.216096232101441
1621784803971.388,0.2555214462160341,-0.33294206153155176,-0.15888412306310354,-1.716,-6.031,-7.159
1621784803971.703,0.255,-0.333,-0.159,-1.7153006088914837,-6.027843773459003,-7.16145683543248
1621784803977.137,0.255,-0.326,-0.159,-1.7032331303695054,-5.973385408846998,-7.203847721522506
1621784803982.571,0.255,-0.328,-0.161,-1.6911656518475269,-5.9189270442349935,-7.246238607612534
1621784803988.002,0.25,-0.333,-0.162,-1.6791052214529987,-5.864500486557122,-7.288604734895877
1621784803988.95,0.24772995458020416,-0.3357939020551334,-0.1614761433646625,-1.677,-5.855,-7.296
1621784803993.431,0.237,-0.349,-0.159,-1.6545264439466252,-5.817203564819325,-7.2911477549430215
1621784803998.86,0.213,-0.358,-0.147,-1.627297123933824,-5.7714087993432495,-7.2852686972129845
1621784804004.286,0.19,-0.379,-0.143,-1.6000849462215976,-5.725642864099959,-7.279393340661481
1621784804006.496,0.17940931383577052,-0.3781853318335208,-0.14014866141732282,-1.589,-5.707,-7.277
1621784804009.712,0.164,-0.377,-0.136,-1.4003344473621389,-5.726976352632244,-7.2551739850869925
1621784804015.044,0.145,-0.361,-0.11,-1.0875151587491048,-5.760098394955977,-7.218985086992544
1621784804020.433,0.126,-0.346,-0.086,-0.771344234900931,-5.793575316304608,-7.182408450704226
1621784804023.882,0.11895603100494084,-0.31974520647296134,-0.06678917546802049,-0.569,-5.815,-7.159
1621784804025.819,0.115,-0.305,-0.056,-0.42928946260698747,-5.849955465132594,-7.1392958046864035
1621784804031.203,0.106,-0.267,-0.017,-0.040973761751087356,-5.947111744071839,-7.084529367195174
1621784804036.585,0.113,-0.215,0.012,0.3472186754595201,-6.04423718254525,-7.029780314297741
1621784804041.282,0.13046776829489742,-0.1538628109678591,0.04606214817504993,0.686,-6.129,-6.982
1621784804041.963,0.133,-0.145,0.051,0.71445278511607,-6.139385658479005,-6.97471044348266
1621784804047.341,0.162,-0.087,0.087,0.9391879602045978,-6.221417092912146,-6.917133663088078
1621784804052.716,0.194,-0.007,0.124,1.1637905120566578,-6.30340011803721,-6.859590860547468
1621784804058.087,0.234,0.058,0.154,1.3882196335225676,-6.38531983868248,-6.802092490585127
1621784804058.656,0.23845009090909092,0.06626445454545454,0.1574965,1.412,-6.394,-6.796
1621784804063.458,0.276,0.136,0.187,1.4338676696173493,-6.388463881109532,-6.758077585600293
1621784804068.826,0.312,0.215,0.213,1.4583124533824958,-6.382275328257596,-6.715685998564533
1621784804074.192,0.349,0.29,0.239,1.4827483428796602,-6.3760890271190735,-6.673309835765653
1621784804076.004,0.36082546547093364,0.313988801383894,0.24778463149269359,1.491,-6.374,-6.659
1621784804079.555,0.384,0.361,0.265,1.3924127585818162,-6.311691223719069,-6.604684783834057
1621784804084.917,0.405,0.433,0.284,1.2435456851361253,-6.217604757341751,-6.522668620709092
1621784804090.276,0.41,0.492,0.3,1.094766726791049,-6.123573981173553,-6.44070100332563
1621784804093.329,0.41113986237068767,0.5239161463792553,0.31196855489222075,1.01,-6.07,-6.394
1621784804095.633,0.412,0.548,0.321,0.8950673017217048,-6.016462404741745,-6.373091038667796
1621784804100.988,0.394,0.604,0.342,0.6279343353090601,-5.892027349703641,-6.324493268416596
1621784804106.34,0.375,0.656,0.365,0.3609475162291843,-5.767660372565622,-6.275922085802992
1621784804110.629,0.355759914206179,0.6952818418290512,0.37462004289691053,0.147,-5.668,-6.237
1621784804111.69,0.351,0.705,0.377,0.07348171878757019,-5.657181256276432,-6.244253475905574
1621784804117.038,0.312,0.744,0.387,-0.2970869577516584,-5.602649410899422,-6.280814599510616
1621784804122.383,0.269,0.77,0.394,-0.6674357222670116,-5.548149927158032,-6.317354026109957
1621784804127.711,0.215,0.792,0.403,-1.0366003451153447,-5.493824698377675,-6.3537766226786045
1621784804127.89,0.21318522763743064,0.7923696758516345,0.4035377103296502,-1.049,-5.492,-6.355
1621784804133.036,0.161,0.803,0.419,-1.210558507920286,-5.565299693408278,-6.57789090444558
1621784804138.358,0.115,0.817,0.431,-1.377643331630046,-5.641106696758077,-6.808406077897008
1621784804143.678,0.087,0.801,0.44,-1.544666836995401,-5.716885879747913,-7.038836654743655
1621784804145.09,0.08062468999724441,0.7946246899972444,0.44239074125103334,-1.589,-5.737,-7.1
1621784804148.994,0.063,0.777,0.449,-1.5933186728833797,-5.832919997725593,-7.278429379655427
1621784804154.309,0.04,0.733,0.45,-1.5991987121169047,-5.963518763859669,-7.5213678427247395
1621784804159.621,0.03,0.688,0.456,-1.605075240234264,-6.094039546255757,-7.764161241257747
1621784804162.265,0.026514003219130833,0.6626020234536675,0.4594859967808692,-1.608,-6.159,-7.885
1621784804164.93,0.023,0.637,0.463,-1.6126615706537986,-6.224417374841639,-7.9808729697797895
1621784804170.237,0.031,0.572,0.471,-1.6219445701840542,-6.3546888015828955,-8.171793326785384
1621784804175.542,0.061,0.501,0.468,-1.6312237263526497,-6.484906293148852,-8.362634638652832
1621784804179.416,0.09168821660450338,0.4476609568540775,0.4628852972325828,-1.638,-6.58,-8.502
1621784804180.844,0.103,0.428,0.461,-1.6575989705127474,-6.557899033251583,-8.512675183938859
1621784804186.143,0.157,0.353,0.44,-1.7303286089089145,-6.475884760166544,-8.552289625278048
1621784804191.439,0.208,0.281,0.422,-1.8030146865909997,-6.393919608737809,-8.591880339930418
1621784804196.538,0.25133594614533383,0.21551457026927334,0.3988874953891553,-1.873,-6.315,-8.63
1621784804196.734,0.253,0.213,0.398,-1.8734466945630597,-6.3097312948972455,-8.621913683037947
1621784804202.025,0.283,0.162,0.38,-1.8855174733294298,-6.167358006883649,-8.403401636651862
1621784804207.315,0.302,0.127,0.365,-1.897586024192742,-6.02501099670099,-8.184929921023693
1621784804212.601,0.321,0.084,0.351,-1.909645663443824,-5.882769097842076,-7.966619528427186
1621784804213.633,0.3217812225661877,0.08087510973524928,0.34885163794298385,-1.912,-5.855,-7.924
1621784804217.885,0.325,0.068,0.34,-1.7776934214667925,-5.7986859243998055,-7.762782270295019
1621784804223.167,0.318,0.049,0.332,-1.6108512747875354,-5.728729848055627,-7.562509786247746
1621784804228.446,0.309,0.031,0.328,-1.4441016682404784,-5.658812573325321,-7.362348384696827
1621784804230.697,0.3043007135575943,0.025019089982392734,0.33013603929200264,-1.373,-5.629,-7.277
1621784804233.715,0.298,0.017,0.333,-1.343376185624704,-5.601150066725021,-7.219526252349725
1621784804238.98,0.279,0.023,0.335,-1.2916986611947365,-5.552567004835771,-7.119265666030508
1621784804244.244,0.255,0.012,0.339,-1.24003072220867,-5.503992954411744,-7.019023676620414
1621784804247.711,0.23654772843287392,-0.020291475242470648,0.33768198060234816,-1.206,-5.472,-6.953
1621784804249.505,0.227,-0.037,0.337,-1.2195160877750155,-5.452359434951931,-6.960286016066219
1621784804254.763,0.188,-0.059,0.312,-1.259131763116674,-5.394792906721083,-6.981641341055083
1621784804260.018,0.157,-0.075,0.295,-1.2987253653699686,-5.337258453446764,-7.002984767269749
1621784804264.7,0.1338264547313627,-0.0723261293920803,0.2905435489868005,-1.334,-5.286,-7.022
1621784804265.271,0.131,-0.072,0.29,-1.3277033139467926,-5.287649933778647,-7.030586390072556
1621784804270.521,0.108,-0.086,0.279,-1.269813644477715,-5.302818884602096,-7.109526848439479
1621784804275.769,0.091,-0.086,0.267,-1.2119455113440056,-5.317982192214672,-7.188437939076357
1621784804281.013,0.072,-0.093,0.257,-1.1541231429229528,-5.3331335080041455,-7.267286623286883
1621784804281.659,0.07089087606539052,-0.09484853989101578,0.2544120441525779,-1.147,-5.335,-7.277
1621784804286.255,0.063,-0.108,0.236,-1.1817414862020243,-5.377612604169671,-7.32205536491825
1621784804291.495,0.07,-0.122,0.209,-1.2213532397127944,-5.426198895585224,-7.373426857752531
1621784804296.731,0.087,-0.136,0.182,-1.2609317742726145,-5.474744441881254,-7.424755269759797
1621784804298.592,0.09837602014643473,-0.13528899874084785,0.17488998740847828,-1.275,-5.492,-7.443
1621784804301.966,0.119,-0.134,0.162,-1.2298881346139958,-5.531123564671048,-7.374533761825666
1621784804307.196,0.15,-0.131,0.14,-1.1599614790207264,-5.591767920849281,-7.2684061385137575
1621784804312.425,0.176,-0.119,0.124,-1.0900478804073084,-5.652400953275078,-7.162298331768614
1621784804315.495,0.1830497547302032,-0.10725040878299463,0.11048797010044382,-1.049,-5.688,-7.1
1621784804317.651,0.188,-0.099,0.101,-1.0127235273695174,-5.6679457528063875,-7.031151342437218
1621784804322.874,0.188,-0.091,0.08,-0.9248301122555259,-5.619356787408864,-6.864339544034255
1621784804328.094,0.19,-0.077,0.066,-0.8369901053118852,-5.5707973469505845,-6.697629108320796
1621784804332.372,0.18426093669583118,-0.06388214101904272,0.05944107050952136,-0.765,-5.531,-6.561
1621784804333.312,0.183,-0.061,0.058,-0.7540658281773,-5.517332285221625,-6.546216553402982
1621784804338.527,0.176,-0.045,0.044,-0.6933996348514048,-5.441499543564255,-6.464193383855216
1621784804343.74,0.161,-0.031,0.035,-0.6327590019271732,-5.365698752408966,-6.38220477301378
1621784804348.948,0.136,-0.005,0.017,-0.5721751698955269,-5.289968962369408,-6.300292959297524
1621784804349.221,0.13489919354838711,-0.004108870967741936,0.016580645161290323,-0.569,-5.286,-6.296
1621784804354.155,0.115,0.012,0.009,-0.6033213585891574,-5.211197038972349,-6.296
1621784804359.359,0.084,0.031,-0.014,-0.6395192684519921,-5.132304158502068,-6.296
1621784804364.56,0.063,0.059,-0.037,-0.6756984977139125,-5.053451992161985,-6.296
1621784804366.041,0.05359976520309932,0.06953965719652501,-0.04326682319793378,-0.686,-5.031,-6.296
1621784804369.759,0.03,0.096,-0.059,-0.6687295434719396,-5.065762329165455,-6.2873647717359695
1621784804374.955,0.005,0.117,-0.086,-0.6445935446350683,-5.114343762721721,-6.275296772317534
1621784804380.148,-0.016,0.157,-0.113,-0.6204722884559465,-5.162895521954056,-6.263236144227973
1621784804382.833,-0.029448149367445803,0.17665498753703618,-0.12231025725438556,-0.608,-5.188,-6.257
1621784804385.339,-0.042,0.195,-0.131,-0.5771988696779456,-5.253938342097213,-6.277484246864667
1621784804390.526,-0.051,0.227,-0.148,-0.5134511820313752,-5.390407906427978,-6.3198795536975805
1621784804395.711,-0.063,0.265,-0.161,-0.44972449856524843,-5.526832505498667,-6.3622608917308785
1621784804399.594,-0.06449863375106002,0.2927247243946104,-0.16999180250636012,-0.402,-5.629,-6.394
1621784804400.893,-0.065,0.302,-0.173,-0.39136452102360597,-5.660207755828543,-6.417599894954918
1621784804406.073,-0.063,0.337,-0.19,-0.3489565230077909,-5.784645822999036,-6.51170231390972
1621784804411.249,-0.058,0.391,-0.188,-0.30658050538356046,-5.908990049896413,-6.605733769075895
1621784804416.328,-0.058981597697352894,0.42535591940735146,-0.1830920115132355,-0.265,-6.031,-6.698
1621784804416.423,-0.059,0.426,-0.183,-0.26164304086046647,-6.0372066697842985,-6.70140825393114
1621784804421.594,-0.065,0.469,-0.161,-0.07933433682118435,-6.37427658268545,-6.886502659729936
1621784804426.763,-0.08,0.506,-0.113,0.10290550651779967,-6.711219179283335,-7.07152715262758
1621784804431.929,-0.105,0.529,-0.04,0.2850420588063365,-7.047970801426317,-7.2564467761734965
1621784804433.034,-0.11013637223378098,0.5304981085681861,-0.022450728201248348,0.324,-7.12,-7.296
1621784804437.092,-0.129,0.536,0.042,0.4956390282429685,-7.377458542364453,-7.696653142414182
1621784804442.258,-0.138,0.513,0.124,0.7141375144432581,-7.7052062716648875,-8.206689268842053
1621784804447.422,-0.136,0.461,0.197,0.9325533925202205,-8.032830088780331,-8.71653256497638
1621784804449.726,-0.12885718340508065,0.4328751596575051,0.22423198826813,1.03,-8.179,-8.944
1621784804452.583,-0.12,0.398,0.258,0.9778874956052971,-8.089860189851166,-9.164106761982891
1621784804457.742,-0.08,0.319,0.284,0.8837848353451307,-7.9288951130903556,-9.561566682292277
1621784804462.896,-0.007,0.244,0.286,0.789771241064104,-7.768082386030704,-9.958650416031876
1621784804466.392,0.07372000378949363,0.1944826867509829,0.27650352896594194,0.726,-7.659,-10.228
1621784804468.05,0.112,0.171,0.272,0.6370131770092005,-7.58665460975216,-10.064874099399844
1621784804473.2,0.253,0.112,0.248,0.36060498319857953,-7.361937533932999,-9.55817733202248
1621784804478.348,0.398,0.072,0.22,0.08430161851237727,-7.137305683135482,-9.051672731808242
1621784804483.03,0.5044736642308058,0.053799373635759706,0.2008893423175477,-0.167,-6.933,-8.591
1621784804483.493,0.515,0.052,0.199,-0.16752942991931574,-6.909510030421939,-8.519666284555354
1621784804488.634,0.588,0.045,0.176,-0.17340956454007025,-6.648617741722146,-7.72739551460106
1621784804493.774,0.618,0.07,0.169,-0.17928830298487722,-6.387787399144658,-6.935312860984965
1621784804498.911,0.604,0.098,0.171,-0.18516369060741003,-6.127105727260703,-6.143681686580544
1621784804499.642,0.5975909933900804,0.1014181368586238,0.171,-0.186,-6.09,-6.031
1621784804504.045,0.559,0.122,0.171,-0.1549380226121776,-5.808849281592274,-5.7445395418678595
1621784804509.176,0.482,0.141,0.168,-0.11873809033093864,-5.48119348427747,-5.410695721940878
1621784804514.305,0.391,0.159,0.169,-0.08255365975739018,-5.15367799729125,-5.076994862207043
1621784804516.226,0.3490240045722995,0.16762007048961708,0.1716234997142313,-0.069,-5.031,-4.952
1621784804519.431,0.279,0.182,0.176,-0.1030754856123066,-4.916963289626996,-4.970973849943216
1621784804524.555,0.159,0.201,0.176,-0.15755680594681493,-4.734636598280261,-5.001310039674931
1621784804529.675,0.031,0.209,0.182,-0.21199659297060514,-4.5524489019336,-5.031623102904087
1621784804532.779,-0.041779659399895044,0.21870395458665268,0.17836101703000523,-0.245,-4.442,-5.05
1621784804534.793,-0.089,0.225,0.176,-0.2676380134560906,-4.495795709395656,-5.143107958569405
1621784804539.908,-0.188,0.246,0.18,-0.3251345609065156,-4.632427289896128,-5.379585694050991
1621784804545.032,-0.271,0.258,0.176,-0.38273264872521245,-4.769300165250236,-5.6164810552407936
1621784804549.326,-0.3322091914569031,0.26890026697177727,0.16929214340198323,-0.431,-4.884,-5.815
1621784804550.153,-0.344,0.271,0.168,-0.4388547527281856,-4.925174913982782,-5.883191260945968
1621784804555.27,-0.405,0.278,0.171,-0.4874461820168638,-5.179893043311331,-6.305039147063601
1621784804560.386,-0.443,0.267,0.173,-0.5360283376895701,-5.43456255999055,-6.72680652401837
1621784804565.499,-0.459,0.258,0.178,-0.5845826725143608,-5.689086238721776,-7.148332373484546
1621784804565.859,-0.45850714115118224,0.2568030570814426,0.1775071411511822,-0.588,-5.707,-7.178
1621784804570.61,-0.452,0.241,0.171,-0.6755052729666169,-5.915976408466328,-7.553639411912616
1621784804575.717,-0.419,0.222,0.157,-0.7695618630655682,-6.140598396663166,-7.9574020766466
1621784804580.822,-0.36,0.192,0.147,-0.8635824816222692,-6.365134479137393,-8.36101032406928
1621784804582.365,-0.3403463783370012,0.18202200746340064,0.1436740024878002,-0.892,-6.433,-8.483
1621784804585.925,-0.295,0.159,0.136,-0.892,-6.515736896684542,-8.56984133803443
1621784804591.025,-0.211,0.119,0.12,-0.892,-6.634259118248348,-8.694243252051791
1621784804596.122,-0.122,0.091,0.103,-0.892,-6.752718926846612,-8.818579656899054
1621784804598.845,-0.07656482147136352,0.07870577522166307,0.0939129642942727,-0.892,-6.816,-8.885
1621784804601.216,-0.037,0.068,0.086,-0.8398244661116305,-6.784867637237879,-8.790305729931882
1621784804606.308,0.04,0.054,0.068,-0.7277749283944022,-6.7180093495392015,-8.586945104848404
1621784804611.398,0.105,0.031,0.052,-0.615773741151329,-6.651179911847201,-8.383672231868571
1621784804615.296,0.14101295771944136,0.025636367999232135,0.04280520228439794,-0.53,-6.6,-8.228
1621784804616.485,0.152,0.024,0.04,-0.4966265735305046,-6.5659026380322505,-8.15343464367987
1621784804621.57,0.185,0.017,0.031,-0.3539245151222412,-6.420105090287582,-7.83459924203017
1621784804626.651,0.188,0.017,0.026,-0.2113389314111615,-6.2744265438061975,-7.516024076688712
1621784804631.723,0.18001115170159585,0.02099442414920208,0.024002787925398963,-0.069,-6.129,-7.198
1621784804631.73,0.18,0.021,0.024,-0.06894048185603807,-6.128839559785841,-7.197725267697799
1621784804636.807,0.155,0.016,0.028,-0.026261867935752525,-6.013792861392028,-7.000723259964307
1621784804641.881,0.124,0.019,0.03,0.01639417013682333,-5.898807019631172,-6.803825461035098
1621784804646.966,0.08,0.021,0.024,0.05914051160023798,-5.7835777513384885,-6.606510826888757
1621784804648.139,0.06961671469740634,0.01984630163304515,0.024922958693563882,0.069,-5.757,-6.561
1621784804652.049,0.035,0.016,0.028,0.06423708979525078,-5.766287674899261,-6.544567959793615
1621784804657.13,-0.014,0.01,0.024,0.05804822089720905,-5.778355969250442,-6.523216362095371
1621784804662.208,-0.051,0.009,0.026,0.05186262322870355,-5.790417884704028,-6.501876050139027
1621784804664.558,-0.06951955172911356,0.009,0.02507402241354432,0.049,-5.796,-6.492
1621784804667.284,-0.091,0.009,0.024,0.042515004840271056,-5.831750614342096,-6.555519696179909
1621784804672.357,-0.112,0.01,0.03,0.0304458857696031,-5.898285501526547,-6.673735170154144
1621784804677.427,-0.131,0.01,0.031,0.018383736689254603,-5.964781964405391,-6.791882373966788
1621784804680.951,-0.13447589462023793,0.011390357848095169,0.026133747531666907,0.01,-6.011,-6.874
1621784804682.496,-0.136,0.012,0.024,-0.002932894815345149,-6.0249713024282565,-6.900904197243601
1621784804687.562,-0.126,0.012,0.017,-0.04533415369011396,-6.070777041942605,-6.989111195632718
1621784804692.625,-0.119,0.021,0.012,-0.08771089135493111,-6.1165562913907285,-7.0772671827456595
1621784804697.319,-0.10601254462993341,0.01728929846569526,0.005506272314966709,-0.127,-6.159,-7.159
1621784804697.685,-0.105,0.017,0.005,-0.1278958881185752,-6.158552055940712,-7.158552055940712
1621784804702.743,-0.096,0.021,0.003,-0.140277551996175,-6.152361224001912,-7.152361224001912
1621784804707.799,-0.084,0.019,0.0,-0.15265503227348792,-6.146172483863256,-7.146172483863256
1621784804712.853,-0.079,0.024,-0.007,-0.16502713363614632,-6.139986433181927,-7.139986433181927
1621784804713.659,-0.077882910321489,0.023521247280638143,-0.007319168479574571,-0.167,-6.139,-7.139
1621784804717.903,-0.072,0.021,-0.009,-0.18234999551019188,-6.110901703133886,-7.103356790086504
1621784804722.951,-0.07,0.021,-0.007,-0.20060681253554433,-6.07748244485019,-7.060963842078482
1621784804727.997,-0.079,0.019,-0.007,-0.21885744859169687,-6.044074500882996,-7.018585246490466
1621784804729.972,-0.08174070667957406,0.01782541142303969,-0.007783059051306873,-0.226,-6.031,-7.002
1621784804733.041,-0.086,0.016,-0.009,-0.226,-6.023651402961808,-7.0093485970381915
1621784804738.082,-0.093,0.01,-0.003,-0.226,-6.011581254871395,-7.021418745128605
1621784804743.119,-0.101,0.016,-0.009,-0.226,-5.999521044427124,-7.0334789555728765
1621784804746.26,-0.10785123686885802,0.01662283971535073,-0.005262961707895628,-0.226,-5.992,-7.041
1621784804748.162,-0.112,0.017,-0.003,-0.23509087917184018,-5.994214444926474,-7.056967313417207
1621784804753.213,-0.115,0.021,-0.005,-0.25923054138555207,-6.000094619055455,-7.09936646371565
1621784804758.262,-0.124,0.031,-0.003,-0.2833620356934492,-6.005972803566353,-7.1417512678205455
1621784804762.58,-0.12057775842886857,0.02501107725052,-0.004711120785565714,-0.304,-6.011,-7.178
1621784804763.309,-0.12,0.024,-0.005,-0.31496083543090014,-6.013639548124176,-7.178894762075992
1621784804768.352,-0.12,0.024,-0.003,-0.39078368093012106,-6.031898927244397,-7.185084382116744
1621784804773.394,-0.108,0.017,-0.009,-0.46659184346158455,-6.05015477046626,-7.191272803547885
1621784804778.434,-0.106,0.017,-0.014,-0.5423706400575333,-6.068403541891406,-7.197458827759799
1621784804778.875,-0.1052996946342882,0.01656230914643013,-0.014262614512141922,-0.549,-6.07,-7.198
1621784804783.471,-0.098,0.012,-0.017,-0.5766829927073017,-6.058983298820563,-7.181333708472135
1621784804788.505,-0.098,0.009,-0.026,-0.607004141532367,-6.046916719186099,-7.1630791392815345
1621784804793.538,-0.091,-0.002,-0.03,-0.6373208787251283,-6.034851895201224,-7.144827226073647
1621784804795.145,-0.0897221278454594,-0.004555744309081202,-0.03223627627044605,-0.647,-6.031,-7.139
1621784804798.568,-0.087,-0.01,-0.037,-0.647,-6.0061385766664666,-7.139
1621784804803.596,-0.087,-0.012,-0.044,-0.647,-5.969622197511571,-7.139
1621784804808.621,-0.096,-0.023,-0.045,-0.647,-5.933125323075074,-7.139
1621784804811.392,-0.10096500437445319,-0.01913832993098085,-0.04996500437445319,-0.647,-5.913,-7.139
1621784804813.644,-0.105,-0.016,-0.054,-0.6579662447892368,-5.904948832939548,-7.147189980285633
1621784804818.664,-0.112,-0.033,-0.059,-0.6824120302788604,-5.887001294225647,-7.165446959322187
1621784804823.683,-0.113,-0.038,-0.063,-0.7068530602416891,-5.869057246911165,-7.183700386762781
1621784804827.615,-0.11770425003651233,-0.04819254174577674,-0.0684882917092644,-0.726,-5.855,-7.198
1621784804828.698,-0.119,-0.051,-0.07,-0.7286078777189888,-5.860215755437978,-7.211774943849019
1621784804833.712,-0.126,-0.063,-0.073,-0.7406813639035861,-5.884362727807172,-7.275547717029199
1621784804838.724,-0.127,-0.072,-0.08,-0.752750734861846,-5.908501469723692,-7.3392987533728276
1621784804843.732,-0.122,-0.086,-0.082,-0.7648095238095238,-5.932619047619047,-7.4029938949938945
1621784804843.811,-0.12184255794742213,-0.08601574420525777,-0.08217318625783566,-0.765,-5.933,-7.404
1621784804848.756,-0.112,-0.087,-0.093,-0.7589058880163673,-5.968955260703433,-7.445744667087884
1621784804853.779,-0.105,-0.098,-0.098,-0.752715798658122,-6.005476787917081,-7.488146779191864
1621784804858.8,-0.093,-0.113,-0.105,-0.7465281162559798,-6.041984114089719,-7.530532403646538
1621784804860.04,-0.08904535500510974,-0.11522448780962577,-0.10574149593654192,-0.745,-6.051,-7.541
1621784804863.817,-0.077,-0.122,-0.108,-0.7405720096414583,-6.0463389575173245,-7.522821934317566
1621784804868.833,-0.065,-0.133,-0.117,-0.7346911117806568,-6.040148538716481,-7.498679300994276
1621784804873.847,-0.052,-0.145,-0.119,-0.7288127899969871,-6.033960831575776,-7.474547243145526
1621784804876.246,-0.048169744214372714,-0.153139293544458,-0.12283025578562728,-0.726,-6.031,-7.463
1621784804878.858,-0.044,-0.162,-0.127,-0.7195446303308242,-6.021478329737965,-7.439276516465779
1621784804883.868,-0.037,-0.155,-0.131,-0.7071618820618806,-6.003213776041274,-7.393769916577411
1621784804888.874,-0.037,-0.159,-0.134,-0.6947887884867776,-5.984963463017997,-7.348298797688908
1621784804892.43,-0.032737073170731705,-0.1675258536585366,-0.1354209756097561,-0.686,-5.972,-7.316
1621784804893.879,-0.031,-0.171,-0.136,-0.6807998368481479,-5.973793159707536,-7.312503338570306
1621784804898.882,-0.038,-0.169,-0.141,-0.6628441597679618,-5.979984772493807,-7.300429693637078
1621784804903.882,-0.037,-0.162,-0.145,-0.6448998731041151,-5.986172457550305,-7.288363707776905
1621784804908.591,-0.035115578134922575,-0.162,-0.145,-0.628,-5.992,-7.277
1621784804908.88,-0.035,-0.162,-0.145,-0.626586148469766,-5.99269797733771,-7.277
1621784804913.875,-0.035,-0.164,-0.145,-0.6021335683272568,-6.004769504243506,-7.277
1621784804918.869,-0.028,-0.169,-0.152,-0.5776869638885948,-6.016838081118289,-7.277
1621784804923.861,-0.023,-0.171,-0.152,-0.5532487254353187,-6.028902527949652,-7.277
1621784804924.729,-0.023521898703205285,-0.1706520675311965,-0.15234793246880352,-0.549,-6.031,-7.277
1621784804928.85,-0.026,-0.169,-0.154,-0.5390271166926724,-6.025885700868037,-7.291831467482693
1621784804933.838,-0.019,-0.171,-0.157,-0.5269568556755693,-6.019695823423369,-7.309782112072231
1621784804938.822,-0.012,-0.176,-0.157,-0.5148954568178031,-6.013510490675796,-7.32771957704019
1621784804940.845,-0.009157600705674802,-0.176,-0.157,-0.51,-6.011,-7.335
1621784804943.804,-0.005,-0.176,-0.157,-0.4954753416968796,-6.014677128684334,-7.331506727749883
1621784804948.785,-0.005,-0.178,-0.164,-0.47102550021996026,-6.02086696196963,-7.325626386128851
1621784804953.763,0.0,-0.175,-0.164,-0.446590039592846,-6.027053154533457,-7.319749503193216
1621784804956.939,0.004466938094770921,-0.175,-0.1627237319729226,-0.431,-6.031,-7.316
1621784804958.74,0.007,-0.175,-0.162,-0.431,-6.028758806641248,-7.309388479591681
1621784804963.712,0.014,-0.173,-0.162,-0.431,-6.022571751910194,-7.291136668135073
1621784804968.684,0.017,-0.176,-0.162,-0.431,-6.016384393370904,-7.272883960444167
1621784804973.011,0.017,-0.17338817114506067,-0.16374121923662624,-0.431,-6.011,-7.257
1621784804973.654,0.017,-0.173,-0.164,-0.4326029454274369,-6.007874256416498,-7.25463565549453
1621784804978.621,0.021,-0.175,-0.161,-0.4449840861720093,-5.983731031964582,-7.236373472896286
1621784804983.586,0.019,-0.176,-0.162,-0.4573597498820916,-5.959598487729921,-7.218119368923915
1621784804988.549,0.017,-0.169,-0.164,-0.4697311536764594,-5.935474250330904,-7.199871548327223
1621784804989.058,0.016897351319417095,-0.16992383812524617,-0.1636920539582513,-0.471,-5.933,-7.198
1621784804993.508,0.016,-0.178,-0.161,-0.46544552795977445,-5.933,-7.198
1621784804998.467,0.016,-0.178,-0.166,-0.4592556757580375,-5.933,-7.198
1621784805003.423,0.014,-0.178,-0.164,-0.4530694804205394,-5.933,-7.198
1621784805005.081,0.015673731946566766,-0.17967373194656677,-0.1633305072213733,-0.451,-5.933,-7.198
1621784805008.376,0.019,-0.183,-0.162,-0.45511865234375,-5.924968627929688,-7.20211865234375
1621784805013.327,0.017,-0.178,-0.166,-0.46130731201171876,-5.912900741577149,-7.208307312011719
1621784805018.277,0.012,-0.175,-0.161,-0.4674950561523437,-5.9008346405029295,-7.2144950561523435
1621784805021.081,0.009166016878053596,-0.17953437299511424,-0.16156679662438928,-0.471,-5.894,-7.218
1621784805023.224,0.007,-0.183,-0.162,-0.4683171141708819,-5.89923162736678,-7.22323162736678
1621784805028.169,0.002,-0.18,-0.161,-0.46212673258248393,-5.911302871464156,-7.235302871464156
1621784805033.112,-0.009,-0.185,-0.157,-0.45593849045646956,-5.923369943609885,-7.247369943609884
1621784805037.057,-0.005805772462192349,-0.18340288623109618,-0.15540288623109616,-0.451,-5.933,-7.257
1621784805038.052,-0.005,-0.183,-0.155,-0.4485674236395911,-5.935432576360409,-7.25575252494338
1621784805042.99,-0.009,-0.182,-0.152,-0.43649644977658075,-5.947503550223419,-7.249562281936708
1621784805047.927,-0.01,-0.187,-0.154,-0.4244278631327661,-5.9595721368672345,-7.243373263145008
1621784805052.861,-0.014,-0.182,-0.148,-0.4123664381465385,-5.971633561853462,-7.237187916998225
1621784805053.011,-0.014,-0.1818783736938543,-0.14806081315307285,-0.412,-5.972,-7.237
1621784805057.791,-0.014,-0.178,-0.15,-0.38559784241012596,-5.989701446565938,-7.201897131386191
1621784805062.721,-0.016,-0.182,-0.141,-0.35836770970608967,-6.00795801281069,-7.165693432222869
1621784805067.648,-0.019,-0.166,-0.141,-0.33115375892610865,-6.026203729810904,-7.129511247663122
1621784805068.943,-0.017159173152233184,-0.16547404947206662,-0.13915917315223317,-0.324,-6.031,-7.12
1621784805072.573,-0.012,-0.164,-0.134,-0.29707472490369713,-6.022100968400374,-7.081893890329809
1621784805077.496,-0.016,-0.148,-0.134,-0.2605568225417824,-6.0100314921960125,-7.030211774275235
1621784805082.416,-0.019,-0.145,-0.12,-0.22406246259150692,-5.99796979695821,-6.9785629767184885
1621784805084.851,-0.024941620333598095,-0.1380681096108022,-0.11851459491660048,-0.206,-5.992,-6.953
1621784805087.334,-0.031,-0.131,-0.117,-0.17536794062053385,-5.979653404637868,-6.9345582499654235
1621784805092.251,-0.044,-0.113,-0.108,-0.11470622224271203,-5.955203018148849,-6.89803741951347
1621784805097.165,-0.049,-0.11,-0.101,-0.05408064788775682,-5.930767199913943,-6.861538349238548
1621784805100.738,-0.05627421840051692,-0.09254187583875938,-0.0922709379193797,-0.01,-5.913,-6.835
1621784805102.077,-0.059,-0.086,-0.089,-0.008311966140823393,-5.913,-6.839979699884571
1621784805106.986,-0.075,-0.08,-0.075,-0.0021225086571758367,-5.913,-6.858238599461331
1621784805111.893,-0.082,-0.063,-0.072,0.004064178530203926,-5.913,-6.876489326664101
1621784805116.601,-0.0935179931312528,-0.051482006868747196,-0.05664267582499627,0.01,-5.913,-6.894
1621784805116.798,-0.094,-0.051,-0.056,0.009751171682289098,-5.913497656635422,-6.897048146891959
1621784805121.701,-0.106,-0.03,-0.052,0.0035591391218549586,-5.925881721756291,-6.972900545757277
1621784805126.601,-0.112,-0.023,-0.047,-0.0026295017266896887,-5.938259003453379,-7.0487113961519485
1621784805131.499,-0.11,-0.012,-0.037,-0.008815367538233842,-5.950630735076468,-7.124488252343365
1621784805132.437,-0.10961683454672384,-0.009701007280343073,-0.03585050364017153,-0.01,-5.953,-7.139
1621784805136.395,-0.108,0.0,-0.031,-0.03928522464103752,-5.957755720240852,-7.195568040759611
1621784805141.289,-0.108,0.012,-0.024,-0.07549615562760538,-5.963636127836962,-7.265513941639648
1621784805146.181,-0.098,0.024,-0.023,-0.11169082908754054,-5.969513895321909,-7.335428439092173
1621784805148.25,-0.09292261607588617,0.024,-0.020461308037943087,-0.127,-5.972,-7.365
1621784805151.071,-0.086,0.024,-0.017,-0.1480779433588919,-5.961461028320555,-7.378932877813505
1621784805155.957,-0.073,0.023,-0.012,-0.18458446697996536,-5.943207766510017,-7.403064308681672
1621784805160.843,-0.066,0.024,-0.009,-0.22109099060103882,-5.924954504699481,-7.427195739549839
1621784805164.043,-0.06141277936103195,0.029897855107244638,-0.009655317234138292,-0.245,-5.913,-7.443
1621784805165.726,-0.059,0.033,-0.01,-0.24916214124276292,-5.898379144865166,-7.438837858757236
1621784805170.606,-0.056,0.023,-0.009,-0.26122957367101146,-5.855988420694139,-7.426770426328988
1621784805175.485,-0.058,0.023,-0.009,-0.27329519489767484,-5.813604058949194,-7.414704805102325
1621784805179.814,-0.058,0.01767324253955538,-0.005448828359703585,-0.284,-5.776,-7.404
1621784805180.361,-0.058,0.017,-0.005,-0.28605016126031135,-5.775339778577187,-7.405355191341561
1621784805185.234,-0.066,0.016,-0.007,-0.30430949575141103,-5.7694596539105625,-7.417424920920424
1621784805190.106,-0.065,0.021,-0.003,-0.3225660857160578,-5.763580413074489,-7.429492836320784
1621784805194.976,-0.072,0.005,-0.003,-0.3408153569434969,-5.75770352911989,-7.441555913911802
1621784805195.559,-0.072,0.004760421369450715,-0.003,-0.343,-5.757,-7.443
1621784805199.843,-0.072,0.003,-0.003,-0.3724280168330823,-5.772803934965914,-7.464526049350125
1621784805204.708,-0.073,0.005,-0.002,-0.4058475239529792,-5.790751448048822,-7.488971799928568
1621784805209.571,-0.068,0.0,-0.005,-0.4392536142988028,-5.808691755827135,-7.513407736385235
1621784805211.281,-0.06694443886265448,-0.002462975987139556,-0.005,-0.451,-5.815,-7.522
1621784805214.431,-0.065,-0.007,-0.005,-0.44116845248277686,-5.799349781503196,-7.5535010808204905
1621784805219.29,-0.058,-0.014,-0.01,-0.42600202167861534,-5.775207299814939,-7.602095563193008
1621784805224.146,-0.052,-0.017,-0.01,-0.4108454970996688,-5.751080587219881,-7.650658305211266
1621784805226.98,-0.0502488182641054,-0.0181674544905964,-0.005913909282912602,-0.402,-5.737,-7.679
1621784805229.001,-0.049,-0.019,-0.003,-0.39942154526623996,-5.749634428195424,-7.656180675606223
1621784805233.853,-0.054,-0.028,-0.007,-0.393231135822081,-5.7799674344718035,-7.6013955520254175
1621784805238.701,-0.054,-0.028,-0.017,-0.387046021585759,-5.810274494229781,-7.546657291033967
1621784805242.656,-0.052368415751838045,-0.02636841575183805,-0.014552623627757076,-0.382,-5.835,-7.502
1621784805243.549,-0.052,-0.026,-0.014,-0.3764087343055447,-5.838366170162988,-7.497549808937066
1621784805248.394,-0.045,-0.031,-0.01,-0.3460755829369102,-5.8566279653747175,-7.473407096623255
1621784805253.237,-0.04,-0.033,-0.007,-0.3157546595960383,-5.87488239881463,-7.4492741168213366
1621784805258.078,-0.037,-0.031,-0.005,-0.2854474927863994,-5.89312855026125,-7.425152086095298
1621784805258.309,-0.03690442549326336,-0.030426552959580157,-0.0052389362668416005,-0.284,-5.894,-7.424
1621784805262.916,-0.035,-0.019,-0.01,-0.27839971883786313,-5.899600281162137,-7.412209934395502
1621784805267.752,-0.017,-0.016,-0.009,-0.272521055920025,-5.9054789440799755,-7.399833801936895
1621784805272.586,-0.012,-0.01,-0.005,-0.2666447672602312,-5.911355232739769,-7.387462667916276
1621784805273.939,-0.010039915117219078,-0.00971998787388844,-0.005,-0.265,-5.913,-7.384
1621784805277.418,-0.005,-0.009,-0.005,-0.265,-5.891156137085296,-7.377535999749731
1621784805282.248,0.0,-0.009,-0.007,-0.265,-5.860829190846381,-7.368561699332092
1621784805287.075,0.0,-0.01,-0.007,-0.265,-5.830522172342056,-7.35959329589714
1621784805289.547,0.001537114810504478,-0.008462885189495522,-0.005975256792997015,-0.265,-5.815,-7.355
1621784805291.9,0.003,-0.007,-0.005,-0.2591131038155504,-5.803226207631101,-7.3402072865108705
1621784805296.723,0.0,0.0,-0.005,-0.24704548587181255,-5.779090971743625,-7.309883528600965
1621784805301.544,-0.003,0.0,0.0,-0.23498275483992231,-5.754965509679844,-7.279572050623394
1621784805305.134,-0.00821480318151882,0.005214803181518821,-0.0014899437661482346,-0.226,-5.737,-7.257
1621784805306.363,-0.01,0.007,-0.002,-0.22750042355598782,-5.737,-7.25542060678317
1621784805311.179,-0.014,0.005,0.002,-0.23337991403382174,-5.737,-7.249231669438082
1621784805315.992,-0.028,0.003,0.0,-0.2392558278166473,-5.737,-7.243046497035108
1621784805320.697,-0.03288888888888889,0.008866666666666665,0.006844444444444445,-0.245,-5.737,-7.237
1621784805320.804,-0.033,0.009,0.007,-0.24513760603204524,-5.737536663524977,-7.237543543826579
1621784805325.614,-0.038,0.005,0.0,-0.2513273641218976,-5.761676720075401,-7.261993088281495
1621784805330.422,-0.044,0.002,0.002,-0.25751460885956645,-5.785806974552309,-7.2864327049952875
1621784805335.227,-0.045,0.007,0.007,-0.26369776939993717,-5.809921300659755,-7.310856189129752
1621784805336.239,-0.044789305139023024,0.006578610278046053,0.006578610278046053,-0.265,-5.815,-7.316
1621784805340.03,-0.044,0.005,0.005,-0.2696419333522137,-5.815,-7.332613235155291
1621784805344.83,-0.045,0.002,0.009,-0.27551938386985114,-5.815,-7.353648321218415
1621784805349.629,-0.038,0.012,0.009,-0.2813953396897322,-5.815,-7.374678057836936
1621784805351.756,-0.038886864471474374,0.007565677642628124,0.009,-0.284,-5.815,-7.384
1621784805354.426,-0.04,0.002,0.009,-0.2874464175976553,-5.811725903282228,-7.394166931913084
1621784805359.22,-0.037,0.01,0.012,-0.29363459023367944,-5.805847139278005,-7.412422041189354
1621784805364.011,-0.035,0.01,0.01,-0.2998189811386162,-5.799971967918315,-7.430665994358917
1621784805367.25,-0.03364760448521917,0.014733384301732926,0.011352395514780836,-0.304,-5.796,-7.443
1621784805368.801,-0.033,0.017,0.012,-0.3060052079223546,-5.793994792077646,-7.441095052473763
1621784805373.589,-0.031,0.01,0.01,-0.31219537599621244,-5.787804624003788,-7.435214392803598
1621784805378.374,-0.028,0.019,0.014,-0.3183814408585181,-5.7816185591414815,-7.429337631184408
1621784805382.72,-0.03072589454341279,0.02263452605788372,0.009456842427645346,-0.324,-5.776,-7.424
1621784805383.157,-0.031,0.023,0.009,-0.32564087812742015,-5.775462470958259,-7.422868359912124
1621784805387.938,-0.028,0.023,0.012,-0.34359245151807305,-5.76958178312339,-7.410487964470295
1621784805392.716,-0.03,0.019,0.01,-0.3615330246084304,-5.763704698835169,-7.398115155442462
1621784805397.492,-0.03,0.012,0.005,-0.3794653474735661,-5.757830317206935,-7.385748036225127
1621784805398.167,-0.029717265708880822,0.012989570018917122,0.005282734291119178,-0.382,-5.757,-7.384
1621784805402.267,-0.028,0.019,0.007,-0.382,-5.751682834934857,-7.370972945590401
1621784805407.039,-0.033,0.023,0.005,-0.382,-5.745494356408998,-7.355811173202046
1621784805411.808,-0.035,0.023,0.005,-0.382,-5.73930967721509,-7.34065870917697
1621784805413.589,-0.035747094065236316,0.022252905934763687,0.005747094065236316,-0.382,-5.737,-7.335
1621784805416.576,-0.037,0.021,0.007,-0.3858794989693991,-5.737,-7.340819248454099
1621784805421.341,-0.04,0.023,0.007,-0.39206881243063263,-5.737,-7.350103218645949
1621784805426.104,-0.042,0.016,0.007,-0.3982552719200888,-5.737,-7.359382907880133
1621784805428.987,-0.04321111737859597,0.016,0.005788882621404031,-0.402,-5.737,-7.365
1621784805430.865,-0.044,0.016,0.005,-0.40322141768292685,-5.741763528963415,-7.369763528963415
1621784805435.624,-0.044,0.016,0.009,-0.4063167238313008,-5.753835222942073,-7.381835222942073
1621784805440.381,-0.049,0.021,0.005,-0.40941075965447155,-5.765901962652439,-7.393901962652439
1621784805444.362,-0.04732484076433121,0.021,0.0024872611464968153,-0.412,-5.776,-7.404
1621784805445.134,-0.047,0.021,0.002,-0.412,-5.776,-7.405960977006011
1621784805449.886,-0.04,0.01,0.003,-0.412,-5.776,-7.418031962598988
1621784805454.636,-0.04,0.012,0.002,-0.412,-5.776,-7.430097986833317
1621784805459.384,-0.037,0.016,0.0,-0.412,-5.776,-7.442159049708997
1621784805459.715,-0.0368604292110545,0.01634892697236375,0.0,-0.412,-5.776,-7.443
1621784805464.128,-0.035,0.021,0.0,-0.42898372378207067,-5.776,-7.443
1621784805468.872,-0.037,0.009,-0.002,-0.4472425188323167,-5.776,-7.443
1621784805473.613,-0.031,0.007,0.0,-0.46548909875619116,-5.776,-7.443
1621784805475.045,-0.0294892586677657,0.007,-0.00090644479934058,-0.471,-5.776,-7.443
1621784805478.352,-0.026,0.007,-0.003,-0.471,-5.771895020574819,-7.43025295862707
1621784805483.088,-0.024,-0.002,-0.003,-0.471,-5.766016651248844,-7.41199907493062
1621784805487.823,-0.026,0.0,-0.005,-0.471,-5.760139191042776,-7.393748014290727
1621784805490.352,-0.024930849416864485,-0.0037420270409743005,-0.003930849416864486,-0.471,-5.757,-7.384
1621784805492.554,-0.024,-0.007,-0.003,-0.471,-5.757,-7.381263084761464
1621784805497.284,-0.023,0.0,-0.005,-0.471,-5.757,-7.3753838303173564
1621784805502.012,-0.017,0.0,-0.003,-0.471,-5.757,-7.369507003561675
1621784805505.638,-0.02237170610726465,0.0015347731735041853,-0.004534773173504186,-0.471,-5.757,-7.365
1621784805506.737,-0.024,0.002,-0.005,-0.47236832338873513,-5.755559659590805,-7.366368323388735
1621784805511.461,-0.026,0.0,-0.002,-0.4782491961671972,-5.7493692671924235,-7.372249196167197
1621784805516.181,-0.026,-0.003,-0.005,-0.4841252059571609,-5.743183993729304,-7.378125205957161
1621784805520.9,-0.026,-0.005,-0.005,-0.49,-5.737,-7.384
1621784805525.616,-0.038,-0.016,-0.005,-0.5144468064655655,-5.721836790926421,-7.384
1621784805530.331,-0.035,-0.007,-0.005,-0.5388885506944555,-5.70667672172116,-7.384
1621784805535.043,-0.033,-0.016,-0.005,-0.5633138426541499,-5.691526857087932,-7.384
1621784805536.14,-0.035561839104291934,-0.01623289446402654,-0.004534211071946921,-0.569,-5.688,-7.384
1621784805539.753,-0.044,-0.017,-0.003,-0.5549905174488567,-5.678739494584837,-7.372365006016848
1621784805544.46,-0.045,-0.017,-0.007,-0.5367390934616927,-5.666674993983153,-7.357207043722423
1621784805549.166,-0.045,-0.017,-0.009,-0.5184914560770156,-5.654612996389892,-7.342052226233454
1621784805551.356,-0.05105357420962467,-0.014671702227067436,-0.009465659554586513,-0.51,-5.649,-7.335
1621784805553.869,-0.058,-0.012,-0.01,-0.4937887276409045,-5.652143001783906,-7.335
1621784805558.57,-0.061,-0.007,-0.005,-0.46346090673866575,-5.658022885428218,-7.335
1621784805563.268,-0.058,-0.016,-0.003,-0.4331535605804927,-5.663898799479292,-7.335
1621784805566.547,-0.06288577664605312,-0.016697968092293302,-0.0009060957231200959,-0.412,-5.668,-7.335
1621784805567.966,-0.065,-0.017,0.0,-0.42481701113901227,-5.669871096516644,-7.3240540853776315
1621784805572.659,-0.073,-0.01,0.005,-0.46720665121370164,-5.676059365140686,-7.287852713926985
1621784805577.352,-0.084,-0.009,0.005,-0.5095984965552766,-5.6822479557015,-7.251649459146224
1621784805581.714,-0.09516106194690266,-0.009,0.01151061946902655,-0.549,-5.688,-7.218
1621784805582.042,-0.096,-0.009,0.012,-0.5502774186267714,-5.688844395363459,-7.218844395363459
1621784805586.729,-0.105,-0.005,0.014,-0.5685379419303874,-5.700914910767544,-7.230914910767544
1621784805591.414,-0.113,-0.007,0.017,-0.5867908558899869,-5.712980396266262,-7.242980396266263
1621784805596.098,-0.117,-0.017,0.016,-0.6050390140095762,-5.725042738074127,-7.255042738074127
1621784805596.858,-0.11732471054553041,-0.017324710545530406,0.01648706581829561,-0.608,-5.727,-7.257
1621784805600.779,-0.119,-0.019,0.019,-0.6131863213639887,-5.727,-7.295119462025316
1621784805605.458,-0.12,-0.023,0.017,-0.6193749677086025,-5.727,-7.3406060126582275
1621784805610.135,-0.122,-0.024,0.024,-0.6255610307414105,-5.727,-7.386073575949367
1621784805611.979,-0.122,-0.031101279707495433,0.025578062157221207,-0.628,-5.727,-7.404
1621784805614.809,-0.122,-0.042,0.028,-0.653680438544008,-5.732623453695768,-7.411310489804499
1621784805619.48,-0.122,-0.04,0.023,-0.6960646820070827,-5.741904674892062,-7.423376077359681
1621784805624.151,-0.122,-0.037,0.023,-0.7384489254701574,-5.751185896088355,-7.435441664914862
1621784805627.077,-0.12450771564576031,-0.04201543129152063,0.021746142177119843,-0.765,-5.757,-7.443
1621784805628.818,-0.126,-0.045,0.021,-0.7695045669495368,-5.763699099565978,-7.4475045669495366
1621784805633.484,-0.126,-0.061,0.024,-0.7815750631599404,-5.781650093930168,-7.4595750631599405
1621784805638.148,-0.129,-0.061,0.019,-0.7936411381745158,-5.799594513182614,-7.471641138174516
1621784805642.152,-0.13501335637963546,-0.06873145820238843,0.014704745443117537,-0.804,-5.815,-7.482
1621784805642.809,-0.136,-0.07,0.014,-0.804,-5.816745900442801,-7.485448153374532
1621784805647.467,-0.129,-0.073,0.012,-0.804,-5.829124211311696,-7.5098953173406
1621784805652.124,-0.126,-0.086,0.009,-0.804,-5.841499927010852,-7.534337355846431
1621784805656.778,-0.113,-0.084,0.007,-0.804,-5.853867857200785,-7.5587640179715505
1621784805657.204,-0.1120843740161612,-0.08464093818868718,0.007,-0.804,-5.855,-7.561
1621784805661.431,-0.103,-0.091,0.007,-0.8343746710419442,-5.865968631209591,-7.533437798498976
1621784805666.081,-0.096,-0.099,0.007,-0.8677915461840866,-5.878035836122032,-7.503115078462588
1621784805670.729,-0.093,-0.113,0.002,-0.9011926313395497,-5.8900973390948375,-7.4728066863770755
1621784805672.233,-0.09170520231213873,-0.11591329479768786,0.002323699421965318,-0.912,-5.894,-7.463
1621784805675.375,-0.089,-0.122,0.003,-0.9367093278664519,-5.885833357739054,-7.424051398447796
1621784805680.017,-0.08,-0.117,-0.002,-0.9732146239078441,-5.873768048030459,-7.366509152145263
1621784805684.658,-0.066,-0.131,-0.003,-1.0097103203657605,-5.861705911065554,-7.308982037389565
1621784805687.238,-0.06822460793600674,-0.13600536785601516,-0.0052246079360067366,-1.03,-5.855,-7.277
1621784805689.297,-0.07,-0.14,-0.007,-1.035360418500049,-5.846890648935823,-7.241951109807373
1621784805693.934,-0.063,-0.134,-0.009,-1.0474318470714774,-5.828628744173919,-7.163022538378802
1621784805698.568,-0.072,-0.129,-0.016,-1.0594956487728562,-5.810378377497474,-7.08414383494671
1621784805702.219,-0.0704235715791693,-0.12505892894792325,-0.016,-1.069,-5.796,-7.022
1621784805703.2,-0.07,-0.124,-0.016,-1.065131494778068,-5.7946886422976505,-7.0071816579634465
1621784805707.831,-0.082,-0.117,-0.024,-1.0468682604438642,-5.7884977154046995,-6.9372241840731075
1621784805712.458,-0.099,-0.119,-0.024,-1.0286213936031332,-5.782312336814622,-6.867329406005222
1621784805717.084,-0.113,-0.103,-0.026,-1.0103783779373368,-5.776128263707571,-6.7974493798955615
1621784805717.18,-0.11341499472016896,-0.10270950369588172,-0.025958500527983104,-1.01,-5.776,-6.796
1621784805721.708,-0.133,-0.089,-0.024,-0.9863562579675089,-5.80570623998954,-6.748409391037166
1621784805726.328,-0.147,-0.08,-0.023,-0.9622331905991567,-5.836014709247213,-6.699853986205995
1621784805730.947,-0.157,-0.072,-0.019,-0.9381139476350799,-5.86631837348413,-6.651306279214199
1621784805732.118,-0.16105774417005975,-0.07098556395748506,-0.01849278197874253,-0.932,-5.874,-6.639
1621784805735.564,-0.173,-0.068,-0.017,-0.9227582007464152,-5.901263307798075,-6.639
1621784805740.179,-0.188,-0.059,-0.016,-0.9103814574739737,-5.937774700451778,-6.639
1621784805744.791,-0.204,-0.051,-0.009,-0.8980125712040856,-5.974262914947947,-6.639
1621784805747.033,-0.2142103563297506,-0.045651718112987766,-0.005596547890083126,-0.892,-5.992,-6.639
1621784805749.402,-0.225,-0.04,-0.002,-0.8889769470404985,-5.998205213969503,-6.648387374979505
1621784805754.009,-0.23,-0.031,0.002,-0.8830984423676013,-6.0102716182980815,-6.666641678963765
1621784805758.615,-0.239,-0.031,0.005,-0.8772211838006231,-6.0223354648303,-6.684892113461223
1621784805761.923,-0.24259340193062479,-0.03028131961387504,0.00787472154449984,-0.873,-6.031,-6.698
1621784805763.218,-0.244,-0.03,0.009,-0.8763964829318753,-6.027603517068124,-6.709931234914537
1621784805767.819,-0.25,-0.016,0.012,-0.888464755430767,-6.015535244569233,-6.752324910102951
1621784805772.418,-0.258,-0.005,0.017,-0.9005272646667652,-6.003472735333235,-6.794698339983253
1621784805776.792,-0.268466620638377,-0.00024244516437410372,0.01604848903287482,-0.912,-5.992,-6.835
1621784805777.015,-0.269,0.0,0.016,-0.9128858392672138,-5.992285270272492,-6.837807660050322
1621784805781.609,-0.267,0.007,0.017,-0.9311430544820668,-5.998164712460326,-6.895673748951635
1621784805786.202,-0.272,0.01,0.01,-0.9493963886924632,-6.004042904833166,-6.9535275370422145
1621784805790.792,-0.272,0.023,0.012,-0.96763807988949,-6.009917347761022,-7.011344422700588
1621784805791.638,-0.27107806513409965,0.023184386973180076,0.011446839080459771,-0.971,-6.011,-7.022
1621784805795.38,-0.267,0.024,0.009,-0.971,-6.011,-7.070790696919004
1621784805799.966,-0.264,0.031,0.005,-0.971,-6.011,-7.1305893034058245
1621784805804.557,-0.262,0.04,0.0,-0.971,-6.011,-7.190448392912248
1621784805806.67,-0.260333253093255,0.04375018054017621,0.0008333734533724905,-0.971,-6.011,-7.218
1621784805809.628,-0.258,0.049,0.002,-0.9602622534661199,-6.018279828158563,-7.255491115016598
1621784805814.646,-0.248,0.051,0.0,-0.9420463701500609,-6.030629579559281,-7.319092334730296
1621784805819.665,-0.244,0.051,-0.007,-0.9238269418533039,-6.042981734336744,-7.382705931834227
1621784805822.923,-0.2394551425513282,0.05424632674905128,-0.0024551425513282083,-0.912,-6.051,-7.424
1621784805824.683,-0.237,0.056,0.0,-0.9077668182365696,-6.046658275114431,-7.451678496145507
1621784805829.699,-0.223,0.056,-0.009,-0.8957026318959287,-6.034284750662491,-7.53055971452662
1621784805834.717,-0.216,0.066,-0.003,-0.8836331606841725,-6.02190580582992,-7.609475487834257
1621784805839.138,-0.2071878923548591,0.07128726458708452,-0.0047624215290281765,-0.873,-6.011,-7.679
1621784805839.734,-0.206,0.072,-0.005,-0.873,-6.004530756373383,-7.6880054811847796
1621784805844.751,-0.183,0.061,-0.012,-0.873,-5.950068258820341,-7.763819753346685
1621784805849.768,-0.176,0.058,-0.019,-0.873,-5.895605761267298,-7.839634025508591
1621784805854.784,-0.161,0.052,-0.026,-0.873,-5.841156514930205,-7.915429851375567
1621784805855.351,-0.1583995424900224,0.05267838021999416,-0.026565316849995132,-0.873,-5.835,-7.924
1621784805859.8,-0.138,0.058,-0.031,-0.7895643713476715,-5.824296087113682,-7.929214726790771
1621784805864.815,-0.117,0.058,-0.035,-0.6955155732273028,-5.812230616302187,-7.935092776673294
1621784805869.83,-0.089,0.049,-0.028,-0.6014621965178625,-5.8001645581059105,-7.940971112717634
1621784805871.561,-0.08313222335816173,0.05383228664621976,-0.024893530013144444,-0.569,-5.796,-7.943
1621784805874.845,-0.072,0.063,-0.019,-0.5112556034223051,-5.734405976983792,-7.915242167259143
1621784805879.86,-0.045,0.065,-0.009,-0.4230699373380731,-5.6403412664939445,-7.872851162860758
1621784805884.875,-0.031,0.077,0.0,-0.33488856419834906,-5.5462811351449055,-7.830462222088329
1621784805887.769,-0.022917596064871183,0.08508240393512881,0.010968976769103396,-0.284,-5.492,-7.806
1621784805889.888,-0.017,0.091,0.019,-0.20712990299451706,-5.426634271253841,-7.771356163764536
1621784805894.902,-0.007,0.105,0.038,-0.025224377899620398,-5.271952702295596,-7.689374932216666
1621784805899.916,0.009,0.122,0.066,0.15667229017292278,-5.117278664818943,-7.6073976923540405
1621784805903.977,0.013049763840872572,0.1276696693772216,0.09272844134975897,0.304,-4.992,-7.541
1621784805904.93,0.014,0.129,0.099,0.3588070090852933,-4.971770803513583,-7.505246071326333
1621784805909.943,0.031,0.138,0.143,0.6471511352849889,-4.865343357791806,-7.3171417486552865
1621784805914.956,0.037,0.154,0.194,0.9354812192071837,-4.758921095056576,-7.129046586611622
1621784805919.969,0.045,0.162,0.255,1.2238113031293787,-4.652498832321345,-6.940951424567959
1621784805920.181,0.045,0.16297266747868452,0.2577911327649208,1.236,-4.648,-6.933
1621784805924.98,0.045,0.185,0.321,1.4653173466773177,-4.642370762807662,-6.5961345953848705
1621784805929.992,0.038,0.201,0.391,1.7048073914419641,-4.636491808220416,-6.24432557613758
1621784805935.004,0.024,0.211,0.447,1.9442974362066106,-4.6306128536331705,-5.892516556890289
1621784805936.379,0.016865676004872106,0.21731113276492084,0.46264063337393424,2.01,-4.629,-5.796
1621784805940.015,-0.002,0.234,0.504,2.142237536745308,-4.741255973468003,-5.71450216326223
1621784805945.026,-0.04,0.265,0.548,2.3244825808396774,-4.895963141629607,-5.602184759176905
1621784805950.036,-0.091,0.295,0.588,2.5066921082384868,-5.0506401597949795,-5.489889243988844
1621784805952.574,-0.12088229562506089,0.3198174997564065,0.604207346779694,2.599,-5.129,-5.433
1621784805955.047,-0.15,0.344,0.62,2.4641491761016723,-5.24873164885197,-5.6231350801284465
1621784805960.057,-0.225,0.394,0.644,2.1909864015317124,-5.491268019478072,-6.008285311543622
1621784805965.067,-0.293,0.44,0.642,1.9178103149357013,-5.733816209615414,-6.393454312463252
1621784805968.768,-0.3476679011744067,0.4769377710637883,0.6346124457872423,1.716,-5.913,-6.678
1621784805970.077,-0.367,0.49,0.632,1.5669979942693408,-5.989158377318655,-6.835814386970291
1621784805975.086,-0.44,0.531,0.592,0.9967547277936962,-6.280622922636104,-7.439783381088826
1621784805980.095,-0.508,0.572,0.552,0.4265114613180516,-6.572087467953552,-8.04375237520736
1621784805984.957,-0.5371197543500512,0.6127676560900717,0.49376049129989763,-0.127,-6.855,-8.63
1621784805985.104,-0.538,0.614,0.492,-0.13991050583657588,-6.869063553826201,-8.63818936446174
1621784805990.112,-0.529,0.644,0.435,-0.5798327753144512,-7.348275646246192,-8.917239917956143
1621784805995.121,-0.469,0.672,0.372,-1.0198408288842638,-7.827581184206558,-9.196344885832353
1621784806000.129,-0.358,0.686,0.298,-1.4597416523391549,-8.306769915241457,-9.475381835731307
1621784806001.145,-0.3318213467258277,0.6878264176702912,0.2846062704178653,-1.549,-8.404,-9.532
1621784806005.136,-0.229,0.695,0.232,-1.7184027966331794,-8.503126527287536,-9.357912118743778
1621784806010.143,-0.108,0.698,0.173,-1.9309361028147345,-8.62749099466015,-9.13950088997496
1621784806015.15,0.005,0.688,0.099,-2.143459046067518,-8.751849398135578,-8.921100310737021
1621784806017.33,0.046800185284509244,0.6710186747281681,0.07113320981032717,-2.236,-8.806,-8.826
1621784806020.157,0.101,0.649,0.035,-2.2994145079283657,-8.64510533938836,-8.598196919177441
1621784806025.164,0.161,0.614,-0.037,-2.411735791554141,-8.36012489250313,-8.194706688191186
1621784806030.17,0.195,0.581,-0.094,-2.5240296917668714,-8.075213922541904,-7.791314826269972
1621784806033.512,0.2183657644476957,0.5462851499634236,-0.12203891733723482,-2.599,-7.885,-7.522
1621784806035.176,0.23,0.529,-0.136,-2.559609478973338,-7.772999275723145,-7.423163731836495
1621784806040.181,0.25,0.49,-0.171,-2.4411374013550016,-7.436142637273098,-7.1259008947836975
1621784806045.187,0.25,0.456,-0.213,-2.3226364281079777,-7.09920383866733,-6.828565554599913
1621784806049.692,0.2310979512195122,0.43079726829268294,-0.24090302439024391,-2.216,-6.796,-6.561
1621784806050.192,0.229,0.428,-0.244,-2.1911499071852223,-6.769326330722446,-6.539178898597968
1621784806055.197,0.19,0.412,-0.271,-1.9423941685154165,-6.502316128642791,-6.320744133049607
1621784806060.201,0.138,0.405,-0.29,-1.6936990990175216,-6.235371047826021,-6.10236264167459
1621784806065.206,0.068,0.403,-0.298,-1.4449433603477158,-5.968360845746367,-5.883927876126228
1621784806065.869,0.0589906304899473,0.403,-0.2997223794651571,-1.412,-5.933,-5.855
1621784806070.209,0.0,0.403,-0.311,-1.2488319318850862,-5.764464561223411,-5.804815084313341
1621784806075.213,-0.075,0.405,-0.332,-1.060707235699944,-5.5701515526637575,-5.7469543636116605
1621784806080.216,-0.147,0.412,-0.349,-0.8726100753309883,-5.375866985703718,-5.689102111985025
1621784806082.041,-0.17435823736092132,0.4152829884833105,-0.3533773179777474,-0.804,-5.305,-5.668
1621784806085.219,-0.222,0.421,-0.361,-0.651684276482667,-5.301265808068607,-5.664265808068607
1621784806090.222,-0.278,0.424,-0.38,-0.41190139207633775,-5.295387259934774,-5.658387259934774
1621784806095.225,-0.314,0.431,-0.396,-0.1721068063775818,-5.289508424930546,-5.652508424930547
1621784806098.211,-0.33370269478617454,0.4292088459285296,-0.4067469244288225,-0.029,-5.286,-5.649
1621784806100.226,-0.347,0.428,-0.414,0.06998018486075032,-5.326265238929499,-5.651368543466441
1621784806105.228,-0.38,0.44,-0.428,0.3156678547695282,-5.426211230592641,-5.657247719446626
1621784806110.23,-0.408,0.456,-0.44,0.5613555246783061,-5.526157222255784,-5.663126895426811
1621784806114.376,-0.4254063842249121,0.47423525966419366,-0.43834224912143693,0.765,-5.609,-5.668
1621784806115.232,-0.429,0.478,-0.438,0.7971962300628324,-5.6189024589173515,-5.676843372402127
1621784806120.233,-0.452,0.506,-0.438,0.9853044949250847,-5.676758125906235,-5.728511267520542
1621784806125.234,-0.471,0.518,-0.433,1.173412759787337,-5.734613792895119,-5.780179162638956
1621784806130.233,-0.482,0.546,-0.422,1.3614475592073467,-5.7924468644272595,-5.831826878927018
1621784806130.54,-0.4830440343682874,0.546859793009178,-0.422,1.373,-5.796,-5.835
1621784806135.234,-0.499,0.56,-0.422,1.535388135926144,-5.8584569753562095,-5.9090768777480625
1621784806140.234,-0.506,0.567,-0.405,1.7083679041445687,-5.924987655440219,-5.987985358777934
1621784806145.234,-0.51,0.59,-0.384,1.8813476723629936,-5.991518335524228,-6.066893839807806
1621784806146.698,-0.5088284821254151,0.5946860714983395,-0.3752136159406134,1.932,-6.011,-6.09
1621784806150.233,-0.506,0.606,-0.354,1.949064230995875,-6.073350074792621,-6.156506746445462
1621784806155.232,-0.497,0.62,-0.323,1.973196228638774,-6.161524681564752,-6.250559660335735
1621784806160.23,-0.489,0.616,-0.295,1.9973235120801411,-6.249682063369748,-6.344594200927731
1621784806162.856,-0.4753422543465521,0.620727681187732,-0.27871576479781207,2.01,-6.296,-6.394
1621784806165.229,-0.463,0.625,-0.264,1.9784124608896747,-6.316127873758672,-6.458791184872807
1621784806170.228,-0.443,0.627,-0.241,1.9118706449613807,-6.358528937861818,-6.5952792817303765
1621784806175.226,-0.415,0.62,-0.211,1.845341828020375,-6.400921718889342,-6.731740715548905
1621784806179.008,-0.3824542922753701,0.6147018615331997,-0.19359183075194214,1.795,-6.433,-6.835
1621784806180.223,-0.372,0.613,-0.188,1.7779996069538926,-6.437438155706727,-6.849066696900983
1621784806185.221,-0.339,0.616,-0.155,1.7080574754346183,-6.45569738473167,-6.9069391685563115
1621784806190.217,-0.298,0.606,-0.14,1.6381426757369615,-6.47394947845805,-6.964789024943311
1621784806195.158,-0.2515281414891538,0.6069887629470393,-0.11330340042993942,1.569,-6.492,-7.022
1621784806195.214,-0.251,0.607,-0.113,1.5688643826917843,-6.492239938314535,-7.022
1621784806200.211,-0.211,0.604,-0.103,1.5567962111820024,-6.513591318677996,-7.022
1621784806205.207,-0.171,0.606,-0.087,1.5447298085936318,-6.534939569411266,-7.022
1621784806210.203,-0.126,0.595,-0.072,1.532663995645732,-6.556286776934474,-7.022
1621784806211.306,-0.11716888193901485,0.5903636630179828,-0.06846755277560594,1.53,-6.561,-7.022
1621784806215.199,-0.086,0.574,-0.056,1.4921424164524422,-6.5561773778920305,-6.976908483290488
1621784806220.194,-0.049,0.567,-0.038,1.4435680931498565,-6.549989566006351,-6.9190524421593835
1621784806225.189,-0.009,0.543,-0.031,1.394996143958869,-6.54380205655527,-6.861199228791774
1621784806227.451,0.0027737047898338234,0.5357546432062561,-0.025565982404692083,1.373,-6.541,-6.835
1621784806230.184,0.017,0.527,-0.019,1.314927270802456,-6.489530292489641,-6.785223374973534
1621784806235.178,0.049,0.504,-0.021,1.2088193944526784,-6.395487160098001,-6.694273766673724
1621784806240.173,0.075,0.468,-0.012,1.1026855811983909,-6.30142103989595,-6.603301926741478
1621784806243.594,0.0880153018821804,0.44607949156685406,-0.010629968222928379,1.03,-6.237,-6.541
1621784806245.167,0.094,0.436,-0.01,1.0204483170713259,-6.213120792678315,-6.487491082368959
1621784806250.161,0.099,0.398,-0.014,0.9901239845700023,-6.1373099614250055,-6.317612933968687
1621784806255.154,0.098,0.365,-0.01,0.9598040995386129,-6.061510248846532,-6.147759700476515
1621784806259.733,0.08699300630899398,0.33106176945273147,-0.0026620042059959893,0.932,-5.992,-5.992
1621784806260.146,0.086,0.328,-0.002,0.9329984113294904,-5.994508828468976,-5.984217511688076
1621784806265.14,0.061,0.288,0.007,0.9450684490036767,-6.024838666727187,-5.890133115458521
1621784806270.132,0.028,0.246,0.021,0.9571343561345377,-6.055158125671403,-5.796080916284629
1621784806275.125,-0.005,0.213,0.03,0.9692020334982524,-6.085482032893045,-5.702014918372596
1621784806275.869,-0.011556854306255197,0.20465491270112973,0.032235291240768814,0.971,-6.09,-5.688
1621784806280.117,-0.049,0.157,0.045,1.112934409855169,-6.180321897180562,-5.783588480106542
1621784806285.108,-0.087,0.11,0.051,1.279691027135009,-6.28643974454046,-5.8958939570501085
1621784806290.099,-0.113,0.08,0.065,1.446455801564841,-6.3925627828139895,-6.008204927584485
1621784806292.001,-0.12328860734725824,0.0754272856234408,0.07566966687863816,1.51,-6.433,-6.051
1621784806295.09,-0.14,0.068,0.093,1.5419849085735045,-6.5532785783482685,-6.2011566965366915
1621784806300.081,-0.154,0.061,0.134,1.5936617825139259,-6.7476083797529665,-6.44375950593364
1621784806305.072,-0.173,0.009,0.161,1.6453386564543473,-6.941938181157665,-6.686362315330588
1621784806308.13,-0.18341758403052988,-0.028380742697783644,0.17141758403052987,1.677,-7.061,-6.835
1621784806310.062,-0.19,-0.052,0.178,1.6359066715109678,-7.1737370906944005,-6.914910350152141
1621784806315.052,-0.197,-0.117,0.173,1.5297774649166629,-7.4648962259866485,-7.121289886007538
1621784806320.042,-0.171,-0.169,0.169,1.423648258322358,-7.756055361278896,-7.327669421862937
1621784806324.257,-0.1388947883533154,-0.1909667237582579,0.1723794959628089,1.334,-8.002,-7.502
1621784806325.031,-0.133,-0.195,0.173,1.34623956756102,-8.049566319423416,-7.511407667615529
1621784806330.02,-0.098,-0.204,0.171,1.4251403761128945,-8.356196520501484,-7.572052994973048
1621784806335.009,-0.051,-0.204,0.175,1.504041184664769,-8.662826721579554,-7.632698322330568
1621784806339.998,-0.003,-0.194,0.171,1.5829419932166433,-8.969456922657622,-7.693343649688087
1621784806340.381,0.0009933434486809264,-0.192924869071509,0.17076961480103764,1.589,-8.993,-7.698
1621784806344.986,0.049,-0.18,0.168,1.5664347240099947,-9.060124555160142,-7.675720360414932
1621784806349.974,0.106,-0.169,0.147,1.541992397970773,-9.132832740213523,-7.651587430907852
1621784806354.961,0.154,-0.145,0.127,1.517556053607935,-9.205523131672598,-7.627460407359734
1621784806356.503,0.16636552297978563,-0.13912637658460184,0.11803499583965543,1.51,-9.228,-7.62
1621784806359.949,0.194,-0.126,0.098,1.4450012118274358,-9.186092886572952,-7.496202965947649
1621784806364.936,0.22,-0.113,0.075,1.3509360155113912,-9.125445588948134,-7.31704589796413
1621784806369.923,0.234,-0.106,0.056,1.2568708191953466,-9.064798291323315,-7.137888829980611
1621784806372.62,0.2350816606286106,-0.1054591696856947,0.042479242142367576,1.206,-9.032,-7.041
1621784806374.91,0.236,-0.105,0.031,1.1503003317829927,-9.048766736861243,-6.954608677867499
1621784806379.896,0.227,-0.112,0.007,1.0290129531716332,-9.085276713075887,-6.766489478388656
1621784806384.881,0.211,-0.119,-0.021,0.9077493296165557,-9.121779538533792,-6.578407123486903
1621784806388.735,0.20017814122025268,-0.1321408285182646,-0.035686808343942805,0.814,-9.15,-6.433
1621784806389.867,0.197,-0.136,-0.04,0.7726936994272207,-9.161029063248174,-6.431665272600539
1621784806394.853,0.182,-0.176,-0.068,0.5907267933448495,-9.209615465042276,-6.425785389580871
1621784806399.838,0.159,-0.223,-0.106,0.40880443676697875,-9.25818997181562,-6.419906946086008
1621784806404.823,0.14,-0.295,-0.148,0.22687317028820797,-9.306766857593114,-6.414028214686184
1621784806404.847,0.13993760713061365,-0.29539355502228315,-0.14825437092903668,0.226,-9.307,-6.414
1621784806409.808,0.127,-0.377,-0.201,0.9324906718397162,-8.941435733446493,-7.162990982525802
1621784806414.791,0.131,-0.468,-0.269,1.6420755649182364,-8.574270402982586,-7.915262325144355
1621784806419.775,0.159,-0.508,-0.309,2.351799524119849,-8.207033114590121,-8.66768109967719
1621784806420.956,0.15402336517266715,-0.47908812147930446,-0.2985727651236836,2.52,-8.12,-8.846
1621784806424.759,0.138,-0.386,-0.265,2.52,-7.721661376383204,-9.373969865090192
1621784806429.742,0.002,-0.264,-0.187,2.52,-7.199732166136122,-10.06575037138093
1621784806434.726,-0.232,-0.223,-0.18,2.52,-6.677675094740033,-10.757700348643324
1621784806437.062,-0.3046624203821656,-0.2061235668789809,-0.18375031847133758,2.52,-6.433,-11.082
1621784806439.709,-0.387,-0.187,-0.188,2.52,-6.707033629499348,-11.117343269551506
1621784806444.69,-0.367,-0.122,-0.112,2.52,-7.222698092610001,-11.18385068380993
1621784806449.673,-0.199,-0.108,-0.072,2.52,-7.738590032446856,-11.250387436698306
1621784806453.164,-0.046241889640301875,-0.15564931882779573,-0.08531378026070763,2.52,-8.1,-11.297
1621784806454.655,0.019,-0.176,-0.091,2.4991661612639113,-7.93110701397944,-11.278851411589896
1621784806459.637,0.222,-0.288,-0.15,2.4295517330260483,-7.366766049064499,-11.218209509658248
1621784806464.618,0.353,-0.356,-0.211,2.359950950662583,-6.802535706704672,-11.157579494799407
1621784806469.266,0.42577120595873963,-0.39705042387416084,-0.2352570686529132,2.295,-6.276,-11.101
1621784806469.6,0.431,-0.4,-0.237,2.2897098163509804,-6.227994176612426,-11.090025462155564
1621784806474.581,0.468,-0.422,-0.211,2.210813378626348,-5.51204767898576,-10.926354028601326
1621784806479.561,0.461,-0.457,-0.18,2.131932409274958,-4.796241549263736,-10.76271468433903
1621784806484.541,0.41,-0.506,-0.187,2.053051439923568,-4.080435419541711,-10.599075340076734
1621784806485.365,0.39725978037062454,-0.5103018923423865,-0.19179826453573878,2.04,-3.962,-10.572
1621784806489.521,0.333,-0.532,-0.216,1.33601319841619,-3.665788385393753,-10.270623405191376
1621784806494.501,0.276,-0.553,-0.243,0.4924531456225254,-3.310849507714247,-9.909495532260266
1621784806499.48,0.25,-0.567,-0.264,-0.35094148702155703,-2.9559802327169016,-9.548438475658783
1621784806501.458,0.25,-0.5717663496421217,-0.2763130699088146,-0.686,-2.815,-9.405
1621784806504.46,0.25,-0.579,-0.295,-0.8617184337879454,-2.886257369115706,-9.19999516058073
1621784806509.439,0.253,-0.593,-0.337,-1.1531629473428706,-3.0044439977547523,-8.859976561433317
1621784806514.417,0.271,-0.576,-0.377,-1.4445502981021585,-3.1226074457272026,-8.520024652214147
1621784806517.551,0.27414786660127516,-0.5476692005885238,-0.3858140264835704,-1.628,-3.197,-8.306
1621784806519.395,0.276,-0.531,-0.391,-1.5370041423260754,-3.249832607541158,-8.28468359001593
1621784806524.373,0.25,-0.497,-0.379,-1.2913526743039223,-3.3924589636598133,-8.22713803201578
1621784806529.351,0.211,-0.469,-0.344,-1.0457012062817692,-3.535085319778469,-8.169592474015628
1621784806533.641,0.17996777041942602,-0.4396917831739024,-0.3164157959283787,-0.834,-3.658,-8.12
1621784806534.328,0.175,-0.435,-0.312,-0.8260162852112676,-3.7086346830985915,-8.114150968309858
1621784806539.306,0.145,-0.4,-0.264,-0.7681464151287032,-4.075659634531326,-8.071754325522097
1621784806544.282,0.138,-0.401,-0.211,-0.7102992502428364,-4.44254058402137,-8.029374317022826
1621784806549.259,0.147,-0.421,-0.161,-0.6524407327586207,-4.809493534482759,-7.98698599137931
1621784806549.727,0.14925728584044745,-0.42495025022078303,-0.1563913747424198,-0.647,-4.844,-7.983
1621784806554.235,0.171,-0.463,-0.112,-0.8283316586728189,-5.074938619391658,-7.8591227308602996
1621784806559.211,0.211,-0.525,-0.059,-1.0284789933823082,-5.329840325420436,-7.722391475927387
1621784806564.187,0.251,-0.593,-0.009,-1.2286361483820047,-5.5847545382794,-7.585653512233623
1621784806565.812,0.26471563143950544,-0.6125937591992935,0.010920321852615053,-1.294,-5.668,-7.541
1621784806569.163,0.293,-0.653,0.052,-1.3861250018981095,-5.664039875484018,-7.381552881330196
1621784806574.138,0.326,-0.717,0.108,-1.5228896211373473,-5.658160853390024,-7.144844886493053
1621784806579.112,0.318,-0.784,0.155,-1.6596341052311898,-5.652282696833954,-6.908171740946018
1621784806581.89,0.30292092475335003,-0.8247693515927944,0.1717545280518333,-1.736,-5.649,-6.776
1621784806584.086,0.291,-0.857,0.185,-1.780114561190404,-5.509690859398725,-6.781463103552991
1621784806589.061,0.251,-0.929,0.216,-1.880055253568175,-5.1940886729426055,-6.793839659884603
1621784806594.035,0.182,-0.998,0.244,-1.979971424233222,-4.878563923474036,-6.806213179471606
1621784806597.969,0.12742721115146755,-1.0549455187984687,0.2550727397663689,-2.059,-4.629,-6.816
1621784806599.009,0.113,-1.07,0.258,-2.0755003417634996,-4.58706971975393,-6.83185326953748
1621784806603.983,0.044,-1.108,0.264,-2.1544114832535888,-4.386542583732057,-6.90766985645933
1621784806608.956,-0.035,-1.154,0.25,-2.233311004784689,-4.186044976076555,-6.983475279106858
1621784806613.928,-0.098,-1.169,0.23,-2.3121911597174756,-3.9855965823650035,-7.059262094630515
1621784806614.042,-0.09827512396288478,-1.169,0.2290370661299033,-2.314,-3.981,-7.061
1621784806618.901,-0.11,-1.169,0.188,-2.0413077425529007,-3.9692095365405358,-7.13204510033267
1621784806623.873,-0.106,-1.164,0.157,-1.7622578724309217,-3.9571441873889204,-7.204746563169327
1621784806628.845,-0.091,-1.152,0.145,-1.483221704060397,-3.9450794306633656,-7.277444456259209
1621784806630.114,-0.08640564694328505,-1.1456189540878958,0.14219233979867418,-1.412,-3.942,-7.296
1621784806633.817,-0.073,-1.127,0.134,-1.0752884516030998,-3.9509881932836954,-7.273414283543535
1621784806638.789,-0.054,-1.096,0.122,-0.6231576812034645,-3.963057392493542,-7.243086552195715
1621784806643.759,-0.038,-1.066,0.124,-0.17122671326546124,-3.9751212581674515,-7.212772223066404
1621784806646.181,-0.03312794067089043,-1.0465117626835618,0.1215639703354452,0.049,-3.981,-7.198
1621784806648.73,-0.028,-1.026,0.119,0.23259301813097466,-3.9297462879375065,-7.210535737625192
1621784806653.701,-0.007,-0.977,0.108,0.590617866532926,-3.829796395081992,-7.234981686651773
1621784806658.671,0.03,-0.92,0.091,0.9485723795194456,-3.729866137783249,-7.2594228331737565
1621784806662.245,0.0551694665487769,-0.8768523430592396,0.0874043619216033,1.206,-3.658,-7.277
1621784806663.641,0.065,-0.86,0.086,1.2801468509143978,-3.6878152049984037,-7.236927669083778
1621784806668.611,0.103,-0.789,0.098,1.5441215700582236,-3.7939621319225916,-7.094263723567596
1621784806673.581,0.115,-0.705,0.124,1.8080962892020493,-3.9001090588467795,-6.951599778051413
1621784806678.305,0.11214742739200943,-0.6251279669762642,0.1553782986878962,2.059,-4.001,-6.816
1621784806678.549,0.112,-0.621,0.157,2.051854753869075,-4.004724649578887,-6.8142060871415975
1621784806683.518,0.106,-0.541,0.176,1.9064275593663536,-4.080532442457965,-6.777694578734532
1621784806688.487,0.087,-0.454,0.194,1.7610003648636323,-4.156340235337043,-6.741183070327465
1621784806693.455,0.087,-0.367,0.22,1.6156017513454346,-4.2321331296178055,-6.704678737571833
1621784806694.364,0.087,-0.35291504937847,0.2254876430992974,1.589,-4.246,-6.698
1621784806698.424,0.087,-0.29,0.25,1.393001855315784,-4.305684596316742,-6.722784281521359
1621784806703.391,0.094,-0.197,0.278,1.153219398695196,-4.378702221816689,-6.75310515990693
1621784806708.359,0.101,-0.127,0.318,0.9134015846221695,-4.4517306142311845,-6.78343050929939
1621784806710.418,0.10017073890172558,-0.11000014748537437,0.32960965537584186,0.814,-4.482,-6.796
1621784806713.325,0.099,-0.086,0.346,0.5209659137577002,-4.512064065708419,-6.7498172484599595
1621784806718.292,0.089,-0.08,0.346,0.020270651760590175,-4.563433295307628,-6.6709066849190055
1621784806723.259,0.075,-0.068,0.339,-0.48042461023651983,-4.614802524906837,-6.591996121378052
1621784806726.469,0.0614287048414844,-0.05765996559351192,0.3344762349471615,-0.804,-4.648,-6.541
1621784806728.226,0.054,-0.052,0.332,-0.8598356785372013,-4.6759178392686005,-6.555998995999209
1621784806733.192,0.044,-0.037,0.337,-1.0176372210475075,-4.7548186105237535,-6.598388822124527
1621784806738.158,0.04,-0.021,0.34,-1.1754465217457444,-4.833723260872872,-6.640780732312092
1621784806742.518,0.04790337807936274,-0.023634459359787578,0.33736554064021246,-1.314,-4.903,-6.678
1621784806743.123,0.049,-0.024,0.337,-1.332852708460134,-4.920759251369446,-6.6824492391965915
1621784806748.088,0.068,-0.021,0.332,-1.4875696895922095,-5.066502647595861,-6.718962446743761
1621784806753.053,0.103,-0.026,0.319,-1.642294278758369,-5.212253210590383,-6.755477449786976
1621784806758.017,0.147,-0.019,0.311,-1.7969884357881925,-5.357975106512477,-6.791985270846014
1621784806758.563,0.1513981117230527,-0.019219905586152636,0.30924075531077894,-1.814,-5.374,-6.796
1621784806762.982,0.187,-0.021,0.295,-1.8572421328139266,-5.427983809118023,-6.7257659626270625
1621784806767.946,0.232,-0.028,0.278,-1.9058190547203118,-5.488627609714529,-6.646867140422424
1621784806772.91,0.276,-0.038,0.262,-1.9543935875585856,-5.549268427780145,-6.567972198551343
1621784806774.607,0.29207049043238725,-0.03560652270155935,0.2565291947464214,-1.971,-5.57,-6.541
1621784806777.873,0.323,-0.031,0.246,-1.9630596883180131,-5.577940311681987,-6.375271443355452
1621784806782.836,0.372,-0.024,0.229,-1.9509943081512144,-5.590005691848786,-6.12344530346381
1621784806787.799,0.408,-0.014,0.208,-1.9389283344493822,-5.602071665550618,-5.871606775430694
1621784806790.649,0.4171877213695395,-0.005960743801652893,0.20168344155844156,-1.932,-5.609,-5.727
1621784806792.762,0.424,0.0,0.197,-1.8932698630136986,-5.630999771689497,-5.613312557077625
1621784806797.724,0.433,0.017,0.199,-1.802317808219178,-5.6826630136986305,-5.346334246575343
1621784806802.686,0.438,0.042,0.201,-1.7113702283105021,-5.734323713850837,-5.079369071537291
1621784806806.689,0.4396125098347758,0.04361250983477576,0.2018062549173879,-1.638,-5.776,-4.864
1621784806807.651,0.44,0.044,0.202,-1.6391423426722822,-5.797223524385033,-4.842776475614967
1621784806812.599,0.438,0.045,0.195,-1.6450187389367026,-5.906400781297687,-4.733599218702313
1621784806817.548,0.426,0.061,0.188,-1.6508960050051882,-6.015594198254288,-4.624405801745712
1621784806822.496,0.407,0.082,0.18,-1.6567721113349203,-6.124766068485625,-4.515233931514374
1621784806822.688,0.40630178157232394,0.0831636973794601,0.17992242017470264,-1.657,-6.129,-4.511
1621784806827.443,0.389,0.112,0.178,-1.4645824311737492,-6.263127238857248,-4.528546578919241
1621784806832.391,0.372,0.157,0.18,-1.2643602785115513,-6.4026947672199235,-4.546804858682873
1621784806837.337,0.365,0.206,0.185,-1.0642270388297628,-6.542200317600892,-4.565055030462201
1621784806838.677,0.36879242955139907,0.22008616690519667,0.18689621477569954,-1.01,-6.58,-4.57
1621784806842.284,0.379,0.258,0.192,-0.9238094961743459,-6.568944150032835,-4.66521568747232
1621784806847.229,0.393,0.321,0.199,-0.8056432138548237,-6.553786694970906,-4.795755402495456
1621784806852.174,0.408,0.363,0.215,-0.6874769315353014,-6.538629239908978,-4.926295117518594
1621784806854.663,0.408,0.37155707514565023,0.22104028833810604,-0.628,-6.531,-4.992
1621784806857.119,0.408,0.38,0.227,-0.93380540193712,-6.303413165694033,-5.154737648568548
1621784806862.064,0.382,0.374,0.216,-1.5495811665495431,-5.845139845397048,-5.4824293745607875
1621784806867.008,0.323,0.33,0.178,-2.165235326468881,-5.386957025879189,-5.810056387301781
1621784806870.644,0.26931165432098764,0.2924917037037037,0.13975624691358024,-2.618,-5.05,-6.051
1621784806871.952,0.25,0.279,0.126,-2.721551312612695,-5.015537468292534,-6.171414214113261
1621784806876.896,0.157,0.244,0.07,-3.1130050426331715,-4.885259191345008,-6.62661455945723
1621784806881.837,0.063,0.213,0.031,-3.5042074814339417,-4.7550645457045935,-7.081522691849271
1621784806886.621,-0.014427767076603953,0.17718965772707068,-0.0019068010075566771,-3.883,-4.629,-7.522
1621784806886.78,-0.017,0.176,-0.003,-3.8803727930048764,-4.65397836953697,-7.525801488909611
1621784806891.722,-0.077,0.126,-0.033,-3.7986832016142595,-5.4306483482886705,-7.6440038522096705
1621784806896.664,-0.127,0.049,-0.037,-3.7169895745754165,-6.207356696271612,-7.762212054970421
1621784806901.605,-0.159,-0.024,-0.03,-3.6353161257777034,-6.983873198098354,-7.880391060427717
1621784806902.592,-0.15860037560541662,-0.03638835623208461,-0.02400563408124938,-3.619,-7.139,-7.904
1621784806906.545,-0.157,-0.086,0.0,-3.1917289045180035,-7.716781423438576,-7.972076217414571
1621784806911.485,-0.099,-0.115,0.035,-2.6577389954896415,-8.438874382692456,-8.0571557220396
1621784806916.425,0.002,-0.115,0.093,-2.123775475881049,-9.160931656601178,-8.142231022093112
1621784806918.56,0.02922818029059998,-0.10549174656518731,0.1578290006919047,-1.893,-9.473,-8.179
1621784806921.365,0.065,-0.093,0.243,-1.6138047195204013,-9.476514100446567,-8.878481693888787
1621784806926.304,0.049,-0.099,0.396,-1.1221935676270876,-9.482701780143145,-10.110139337493118
1621784806931.242,0.052,-0.087,0.435,-0.6306796201137823,-9.488888236373647,-11.341553450174343
1621784806934.524,0.03605180425111221,-0.03583287197231833,0.43034844290657437,-0.304,-9.493,-12.16
1621784806936.181,0.028,-0.01,0.428,-0.30804977050183596,-9.346377539779683,-12.638599801101591
1621784806941.119,-0.098,0.051,0.436,-0.3201185281517748,-8.909426621787025,-14.06487939106487
1621784806946.056,-0.18,-0.037,0.447,-0.33218489902080783,-8.47256211750306,-15.4908769124847
1621784806950.481,-0.05897541794440596,-0.1992625877930557,0.43893169452962705,-0.343,-8.081,-16.769
1621784806950.992,-0.045,-0.218,0.438,-0.34709940017137964,-8.152611396743787,-16.738542737789203
1621784806955.928,0.274,-0.375,0.415,-0.3866988615497613,-8.844364487697392,-16.444331114579505
1621784806960.865,0.654,-0.389,0.387,-0.42630615742440936,-9.536254437507651,-16.150061283510833
1621784806965.8,1.012,-0.325,0.394,-0.4658977843065246,-10.227870669604602,-15.855907868160116
1621784806966.436,1.0489859998021174,-0.31353047392896016,0.3965774215889977,-0.471,-10.317,-15.818
1621784806970.735,1.299,-0.236,0.414,-0.7195266122736388,-9.748515590797068,-14.319292880432286
1621784806975.67,1.478,-0.169,0.428,-1.0048050729407443,-9.0959643179696,-12.598958562309612
1621784806980.604,1.569,-0.086,0.421,-1.2900411927686868,-8.443509896367505,-10.878879575060846
1621784806982.385,1.582355517070757,-0.051347847600197914,0.42641439881246906,-1.393,-8.208,-10.258
1621784806985.538,1.606,0.01,0.436,-1.301833432863246,-7.5797219440488774,-9.402695438467545
1621784806990.471,1.576,0.117,0.489,-1.1592069915935506,-6.596806100418026,-8.064605723735587
1621784806995.404,1.499,0.223,0.559,-1.01657349135621,-5.61384160962837,-6.726449783331036
1621784806998.329,1.4266574115317991,0.283483147735709,0.5898345459044791,-0.932,-5.031,-5.933
1621784807000.337,1.377,0.325,0.611,-0.5836129506539651,-4.72959356142984,-5.81195880172757
1621784807005.269,1.244,0.415,0.66,0.272188991331516,-3.989198027383833,-5.51462486599075
1621784807010.201,1.108,0.51,0.709,1.1279485710785067,-3.2488391429534103,-5.217305648298465
1621784807014.27,0.9874997524017035,0.618120085173814,0.7651234029909875,1.834,-2.638,-4.972
1621784807015.131,0.962,0.641,0.777,1.9447084009926776,-2.6088775850975825,-5.013333297588774
1621784807020.062,0.855,0.799,0.881,2.5786685866601307,-2.4421110940898925,-5.250024142896535
1621784807024.993,0.775,0.93,0.97,3.2126287723275837,-2.2753446030822024,-5.486714988204295
1621784807029.923,0.684,0.991,0.99,3.846494791507093,-2.108602883054015,-5.723370676184932
1621784807030.207,0.6771449304076478,0.9915184506414384,0.9874653524196344,3.883,-2.099,-5.737
1621784807034.852,0.565,1.0,0.946,3.3683109050501954,-1.7213669246685572,-6.217279285769025
1621784807039.781,0.405,0.951,0.88,2.822160472066825,-1.3206503180320333,-6.726916545329145
1621784807044.71,0.218,0.845,0.798,2.2760100390834546,-0.9199337113955093,-7.2365538048892635
1621784807046.136,0.1618615803814714,0.8157732970027247,0.7661689373297003,2.118,-0.804,-7.384
1621784807049.638,0.024,0.744,0.688,1.5639144350598586,-1.1448065974830235,-7.312980302589022
1621784807054.566,-0.168,0.656,0.553,0.7842004690589695,-1.6243925686343639,-7.213040774407162
1621784807059.493,-0.342,0.621,0.438,0.004641016601008463,-2.103883501693824,-7.113121050937352
1621784807062.063,-0.4129415787126505,0.6303893265943213,0.3936615133045934,-0.402,-2.354,-7.061
1621784807064.42,-0.478,0.639,0.353,-0.6677118542711257,-2.708085100510603,-7.108813330879985
1621784807069.347,-0.585,0.681,0.281,-1.223163576981462,-3.4482748056488344,-7.20876369658218
1621784807074.273,-0.639,0.714,0.188,-1.778505205697901,-4.18831780057347,-7.308694251498842
1621784807077.985,-0.6585931010556575,0.747911136442484,0.1292206968330277,-2.197,-4.746,-7.384
1621784807079.199,-0.665,0.759,0.11,-2.2396228070175437,-4.853738866396761,-7.425174089068826
1621784807084.123,-0.674,0.799,0.049,-2.4125229266347685,-5.290783354803092,-7.592197460434303
1621784807089.048,-0.67,0.85,-0.007,-2.5854573365231257,-5.727914519690835,-7.759253956569746
1621784807093.905,-0.6611240333135039,0.8933936149117588,-0.06715932976402936,-2.756,-6.159,-7.924
1621784807093.973,-0.661,0.894,-0.068,-2.754993356348293,-6.159836026083621,-7.9276810740314545
1621784807098.897,-0.648,0.922,-0.127,-2.6819609973149214,-6.220490019179133,-8.194744319140776
1621784807103.82,-0.616,0.925,-0.169,-2.608943122362869,-6.281131983122363,-8.46175459915612
1621784807108.744,-0.557,0.897,-0.199,-2.5359143843498275,-6.341782968929805,-8.728804602991946
1621784807109.817,-0.5443537728828696,0.887842387260009,-0.20510507515999404,-2.52,-6.355,-8.787
1621784807113.665,-0.499,0.855,-0.227,-2.4418625145803916,-6.27178236846952,-8.96238599668488
1621784807118.588,-0.431,0.812,-0.279,-2.3419028485481,-6.165323776781878,-9.186753668119591
1621784807123.51,-0.325,0.752,-0.342,-2.241958054515317,-6.058881024003929,-9.411087958131255
1621784807125.724,-0.2714570847390355,0.7232038102798174,-0.36539690414764836,-2.197,-6.011,-9.512
1621784807128.431,-0.206,0.688,-0.394,-2.1119065176680074,-5.902590903509041,-9.495321677462929
1621784807133.352,-0.098,0.632,-0.41,-1.9572001657814755,-5.7054950112056,-9.464999232493168
1621784807138.273,-0.003,0.55,-0.403,-1.8025014889632518,-5.508408896939183,-9.434678291836796
1621784807141.629,0.04542782712251278,0.4947513521560065,-0.42073413387584974,-1.697,-5.374,-9.414
1621784807143.193,0.068,0.469,-0.429,-1.6950323388050306,-5.325792300723246,-9.30882850912888
1621784807148.113,0.143,0.384,-0.466,-1.688843434731201,-5.174164150914423,-8.978031586382691
1621784807153.031,0.201,0.271,-0.49,-1.6826569875466426,-5.022596194892742,-8.647365984368042
1621784807157.528,0.25219714115544967,0.16860571768910065,-0.49822811197141154,-1.677,-4.884,-8.345
1621784807157.95,0.257,0.159,-0.499,-1.669462724619874,-4.869668560896944,-8.3070216863769
1621784807162.869,0.293,0.07,-0.51,-1.581580187375211,-4.7025679619106135,-7.864205099063124
1621784807167.787,0.309,-0.009,-0.518,-1.4937107356780832,-4.535492243894947,-7.42145444632161
1621784807172.704,0.288,-0.082,-0.529,-1.4058630932268468,-4.368457994163723,-6.978813684533866
1621784807173.424,0.28346082423038726,-0.0916640516385303,-0.5284142999006951,-1.393,-4.344,-6.914
1621784807177.621,0.257,-0.148,-0.525,-1.2606701083198895,-4.292230222017362,-6.559007236690482
1621784807182.538,0.201,-0.197,-0.543,-1.105639917031574,-4.231579688100177,-6.143117861258355
1621784807187.455,0.145,-0.239,-0.541,-0.9506097257432589,-4.170929154182991,-5.7272284858262275
1621784807189.314,0.12192956487184581,-0.2488333002185575,-0.5436474269819194,-0.892,-4.148,-5.57
1621784807192.37,0.084,-0.265,-0.548,-0.7336709339316726,-4.144344772472298,-5.430331832362569
1621784807197.285,0.038,-0.271,-0.548,-0.47905179117552144,-4.138466566260431,-5.205722479214373
1621784807202.2,0.0,-0.274,-0.557,-0.22442000030736609,-4.132588068050838,-4.981101968679402
1621784807205.2,-0.02441486191138486,-0.26972739916550764,-0.5582207430955693,-0.069,-4.129,-4.844
1621784807207.115,-0.04,-0.267,-0.559,0.06581517010253807,-4.138405709542037,-4.783706990115144
1621784807212.029,-0.087,-0.262,-0.557,0.4117559839505603,-4.162541115159341,-4.628992851542684
1621784807216.943,-0.141,-0.239,-0.532,0.7576967977985825,-4.186676520776645,-4.474278712970222
1621784807221.081,-0.19406301247328928,-0.22299686925408735,-0.5101009789792774,1.049,-4.207,-4.344
1621784807221.856,-0.204,-0.22,-0.506,1.0825343565452754,-4.219447250246063,-4.334432701771654
1621784807226.768,-0.269,-0.194,-0.473,1.2951087906003935,-4.298350424458661,-4.2737855561023625
1621784807231.68,-0.337,-0.168,-0.443,1.5076726593257874,-4.377249677042323,-4.213141424704724
1621784807236.592,-0.396,-0.15,-0.401,1.7202470933809053,-4.456152851254921,-4.152494279035433
1621784807236.956,-0.3996313435061385,-0.148591928028232,-0.3978133108007356,1.736,-4.462,-4.148
1621784807241.504,-0.445,-0.131,-0.358,1.7529056313546938,-4.566012613250066,-4.246281890756949
1621784807246.415,-0.485,-0.106,-0.325,1.7711616803310208,-4.678333728138315,-4.3524145144667825
1621784807251.326,-0.517,-0.079,-0.3,1.7894168217686237,-4.790649259356109,-4.458541862146406
1621784807252.828,-0.524953062848051,-0.07563524264120923,-0.2899057279236277,1.795,-4.825,-4.491
1621784807256.236,-0.543,-0.068,-0.267,1.7907046153846153,-4.972331692307693,-4.676345846153846
1621784807261.145,-0.555,-0.052,-0.232,1.784517846153846,-5.184537876923077,-4.943304938461538
1621784807266.055,-0.552,-0.061,-0.197,1.7783298461538461,-5.396786276923077,-5.210317138461538
1621784807268.697,-0.5385451561567536,-0.05723264372389099,-0.1803159936343744,1.775,-5.511,-5.354
1621784807270.964,-0.527,-0.054,-0.166,1.7062613921420766,-5.634329352560058,-5.445175118115084
1621784807275.872,-0.49,-0.07,-0.14,1.5574511149756074,-5.901321596208006,-5.642557564751689
1621784807280.781,-0.438,-0.075,-0.133,1.4086112282429708,-6.168366964711676,-5.839979285615353
1621784807284.561,-0.3802247375491318,-0.08963639982088661,-0.12606696850589583,1.294,-6.374,-5.992
1621784807285.688,-0.363,-0.094,-0.124,1.2626663075099667,-6.408175750765773,-5.99057897086213
1621784807290.595,-0.276,-0.112,-0.106,1.1262330567826744,-6.556983899518217,-5.984391521849554
1621784807295.502,-0.188,-0.134,-0.099,0.989799806055382,-6.705792048270661,-5.978204072836979
1621784807300.408,-0.108,-0.162,-0.101,0.8533937075746147,-6.854570581987779,-5.9720178552188035
1621784807300.422,-0.10778930082109978,-0.16210102015426722,-0.101,0.853,-6.855,-5.972
1621784807305.314,-0.035,-0.197,-0.101,0.853,-6.87906772718173,-5.7057121979765
1621784807310.219,0.016,-0.227,-0.098,0.853,-6.903200317230547,-5.438706746538953
1621784807315.125,0.056,-0.25,-0.098,0.853,-6.927337711936184,-5.171648135885551
1621784807316.276,0.061631178139465434,-0.2518770593798218,-0.09424588124035638,0.853,-6.933,-5.109
1621784807320.03,0.08,-0.258,-0.082,0.7902338344474908,-6.928499784356612,-4.918569822248236
1621784807324.934,0.087,-0.274,-0.063,0.7082422907488987,-6.922621145374449,-4.669810572687225
1621784807329.838,0.073,-0.284,-0.065,0.6262548288715689,-6.9167427990511685,-4.4210637072178915
1621784807332.126,0.056200119504058156,-0.30126654384305135,-0.07199995020664243,0.588,-6.914,-4.305
1621784807334.741,0.037,-0.321,-0.08,0.3404460331890109,-6.914,-4.282390071031263
1621784807339.643,-0.012,-0.36,-0.11,-0.12362231706753368,-6.914,-4.240005161707832
1621784807344.546,-0.056,-0.417,-0.141,-0.5877600036979401,-6.914,-4.197613919662255
1621784807347.971,-0.07067249365008217,-0.4512358185168584,-0.16335808556202996,-0.912,-6.914,-4.168
1621784807349.448,-0.077,-0.466,-0.173,-0.8781469332387897,-6.854500670540903,-4.3398765896443825
1621784807354.35,-0.082,-0.525,-0.185,-0.7657939204291462,-6.657031738936075,-4.910308001788109
1621784807359.251,-0.063,-0.555,-0.199,-0.6534688853606277,-6.4596119803308,-5.480597367163535
1621784807363.809,-0.03881967621419676,-0.5456998754669988,-0.17295965130759652,-0.549,-6.276,-6.011
1621784807364.152,-0.037,-0.545,-0.171,-0.5109831174838113,-6.247752698119025,-6.052006244218316
1621784807369.052,-0.019,-0.506,-0.133,0.03207654949121175,-5.844248535306814,-6.637768038852914
1621784807373.951,0.0,-0.471,-0.08,0.5750279833487509,-5.44082479185939,-7.22341308973173
1621784807378.852,0.009,-0.426,-0.009,1.1182229417206289,-5.037220104841197,-7.809320814061055
1621784807379.644,0.011263782274947662,-0.41613637723058516,0.0037741999800618084,1.206,-4.972,-7.904
1621784807383.75,0.023,-0.365,0.07,1.791199475591887,-5.060973147219866,-7.7361701858564045
1621784807388.649,0.019,-0.318,0.154,2.4894164263129483,-5.1671293591424385,-7.535928001850852
1621784807393.547,-0.037,-0.253,0.209,3.187528988972006,-5.273269700007712,-7.335715755379039
1621784807395.473,-0.09125899710896221,-0.22154550892234073,0.21725680390788554,3.462,-5.315,-7.257
1621784807398.445,-0.175,-0.173,0.23,3.0087177619701575,-5.779177542549416,-7.098642384310336
1621784807403.343,-0.346,-0.077,0.216,2.2617366333883684,-6.544113459965745,-6.837678815560047
1621784807408.24,-0.487,0.014,0.159,1.514904439335257,-7.308896862993195,-6.576767278226117
1621784807411.295,-0.5219490274314215,0.03459496259351621,0.12280279301745636,1.049,-7.786,-6.414
1621784807413.135,-0.543,0.047,0.101,0.6246882667942406,-7.998272180126237,-6.652326409358169
1621784807418.031,-0.517,0.024,0.049,-0.504295081714224,-8.563073334465038,-7.286451102640473
1621784807422.927,-0.424,-0.051,-0.007,-1.6332784302226888,-9.12787448880384,-7.920575795922776
1621784807427.115,-0.3196215461346633,-0.12971162094763092,-0.07544488778054861,-2.599,-9.611,-8.463
1621784807427.822,-0.302,-0.143,-0.087,-2.621350507825765,-9.600897570462754,-8.70675463834779
1621784807432.717,-0.25,-0.314,-0.194,-2.7760907294785913,-9.530954990275678,-10.394351495693513
1621784807437.612,-0.25,-0.415,-0.271,-2.9308309511314175,-9.4610124100886,-12.081948353039238
1621784807442.506,-0.199,-0.208,-0.29,-3.085540301917081,-9.39108378353348,-13.769208532707683
1621784807442.932,-0.20047936729704108,-0.19520782396088018,-0.29574342597674763,-3.099,-9.385,-13.916
1621784807447.399,-0.216,-0.061,-0.356,-3.276415866349628,-9.334995846586171,-14.600237624679616
1621784807452.291,-0.351,-0.126,-0.527,-3.47071324460365,-9.28023368742859,-15.349581972022358
1621784807457.184,-0.297,-0.208,-0.593,-3.6650494086403356,-9.225460596609333,-16.099075904023717
1621784807458.744,-0.19464590507561008,-0.16495388531217248,-0.5764192743424664,-3.727,-9.208,-16.338
1621784807462.076,0.024,-0.073,-0.541,-3.04470538996139,-9.708391536679537,-15.788075181467182
1621784807466.968,0.473,0.058,-0.552,-2.042960123552123,-10.443066625482626,-14.980675305019306
1621784807471.86,0.929,-0.026,-0.658,-1.0412148571428572,-11.177741714285714,-14.17327542857143
1621784807474.552,1.144753606549194,-0.13002406030050417,-0.735054859481855,-0.49,-11.582,-13.729
1621784807476.751,1.321,-0.215,-0.798,0.05981640691370227,-11.07030345530653,-13.030460480993497
1621784807481.641,1.578,-0.309,-0.892,1.2825123800991642,-9.932379419533218,-11.477030197247494
1621784807486.531,1.696,-0.307,-0.925,2.505147310050818,-8.794512194745217,-9.923677468682905
1621784807490.358,1.7069588014981274,-0.2866479400749064,-0.9383071161048688,3.462,-7.904,-8.708
1621784807491.42,1.71,-0.281,-0.942,3.3848458864426423,-7.577103128621089,-8.592
1621784807496.309,1.667,-0.257,-0.949,3.0296531788335264,-6.072175140981074,-8.057973333333333
1621784807501.198,1.58,-0.271,-0.976,2.6744782078022404,-4.567322302047122,-7.523973333333334
1621784807506.087,1.459,-0.325,-0.995,2.319303236770954,-3.062469463113171,-6.989973333333333
1621784807506.16,1.456655429028069,-0.32603041654180404,-0.9955376086305064,2.314,-3.04,-6.982
1621784807510.975,1.302,-0.394,-1.031,1.0314882761179034,-2.3973723047436515,-6.282669861044562
1621784807515.862,1.115,-0.44,-1.084,-0.2701411502851756,-1.7451653090560613,-5.57291518926689
1621784807520.75,0.894,-0.461,-1.141,-1.5720306814844585,-1.0928279827503593,-4.863018687110685
1621784807521.955,0.8318467995802729,-0.4627264777894369,-1.151112227052416,-1.893,-0.932,-4.688
1621784807525.636,0.642,-0.468,-1.182,-2.2540071260743213,-1.0804580628207507,-4.639990014221233
1621784807530.521,0.394,-0.478,-1.199,-2.7331071848141963,-1.2774798429481233,-4.576274964446918
1621784807535.407,0.162,-0.466,-1.176,-3.212303020466209,-1.4745410097075373,-4.512547177394423
1621784807537.749,0.053190176385349536,-0.43580167890870936,-1.145322340478689,-3.442,-1.569,-4.482
1621784807540.293,-0.065,-0.403,-1.112,-3.2144975259772393,-1.7048247773379515,-4.907036491835725
1621784807545.178,-0.262,-0.293,-1.03,-2.7776360094012866,-1.9656422408461158,-5.723212611331024
1621784807550.062,-0.456,-0.204,-0.96,-2.3408618258287976,-2.2264075643245915,-6.539225569025235
1621784807553.538,-0.5898037490627344,-0.17054906273431641,-0.9237021744563859,-2.03,-2.412,-7.12
1621784807554.946,-0.644,-0.157,-0.909,-1.855064009157424,-2.6351080637925968,-7.308049499590082
1621784807559.83,-0.805,-0.162,-0.874,-1.248232988383065,-3.409041966371216,-7.960369638188934
1621784807564.712,-0.923,-0.208,-0.817,-0.6416749733166272,-4.182627685739478,-8.612396306093089
1621784807569.321,-0.9711390430478476,-0.2618024598770062,-0.7292170391480426,-0.069,-4.913,-9.228
1621784807569.595,-0.974,-0.265,-0.724,-0.03391525738422739,-4.965948275595303,-9.239926382076712
1621784807574.478,-0.949,-0.314,-0.586,0.5915124940044252,-5.909814995899801,-9.45252849251907
1621784807579.36,-0.859,-0.368,-0.426,1.2168151660967648,-6.853492952298433,-9.665088084665253
1621784807584.241,-0.721,-0.429,-0.265,1.841961489068713,-7.796934953814733,-9.87759452894122
1621784807585.1,-0.6914300505176811,-0.43674451057870256,-0.23807022457860252,1.952,-7.963,-9.915
1621784807589.122,-0.553,-0.473,-0.112,2.074403640754156,-8.295529890715457,-9.774745828302528
1621784807594.003,-0.403,-0.527,0.009,2.222946410327854,-8.699071081390668,-9.604540571499333
1621784807598.883,-0.272,-0.576,0.11,2.3714668895699824,-9.102551716665118,-9.434360855701062
1621784807600.872,-0.22104048238590873,-0.6045373298638911,0.14832155724579663,2.432,-9.267,-9.365
1621784807603.762,-0.147,-0.646,0.204,2.1785110326566635,-8.983085025007355,-9.388461017946454
1621784807608.643,-0.037,-0.714,0.272,1.7503615924188227,-8.503545268732289,-9.428087285734195
1621784807613.521,0.038,-0.763,0.328,1.3224905467552375,-8.024317322432294,-9.467687787429739
1621784807616.639,0.07379459459459459,-0.7815364864864865,0.35292837837837837,1.049,-7.718,-9.493
1621784807618.399,0.094,-0.792,0.367,0.8617430956769566,-7.5230384287727885,-9.490766763216184
1621784807623.277,0.148,-0.81,0.361,0.3427279472127135,-6.982668453090875,-9.484576958225555
1621784807628.155,0.234,-0.799,0.335,-0.17626122581744408,-6.442325521599727,-9.478387463019471
1621784807632.401,0.31757709251101324,-0.7685291850220265,0.3167175110132159,-0.628,-5.972,-9.473
1621784807633.032,0.33,-0.764,0.314,-0.6103002803897573,-5.935078865428408,-9.423905302619554
1621784807637.909,0.431,-0.71,0.318,-0.4735228726782644,-5.649764906356018,-9.044518194351928
1621784807642.785,0.497,-0.677,0.314,-0.3367728533143309,-5.364508078633062,-8.665207054668258
1621784807647.661,0.541,-0.62,0.319,-0.20002283395039733,-5.079251250910104,-8.285895914984586
1621784807648.161,0.542948717948718,-0.611897435897436,0.3199230769230769,-0.186,-5.05,-8.247
1621784807652.536,0.56,-0.541,0.328,0.023640981142600326,-4.7695531245642036,-7.705265491113625
1621784807657.411,0.59,-0.471,0.335,0.2572409315586407,-4.45705517765003,-7.10161846692595
1621784807662.286,0.613,-0.414,0.353,0.49084088197468106,-4.144557230735857,-6.497971442738274
1621784807663.917,0.6116613905029052,-0.3952594670406732,0.35935839511120016,0.569,-4.04,-6.296
1621784807667.16,0.609,-0.358,0.372,0.7143471481711097,-3.9492095009299444,-5.878075480471172
1621784807672.034,0.564,-0.311,0.41,0.9328000929944202,-3.8127537662740236,-5.249945908245506
1621784807676.907,0.463,-0.258,0.454,1.1512092684438933,-3.6763253719776814,-4.621942188468692
1621784807679.669,0.3972531062124248,-0.23362830661322645,0.48573987975951904,1.275,-3.599,-4.266
1621784807681.78,0.347,-0.215,0.51,1.2578400620155037,-3.5727238449612404,-4.168670976744186
1621784807686.653,0.234,-0.175,0.564,1.218229519379845,-3.5120702015503875,-3.944004930232558
1621784807691.524,0.141,-0.138,0.614,1.1786368372093023,-3.451443906976744,-3.7194401860465116
1621784807695.416,0.08028683102826217,-0.10604570054119063,0.6435577269993987,1.147,-3.403,-3.54
1621784807696.396,0.065,-0.098,0.651,1.0847394487443967,-3.3980814164508075,-3.5424281614989686
1621784807701.267,-0.01,-0.051,0.691,0.7752669727474368,-3.3736330908470475,-3.55449758806285
1621784807706.138,-0.093,-0.002,0.703,0.46581000760031643,-3.349185990600425,-3.566566409703588
1621784807711.008,-0.18,0.052,0.7,0.1563995750027145,-3.3247425664252144,-3.5786334165748945
1621784807711.156,-0.18255196270115806,0.05397473304256279,0.6997265754248759,0.147,-3.324,-3.579
1621784807715.878,-0.264,0.117,0.691,-0.056134659240757695,-3.4242170992413783,-3.858647714050792
1621784807720.747,-0.34,0.182,0.693,-0.26560250701996624,-3.5275586962255074,-4.147014086473573
1621784807725.616,-0.398,0.236,0.71,-0.47505985199894507,-3.6308951116213404,-4.435366000093083
1621784807726.893,-0.4108551582326095,0.248592808064597,0.7086882491599378,-0.53,-3.658,-4.511
1621784807730.484,-0.447,0.284,0.705,-0.858888426802396,-3.801332360882654,-4.775069333664381
1621784807735.353,-0.473,0.318,0.696,-1.3048600602091804,-3.995690574470066,-5.133146488315074
1621784807740.22,-0.485,0.33,0.668,-1.750630442878868,-4.189961081282393,-5.491062055802117
1621784807742.626,-0.4840114850293395,0.3384023772506144,0.6516895029841016,-1.971,-4.286,-5.668
1621784807745.088,-0.483,0.347,0.635,-2.0753927983858453,-4.4209124320968485,-5.772392798385845
1621784807749.955,-0.464,0.36,0.602,-2.281776656836877,-4.687633400589787,-5.978776656836877
1621784807754.821,-0.431,0.351,0.571,-2.488108753686171,-4.9542874747788295,-6.185108753686171
1621784807758.356,-0.4055740304048969,0.3524529125482916,0.5521121368722092,-2.638,-5.148,-6.335
1621784807759.687,-0.396,0.353,0.545,-2.663733751513834,-5.209456261838959,-6.335
1621784807764.552,-0.351,0.335,0.525,-2.7577903300934694,-5.4340782225258515,-6.335
1621784807769.417,-0.3,0.319,0.499,-2.851846908673105,-5.658700183212744,-6.335
1621784807774.08,-0.25207507402017365,0.2940790384904903,0.4673695488533146,-2.942,-5.874,-6.335
1621784807774.282,-0.25,0.293,0.466,-2.945012353524707,-5.87890949531899,-6.331859461218922
1621784807779.146,-0.183,0.276,0.428,-3.0175820261640522,-5.997182621365242,-6.256201717403434
1621784807784.01,-0.113,0.248,0.394,-3.090151698803398,-6.115455747411494,-6.180543973587947
1621784807788.879,-0.037,0.22,0.354,-3.162794221588443,-6.233847603695207,-6.104810279620559
1621784807789.831,-0.022717773437499998,0.21562011718750002,0.3446689453125,-3.177,-6.257,-6.09
1621784807793.879,0.038,0.197,0.305,-3.132916912153486,-6.210161719163079,-5.984300778004381
1621784807798.88,0.112,0.178,0.255,-3.0784538258176597,-6.152294689931264,-5.853713150540071
1621784807803.88,0.169,0.176,0.215,-3.0240013747261876,-6.094438960646575,-5.723151023491201
1621784807805.992,0.18674477436999415,0.17895746239499902,0.19936769876929086,-3.001,-6.07,-5.668
1621784807808.879,0.211,0.183,0.178,-2.9256246450365535,-6.045529801824664,-5.506889644130264
1621784807813.88,0.239,0.204,0.15,-2.7950547701045254,-6.003141003564739,-5.227804271645218
1621784807818.88,0.248,0.234,0.141,-2.664510392121322,-5.9607604827502865,-4.948773397377802
1621784807822.155,0.240794677734375,0.25823608398437503,0.135759765625,-2.579,-5.933,-4.766
1621784807823.88,0.237,0.271,0.133,-2.5182788200108757,-5.9371619086460035,-4.688524469820555
1621784807828.881,0.206,0.302,0.12,-2.3422174793063864,-5.949229381910459,-4.463883813666848
1621784807833.881,0.161,0.339,0.106,-2.1661991118361428,-5.961293909733551,-4.239297988036976
1621784807838.318,0.1015556531927358,0.3869103690685413,0.1175339777387229,-2.01,-5.972,-4.04
1621784807838.882,0.094,0.393,0.119,-1.9689612508497618,-5.985365510990256,-4.04170994788126
1621784807843.881,0.005,0.445,0.134,-1.6051909358712892,-6.1038383261575655,-4.056867044338697
1621784807848.881,-0.065,0.51,0.155,-1.2413495581237253,-6.222334285066848,-4.072027101744845
1621784807853.882,-0.143,0.579,0.176,-0.8774371176070701,-6.340853387718106,-4.087190120099706
1621784807854.479,-0.15076000976562498,0.588192626953125,0.1798203125,-0.834,-6.355,-4.089
1621784807858.882,-0.208,0.656,0.208,-0.6522988188024892,-6.416293501903208,-4.535216693855356
1621784807863.882,-0.262,0.731,0.239,-0.4459644583408857,-6.485896547036433,-5.041926862425232
1621784807868.883,-0.311,0.771,0.262,-0.23958979819950454,-6.5555131865144105,-5.548735997824905
1621784807870.642,-0.32999755859375,0.763612060546875,0.25707470703125,-0.167,-6.58,-5.727
1621784807873.883,-0.365,0.75,0.248,-0.5859614146938406,-6.373627910138841,-6.39384858968742
1621784807878.884,-0.415,0.684,0.216,-1.2324401806892176,-6.055185281986978,-7.422829871130516
1621784807883.883,-0.466,0.611,0.161,-1.878666465229412,-5.736867021196235,-8.45140928525026
1621784807886.802,-0.481178515625,0.5672158203125001,0.10904277343749999,-2.256,-5.551,-9.052
1621784807888.883,-0.492,0.536,0.072,-2.5539942288226496,-5.681066625372029,-9.306982097263978
1621784807893.884,-0.463,0.44,-0.009,-3.2701033070961305,-5.993629360487075,-9.919728845311296
1621784807898.884,-0.391,0.326,-0.094,-3.986072547627321,-6.306131060113913,-10.532355939629255
1621784807902.962,-0.3110891427455575,0.2363041398164421,-0.160048769771529,-4.57,-6.561,-11.032
1621784807903.885,-0.293,0.216,-0.175,-4.4686150975889785,-6.771023823191734,-10.944095005740529
1621784807908.885,-0.201,0.108,-0.218,-3.9194580488247026,-7.908629720829053,-10.46795264064294
1621784807913.885,-0.113,0.026,-0.208,-3.3703010000604268,-9.046235618466373,-9.991810275545351
1621784807918.886,-0.035,-0.04,-0.157,-2.821036694060064,-10.184063704755573,-9.515574913892078
1621784807919.123,-0.030875146484375005,-0.04256025390625,-0.15368115234375,-2.795,-10.238,-9.493
1621784807923.886,0.052,-0.094,-0.087,-1.8210676253341993,-10.622268628309895,-9.31943081129254
1621784807928.886,0.148,-0.112,0.002,-0.7986607857649957,-11.025663036418289,-9.13722275425585
1621784807933.887,0.215,-0.087,0.176,0.2239457426400615,-11.429136232497017,-8.954979109708018
1621784807935.286,0.19485153350263723,-0.07692576675131861,0.24651963274076966,0.51,-11.542,-8.904
1621784807938.886,0.143,-0.051,0.428,0.9753512901081638,-11.161966825790078,-9.867448697806514
1621784807943.887,0.086,-0.024,0.541,1.6217812254516892,-10.634054202670857,-11.205796936370778
1621784807948.887,0.051,0.038,0.548,2.2680849296029977,-10.106244667351502,-12.54388382983866
1621784807951.447,0.003392208553016987,0.045166764303846904,0.5541429408318688,2.599,-9.836,-13.229
1621784807953.888,-0.042,0.052,0.56,2.2804595966462724,-9.68647178789939,-13.52669707681849
1621784807958.888,-0.044,-0.054,0.571,1.627958350328575,-9.380176750509857,-14.136502651257647
1621784807963.888,0.162,-0.162,0.564,0.9754571040108773,-9.073881713120326,-14.746308225696804
1621784807967.608,0.4052385764499121,-0.18282776801405975,0.5275514059753954,0.49,-8.846,-15.2
1621784807968.889,0.489,-0.19,0.515,0.43950539340101524,-8.894195794053662,-14.878166243654821
1621784807973.889,0.81,-0.113,0.515,0.24241571489001693,-9.082312787043751,-13.62199027072758
1621784807978.889,1.073,-0.014,0.55,0.04532603637901861,-9.270429780033842,-12.36581429780034
1621784807983.768,1.2642626953125,0.07772802734375,0.5870815429687499,-0.147,-9.454,-11.14
1621784807983.889,1.269,0.08,0.588,-0.1723725356900068,-9.424514615907546,-11.113087015635623
1621784807988.89,1.372,0.133,0.592,-1.2223341944255608,-8.204355812372537,-9.999378789938817
1621784807993.89,1.405,0.178,0.534,-2.2720908225696803,-6.984435274567566,-8.885888042903543
1621784807998.89,1.4,0.243,0.469,-3.3218474507138,-5.764514736762596,-7.772397295868268
1621784807999.929,1.3931438613619722,0.2668926043446424,0.46588357334635094,-3.54,-5.511,-7.541
1621784808003.891,1.367,0.358,0.454,-3.258811737160121,-4.638507386706949,-7.283836540785499
1621784808008.891,1.257,0.435,0.478,-2.903969441087613,-3.5374753625377644,-6.959312069486405
1621784808013.892,1.056,0.45,0.504,-2.549057839879154,-2.4362282930513595,-6.63472421450151
1621784808016.091,0.9570268118773197,0.42800595819495996,0.5070791658527056,-2.393,-1.952,-6.492
1621784808018.891,0.831,0.4,0.511,-1.8374532602292808,-2.1167411754044134,-6.043509039829625
1621784808023.892,0.62,0.377,0.548,-0.8452290543296026,-2.4109741719153566,-5.242489872672074
1621784808028.892,0.454,0.382,0.613,0.14680139562281935,-2.7051497122660746,-4.441627124020119
1621784808032.255,0.34571806640625,0.40822978515624997,0.68227353515625,0.814,-2.903,-3.903
1621784808033.892,0.293,0.421,0.716,1.076247507703462,-2.943719775240167,-4.031135611141321
1621784808038.893,0.145,0.485,0.845,1.8773029726300523,-3.0681015044408193,-4.422535828650837
1621784808043.893,0.007,0.527,0.958,2.678202011963023,-3.1924589450788474,-4.813859615733189
1621784808048.418,-0.11605330990041009,0.5306192149970709,1.006859402460457,3.403,-3.305,-5.168
1621784808048.894,-0.129,0.531,1.012,3.330209347996858,-3.2865003927729775,-5.258701099764337
1621784808053.893,-0.255,0.49,0.993,2.565870173424376,-3.0922450299111732,-6.211109160674361
1621784808058.894,-0.356,0.403,0.92,1.801232370535984,-2.8979137712248475,-7.163889328660342
1621784808063.894,-0.44,0.29,0.798,1.0367438818055472,-2.7036204604507827,-8.116483443108345
1621784808064.579,-0.44876703768795156,0.2769864284319469,0.7800549697324741,0.932,-2.677,-8.247
1621784808068.895,-0.504,0.195,0.667,0.5521955671053228,-3.266471436989137,-8.359712707933582
1621784808073.895,-0.531,0.168,0.538,0.11219133666732128,-3.949375330502969,-8.49029061598199
1621784808078.896,-0.543,0.208,0.429,-0.3278988320969375,-4.632412603683503,-8.620894027528065
1621784808080.738,-0.54226318359375,0.23673583984375,0.393264404296875,-0.49,-4.884,-8.669
1621784808083.896,-0.541,0.286,0.332,-0.6471266260746068,-5.280725187725687,-8.598058500914076
1621784808088.896,-0.548,0.401,0.236,-0.8959053892758397,-5.90886062217656,-8.485736745886655
1621784808093.896,-0.548,0.515,0.148,-1.1446841524770726,-6.536996056627434,-8.373414990859231
1621784808096.897,-0.529994140625,0.5780205078125,0.098783984375,-1.294,-6.914,-8.306
1621784808098.896,-0.518,0.62,0.066,-1.4056950268898423,-7.036456341772917,-8.256275303643724
1621784808103.897,-0.454,0.693,-0.016,-1.6851235724212943,-7.3428065744153725,-8.13187854251012
1621784808108.897,-0.344,0.73,-0.075,-1.9644975527222188,-7.649096984712067,-8.007506072874493
1621784808113.058,-0.23499960945127904,0.7341603202499511,-0.11161081819957039,-2.197,-7.904,-7.904
1621784808113.898,-0.213,0.735,-0.119,-2.197987445423094,-7.865281745252376,-7.8923065673581
1621784808118.898,-0.086,0.709,-0.148,-2.203866190267559,-7.634773065824659,-7.822689852094696
1621784808123.898,0.026,0.668,-0.176,-2.2097449351120244,-7.404264386396942,-7.753073136831292
1621784808128.899,0.122,0.623,-0.201,-2.215624828148842,-7.173710685742774,-7.683442824553187
1621784808129.218,0.126594921875,0.619872900390625,-0.20240400390625002,-2.216,-7.159,-7.679
1621784808133.899,0.194,0.574,-0.223,-2.0399069472348526,-6.698783123612139,-7.585160938986994
1621784808138.899,0.244,0.524,-0.239,-1.8518098460701824,-6.2071938246801315,-7.4849249837610845
1621784808143.899,0.248,0.483,-0.251,-1.6637127449055122,-5.715604525748123,-7.384689028535175
1621784808145.38,0.24059666080843586,0.4696739894551845,-0.25514586994727595,-1.608,-5.57,-7.355
1621784808148.9,0.223,0.438,-0.265,-1.5119409898477159,-5.307308013052937,-7.250228154459753
1621784808153.9,0.211,0.398,-0.281,-1.3754942893401017,-4.934168056562727,-7.101405335992265
1621784808158.901,0.229,0.363,-0.312,-1.2390209390862945,-4.560955221174765,-6.952553450568044
1621784808161.54,0.24430712890625,0.34822070312500003,-0.322556640625,-1.167,-4.364,-6.874
1621784808163.901,0.258,0.335,-0.332,-1.1411400879326756,-4.279407406288244,-6.700723979029114
1621784808168.902,0.271,0.309,-0.349,-1.0863582576638917,-4.1002058259174765,-6.333654766041669
1621784808173.902,0.26,0.291,-0.372,-1.0315897986009337,-3.9210479852539017,-5.966675147687612
1621784808177.699,0.24177855887521968,0.2796115992970123,-0.38111072056239015,-0.99,-3.785,-5.688
1621784808178.903,0.236,0.276,-0.384,-0.9987929049511234,-3.7696496744073613,-5.596643207880701
1621784808183.902,0.208,0.265,-0.391,-1.0352980796833215,-3.705920301569795,-5.217360629730914
1621784808188.903,0.157,0.253,-0.405,-1.0718175170350674,-3.6421660295828486,-4.837929865381419
1621784808193.858,0.080695556640625,0.24110839843749998,-0.41490966796874995,-1.108,-3.579,-4.462
1621784808193.903,0.08,0.241,-0.415,-1.1069854514140682,-3.5792207970751755,-4.461069298404641
1621784808198.904,-0.002,0.234,-0.433,-0.9946502447425671,-3.6036684040367417,-4.358017993110949
1621784808203.904,-0.096,0.22,-0.447,-0.8823369742567078,-3.6281112370074933,-4.254986811094996
1621784808208.905,-0.194,0.208,-0.457,-0.7700017675852067,-3.6525588439690595,-4.151935505801305
1621784808210.018,-0.2153703125,0.20399306640624998,-0.456332177734375,-0.745,-3.658,-4.129
1621784808213.905,-0.29,0.19,-0.454,-0.5634099252209381,-3.7900436437797413,-4.216067029231815
1621784808218.906,-0.361,0.169,-0.449,-0.32977566281441195,-3.959931339225017,-4.328087695445275
1621784808223.905,-0.422,0.138,-0.459,-0.0962326459702395,-4.12975268524813,-4.440064612130826
1621784808226.179,-0.4420066393282562,0.12526850224565517,-0.46081878539347787,0.01,-4.207,-4.491
1621784808228.906,-0.466,0.11,-0.463,0.14399882152084248,-4.2848003233263325,-4.595296311964585
1621784808233.906,-0.496,0.079,-0.463,0.3896833214981794,-4.427445857947935,-4.786521779201354
1621784808238.906,-0.518,0.065,-0.457,0.6353678214755163,-4.5700913925695374,-4.977747246438122
1621784808242.338,-0.5324111013473931,0.04784392696738918,-0.45494127123608674,0.804,-4.668,-5.109
1621784808243.907,-0.539,0.04,-0.454,0.8725541487883001,-4.732767163232006,-5.167067111863178
1621784808248.907,-0.548,0.033,-0.435,1.091005831872847,-4.93915140206684,-5.352101257025443
1621784808253.908,-0.539,0.019,-0.422,1.3095001813017466,-5.145575950323321,-5.537171541669185
1621784808258.497,-0.5123883518843976,0.02909407342315954,-0.4091529974614333,1.51,-5.335,-5.707
1621784808258.909,-0.51,0.03,-0.408,1.527512639961317,-5.357993306033636,-5.709268740839239
1621784808263.909,-0.478,0.037,-0.386,1.7401142205231266,-5.63712958793575,-5.736811012556854
1621784808268.91,-0.438,0.051,-0.36,1.9527573248311398,-5.916320388642923,-5.764358663624413
1621784808273.909,-0.41,0.075,-0.328,2.165317381646746,-6.195402151739978,-5.791895555992082
1621784808274.654,-0.40463620386643234,0.07842686975200155,-0.323083186877563,2.197,-6.237,-5.796
1621784808278.91,-0.374,0.098,-0.295,2.2588968617318645,-6.378967695631808,-5.852629043712132
1621784808283.91,-0.332,0.112,-0.264,2.331616442288805,-6.545758563377302,-5.919159723796141
1621784808288.911,-0.284,0.113,-0.222,2.404350225888823,-6.712582007464152,-5.985703398153604
1621784808290.812,-0.26688989257812495,0.11376044921875,-0.20907236328125,2.432,-6.776,-6.011
1621784808293.911,-0.239,0.115,-0.188,2.287218760858727,-6.76487773262226,-6.039380958136302
1621784808298.912,-0.192,0.11,-0.161,2.0535589732743125,-6.7469277092051785,-6.085184466166095
1621784808303.912,-0.145,0.087,-0.147,1.8199562176126665,-6.72898206704839,-6.130976794428245
1621784808306.972,-0.1162433606717438,0.07109207186096465,-0.14026972271040813,1.677,-6.718,-6.159
1621784808308.913,-0.098,0.061,-0.136,1.6110499939566085,-6.6908511814830485,-6.108306188432948
1621784808313.912,-0.047,0.042,-0.134,1.4412106877379585,-6.620935547229105,-5.977755756330453
1621784808318.914,0.0,0.021,-0.131,1.271271846860458,-6.550978938780443,-5.847128814890917
1621784808323.131,0.03205577261183825,0.011720697401836297,-0.12172069740183629,1.128,-6.492,-5.737
1621784808323.913,0.038,0.01,-0.12,1.110435395422615,-6.470661182868796,-5.69901593775965
1621784808328.915,0.066,-0.012,-0.117,0.9980833446634941,-6.334167369136642,-5.45605075912078
1621784808333.914,0.084,-0.044,-0.105,0.8857970994788126,-6.197753501019714,-5.213227887302667
1621784808338.915,0.079,-0.086,-0.099,0.7734669839111715,-6.061286335825969,-4.970310144270715
1621784808339.292,0.077416796875,-0.08901562499999999,-0.098924609375,0.765,-6.051,-4.952
1621784808343.915,0.058,-0.126,-0.098,0.7143666893269884,-5.936002311352821,-4.789515703602992
1621784808348.916,0.021,-0.171,-0.105,0.6595941536369816,-5.8116036709721275,-4.6137484704282805
1621784808353.917,-0.031,-0.206,-0.089,0.6048216179469748,-5.687205030591435,-4.437981237253569
1621784808355.453,-0.055881396484375,-0.2219732421875,-0.087464111328125,0.588,-5.649,-4.384
1621784808358.917,-0.112,-0.258,-0.084,0.4094154931705548,-5.676227169708691,-4.384
1621784808363.917,-0.209,-0.304,-0.093,0.15165168318626854,-5.715526093919981,-4.384
1621784808368.917,-0.314,-0.356,-0.112,-0.10611212679801763,-5.75482501813127,-4.384
1621784808371.611,-0.369498291015625,-0.383479736328125,-0.12385400390625001,-0.245,-5.776,-4.384
1621784808373.917,-0.417,-0.407,-0.134,-0.35415363698164515,-5.864179016542034,-4.659523755570663
1621784808378.918,-0.492,-0.466,-0.155,-0.5908823929299796,-6.055418717425788,-5.257070458493844
1621784808383.919,-0.541,-0.52,-0.169,-0.8276111488783141,-6.24665841830954,-5.854617161417026
1621784808387.772,-0.5517884765625001,-0.56700693359375,-0.1828708984375,-1.01,-6.394,-6.315
1621784808388.919,-0.555,-0.581,-0.187,-0.9814713595166163,-6.380090513595166,-6.532867975830816
1621784808393.92,-0.529,-0.611,-0.202,-0.8570821148036254,-6.319443021148037,-7.482805740181269
