time,gyro_x,gyro_y,gyro_z,acc_x,acc_y,acc_z
1621786214738.504,,,,-0.549,-4.089,-8.944
1621786214755.719,,,,-0.726,-4.707,-9.071
1621786214772.346,1.009,-0.195,0.456,-0.7812328691803324,-5.312689260333475,-8.805133307674334
1621786214773.48,1.0143423869769086,-0.1958219056887552,0.45086308944528003,-0.785,-5.354,-8.787
1621786214777.865,1.035,-0.199,0.431,-0.7921105483734454,-5.471937026469906,-8.736490587416215
1621786214783.396,1.065,-0.182,0.415,-0.8010793960656901,-5.620696189917137,-8.67278084174027
1621786214788.938,1.094,-0.169,0.396,-0.8100660587279701,-5.7697508361432295,-8.608944548346143
1621786214791.364,1.1040431076152393,-0.1607035197961067,0.38552023553192427,-0.814,-5.835,-8.581
1621786214794.494,1.117,-0.15,0.372,-0.8583303862009112,-5.952692829247125,-8.589518387936645
1621786214800.059,1.154,-0.127,0.351,-0.937153409090909,-6.161960227272727,-8.604664772727272
1621786214805.637,1.189,-0.098,0.323,-1.0161562432197873,-6.3717050065090035,-8.61984570948145
1621786214809.368,1.2143665312540952,-0.07597117022670685,0.30631149259599005,-1.069,-6.512,-8.63
1621786214811.226,1.227,-0.065,0.298,-1.1001602763524705,-6.568272999070744,-8.652140196355704
1621786214816.827,1.262,-0.026,0.271,-1.194083269362854,-6.737890509474364,-8.718874954547292
1621786214822.44,1.297,0.017,0.237,-1.2882109679070206,-6.907877701911033,-8.78575516140762
1621786214827.496,1.337456242403195,0.04756693870463622,0.20553403368640388,-1.373,-7.061,-8.846
1621786214828.064,1.342,0.051,0.202,-1.3836728649400685,-7.075344579409246,-8.841114752782534
1621786214833.7,1.388,0.066,0.171,-1.489598525791952,-7.217711138163527,-8.792629829302227
1621786214839.348,1.435,0.073,0.136,-1.5957490234375,-7.3603798828125,-8.7440419921875
1621786214845.007,1.482,0.073,0.094,-1.702110592358733,-7.503332312178939,-8.695357542273117
1621786214845.746,1.4874723657024793,0.07352117768595041,0.09035175619834711,-1.716,-7.522,-8.689
1621786214850.679,1.524,0.077,0.066,-1.7318432678122881,-7.693053586380128,-8.41778473745066
1621786214856.362,1.559,0.082,0.045,-1.7500961551240646,-7.890122895153038,-8.105320056350758
1621786214862.056,1.585,0.08,0.023,-1.768383543984158,-8.087564703693367,-7.792264755525431
1621786214864.116,1.5929426664384734,0.07963896970734212,0.015418363854184495,-1.775,-8.159,-7.679
1621786214867.762,1.607,0.079,0.002,-1.7227508152568554,-8.242204362119272,-7.512591275761457
1621786214873.48,1.625,0.08,-0.005,-1.6408083915345313,-8.372693806688407,-7.2516123866231865
1621786214879.21,1.637,0.089,-0.019,-1.558694532828116,-8.50345625338315,-6.990087493233698
1621786214882.608,1.6441037386755135,0.09728769512143251,-0.02314384756071626,-1.51,-8.581,-6.835
1621786214884.95,1.649,0.103,-0.026,-1.4249492045588679,-8.551307710467297,-6.746174760974202
1621786214890.703,1.648,0.12,-0.044,-1.2160326045614909,-8.478372329403124,-6.527986714231379
1621786214896.468,1.637,0.131,-0.037,-1.0066727084344302,-8.405282188151665,-6.309335698453709
1621786214901.223,1.6156005155728352,0.15239948442716478,-0.03782305709335249,-0.834,-8.345,-6.129
1621786214902.245,1.611,0.157,-0.038,-0.7869207306745188,-8.32841587731756,-6.079793162304074
1621786214908.032,1.559,0.188,-0.024,-0.5204005680707743,-8.234531602194108,-5.801228635457519
1621786214913.832,1.477,0.222,0.003,-0.2532732211958151,-8.140433440606637,-5.522029484957851
1621786214919.643,1.386,0.264,0.04,0.014360112571823125,-8.04615704029915,-5.242301481413923
1621786214919.961,1.3798870677006916,0.2671110459023266,0.04294730664430937,0.029,-8.041,-5.227
1621786214925.467,1.274,0.321,0.094,-0.019112408719197,-8.086645105707957,-5.036400842381643
1621786214930.651,1.15,0.372,0.15,-0.0644088559472691,-8.129618658206384,-4.856957224516588
1621786214936.222,1.025,0.429,0.206,-0.11308872357301097,-8.17580212236414,-4.664110056614611
1621786214937.814,0.9850061330880098,0.4444262058089105,0.22056919437508213,-0.127,-8.189,-4.609
1621786214941.795,0.885,0.483,0.257,-0.3936342699216951,-8.299453301541712,-4.689189096919284
1621786214947.372,0.733,0.546,0.311,-0.7671773376324275,-8.45419359471103,-4.8015305497602085
1621786214952.95,0.586,0.616,0.372,-1.1407694610778443,-8.608954209228601,-4.9138867558999655
1621786214955.835,0.52035,0.6475326771653543,0.40456653543307086,-1.334,-8.689,-4.972
1621786214958.531,0.459,0.677,0.435,-1.5653788499776813,-8.81193401777381,-5.1814210120521045
1621786214964.115,0.353,0.717,0.489,-2.0446052428681574,-9.06655204317656,-5.615168851195065
1621786214969.702,0.283,0.733,0.543,-2.5240830661851232,-9.32130365621069,-6.049144260033275
1621786214973.884,0.25157292622198923,0.7292586816930939,0.5661961735028175,-2.883,-9.512,-6.374
1621786214975.291,0.241,0.728,0.574,-2.9684654168748903,-9.521184808006591,-6.450358446224287
1621786214980.883,0.239,0.698,0.595,-3.3081470711381837,-9.55768975810046,-6.753844514377557
1621786214986.477,0.272,0.637,0.593,-3.647947365577601,-9.594207458231473,-7.057436580720972
1621786214991.96,0.3082526067798089,0.5664543868068583,0.593,-3.981,-9.63,-7.355
1621786214992.073,0.309,0.565,0.593,-3.980388111227985,-9.625835410092511,-7.349917576934488
1621786214997.674,0.349,0.487,0.581,-3.9500685600237344,-9.419476831998274,-7.098079672033876
1621786215003.276,0.368,0.405,0.571,-3.919745044097419,-9.213091269520188,-6.846208835666316
1621786215008.88,0.374,0.309,0.56,-3.8894096340049087,-9.006624753890552,-6.5942392048979155
1621786215010.064,0.37019955596186493,0.2921091376082887,0.5578886422010362,-3.883,-8.963,-6.541
1621786215014.488,0.356,0.229,0.55,-3.7897739320152994,-8.757268127457845,-6.229839694553682
1621786215020.099,0.332,0.147,0.534,-3.671534611862307,-8.496336852879383,-5.835192749016862
1621786215025.711,0.286,0.079,0.538,-3.5532798577816083,-8.235371518612293,-5.440494289716102
1621786215028.192,0.26302404452367495,0.053372972737945126,0.5371163094047567,-3.501,-8.12,-5.266
1621786215031.326,0.234,0.021,0.536,-3.413118681198313,-8.018233432827646,-5.124686839366888
1621786215036.945,0.164,-0.026,0.538,-3.2555525494276796,-7.835771852237253,-4.871320499479708
1621786215042.31,0.087,-0.051,0.541,-3.105113040144586,-7.661562900487431,-4.629413768552494
1621786215046.023,0.030457177001726198,-0.06715509228522108,0.5457119019165229,-3.001,-7.541,-4.462
1621786215047.826,0.003,-0.075,0.548,-2.976211669931909,-7.506296337904674,-4.442169335945527
1621786215053.342,-0.086,-0.099,0.557,-2.900373141894206,-7.400122398651889,-4.381498513515365
1621786215058.857,-0.173,-0.103,0.56,-2.824551396747544,-7.293971955446563,-4.320841117398035
1621786215063.843,-0.24350517836593785,-0.09215304948216341,0.56,-2.756,-7.198,-4.266
1621786215064.373,-0.251,-0.091,0.56,-2.741128303489471,-7.19011800084942,-4.2750419914784015
1621786215069.888,-0.318,-0.087,0.569,-2.5863900480881203,-7.108106725486704,-4.369122850762423
1621786215075.403,-0.361,-0.075,0.585,-2.4316449425271607,-7.0260918195393955,-4.463207874943486
1621786215080.917,-0.4,-0.045,0.599,-2.2769340877642446,-6.944095066515049,-4.557272074639339
1621786215081.663,-0.40378720014163055,-0.03986022837921572,0.6008936000708153,-2.256,-6.933,-4.57
1621786215086.433,-0.428,-0.007,0.613,-2.090528107441414,-6.875432917637385,-4.554202521584213
1621786215091.947,-0.454,0.021,0.63,-1.8992504590927777,-6.808888104700562,-4.535941386871317
1621786215097.461,-0.478,0.063,0.644,-1.7079728107441414,-6.7423432917637385,-4.517680252158422
1621786215099.478,-0.48239039943317685,0.0758053316800992,0.6527807988663538,-1.638,-6.718,-4.511
1621786215102.974,-0.49,0.098,0.668,-1.518676479456185,-6.642834032289011,-4.443684263903736
1621786215108.489,-0.51,0.14,0.691,-1.330450291916783,-6.524263917441,-4.337497450867527
1621786215114.002,-0.529,0.171,0.712,-1.1422907655620427,-6.405735794753721,-4.231348244387797
1621786215117.292,-0.5433228377839777,0.193677826491298,0.7245324830609805,-1.03,-6.335,-4.168
1621786215119.515,-0.553,0.209,0.733,-0.9676010855560734,-6.28969838811371,-4.127565503440335
1621786215125.028,-0.579,0.251,0.759,-0.8128408125222731,-6.17734242989117,-4.027280846514433
1621786215130.541,-0.613,0.291,0.791,-0.6580873927465117,-6.064991447133968,-3.9270006304997396
1621786215135.104,-0.6519081808920583,0.33073601452805956,0.8125236745360322,-0.53,-5.972,-3.844
1621786215136.053,-0.66,0.339,0.817,-0.5247252652356279,-5.965766222551197,-3.852364983414206
1621786215141.565,-0.707,0.389,0.846,-0.49408783617073776,-5.929558351838145,-3.900951613345396
1621786215147.077,-0.744,0.436,0.873,-0.4634504071058475,-5.8933504811250925,-3.9495382432765855
1621786215152.59,-0.778,0.487,0.888,-0.43280619294349865,-5.857134591660499,-3.998135633412836
1621786215152.915,-0.780083780640544,0.490095902665951,0.8894884147432457,-0.431,-5.855,-4.001
1621786215158.048,-0.813,0.539,0.913,-0.5341222722549359,-5.889082784897818,-4.195301004502944
1621786215163.502,-0.833,0.592,0.934,-0.6436893799792172,-5.925295642535504,-4.40174524419813
1621786215168.955,-0.841,0.625,0.942,-0.7532417734672671,-5.961503636993419,-4.608161759612054
1621786215170.536,-0.8395499619295024,0.6334102208088861,0.9431600304563981,-0.785,-5.972,-4.668
1621786215174.406,-0.836,0.654,0.946,-0.8819279148121959,-6.081895595025165,-4.795259099039142
1621786215179.856,-0.822,0.693,0.939,-1.0184231105195292,-6.2366520527432305,-4.97446707707666
1621786215185.303,-0.791,0.712,0.937,-1.1548449315752256,-6.391325319246288,-5.153578719687201
1621786215188.144,-0.7732662363856394,0.7229532069382816,0.9396079064138766,-1.226,-6.472,-5.247
1621786215190.75,-0.757,0.733,0.942,-1.3188908227848102,-6.528741922051966,-5.27737100266489
1621786215196.196,-0.723,0.754,0.941,-1.5130181962025318,-6.647323714745726,-5.340841674994448
1621786215201.639,-0.691,0.77,0.934,-1.7070324367088607,-6.765836400732845,-5.404275358094604
1621786215205.734,-0.6608963521335307,0.7684948176066766,0.9219585408534123,-1.853,-6.855,-5.452
1621786215207.08,-0.651,0.768,0.918,-1.899573016225828,-6.8737670871304735,-5.461038841964881
1621786215212.521,-0.616,0.77,0.904,-2.087807735052234,-6.949618248499667,-5.497571238052901
1621786215217.96,-0.572,0.775,0.888,-2.2759748833074016,-7.02544218159591,-5.534090520115582
1621786215223.308,-0.5297028289178267,0.7818855859901213,0.8673432420296363,-2.461,-7.1,-5.57
1621786215223.397,-0.529,0.782,0.867,-2.4633330413625303,-7.1003947445255475,-5.571442335766424
1621786215228.833,-0.485,0.778,0.846,-2.606045950643031,-7.1245413972888425,-5.659670490093848
1621786215234.267,-0.426,0.78,0.829,-2.74870758428919,-7.148679374348279,-5.747866944734098
1621786215239.7,-0.37,0.775,0.803,-2.891337170663886,-7.172811929092805,-5.836043587069865
1621786215240.868,-0.357312056099973,0.7726344511372831,0.7984839521711768,-2.922,-7.178,-5.855
1621786215245.131,-0.311,0.764,0.782,-3.024544690444052,-7.108988881312534,-5.840663183089576
1621786215250.561,-0.264,0.744,0.756,-3.1551538108292396,-7.021090800295014,-5.822402666258472
1621786215255.989,-0.229,0.723,0.728,-3.285715951628839,-6.933224335870639,-5.804148717663267
1621786215258.412,-0.21382211127603112,0.7140718301623712,0.7168397877029641,-3.344,-6.894,-5.796
1621786215261.417,-0.195,0.703,0.703,-3.3253917182294144,-6.866949071870538,-5.73672917658258
1621786215266.808,-0.166,0.674,0.686,-3.2920062715233644,-6.81841652434415,-5.630390346333678
1621786215272.198,-0.145,0.649,0.668,-3.258628384242798,-6.769894965982585,-5.524075594254836
1621786215275.852,-0.1388951733514616,0.6347554044867437,0.6517204622705642,-3.236,-6.737,-5.452
1621786215277.585,-0.136,0.628,0.644,-3.2067179861364465,-6.735107624954396,-5.429590295512587
1621786215282.971,-0.131,0.614,0.63,-3.115707770886538,-6.729226012404232,-5.359939620576432
1621786215288.354,-0.126,0.604,0.62,-3.024747060309264,-6.723347599135633,-5.290326831869335
1621786215293.251,-0.12235987477882128,0.6067300939158841,0.614539812168232,-2.942,-6.718,-5.227
1621786215293.735,-0.122,0.607,0.614,-2.939547723440135,-6.716355860033727,-5.231653752107926
1621786215299.114,-0.124,0.599,0.607,-2.912301854974705,-6.698088743676222,-5.2833589797639124
1621786215304.491,-0.122,0.592,0.599,-2.885065879707701,-6.679828260258572,-5.335045432827432
1621786215309.865,-0.119,0.579,0.585,-2.8578447442383363,-6.6615777262507025,-5.386703724002248
1621786215310.624,-0.11575027267769496,0.5799890474459188,0.5821741501545173,-2.854,-6.659,-5.394
1621786215315.237,-0.096,0.586,0.565,-2.760149781905164,-6.604231884057971,-5.456478190516393
1621786215320.608,-0.066,0.59,0.548,-2.650882200647249,-6.540466666666667,-5.529220064724919
1621786215325.976,-0.044,0.6,0.531,-2.5416692556634306,-6.476733333333334,-5.601925566343041
1621786215327.975,-0.045117815699658705,0.605961683731513,0.5235478953356086,-2.501,-6.453,-5.629
1621786215331.341,-0.047,0.616,0.511,-2.4114450127516873,-6.411039311831593,-5.554791745924391
1621786215336.704,-0.066,0.628,0.49,-2.268755928477829,-6.344182821152302,-5.436554804074904
1621786215342.066,-0.098,0.637,0.475,-2.126099322258387,-6.277341547956207,-5.318344774626255
1621786215345.302,-0.1251730217302173,0.6412269144913672,0.4683577057992802,-2.04,-6.237,-5.247
1621786215347.425,-0.143,0.644,0.464,-2.000245735329392,-6.273073314238144,-5.237306830527846
1621786215352.781,-0.183,0.646,0.454,-1.8999549052530582,-6.364077956344447,-5.212853202206764
1621786215358.136,-0.216,0.649,0.443,-1.7996823614070239,-6.455066005389923,-5.188404032565293
1621786215362.605,-0.24104560795402719,0.659018243181611,0.4421651464015324,-1.716,-6.531,-5.168
1621786215363.489,-0.246,0.661,0.442,-1.714000750325613,-6.5365363837136865,-5.204191545387621
1621786215368.839,-0.265,0.665,0.435,-1.70190145251713,-6.570042131491024,-5.423219859561697
1621786215374.168,-0.278,0.675,0.429,-1.6898501897049663,-6.603414859278555,-5.641378617135738
1621786215379.495,-0.276,0.677,0.415,-1.677802791777564,-6.636776884308285,-5.859467410385639
1621786215379.85,-0.2747333914080052,0.6766666819494751,0.4140667094585301,-1.677,-6.639,-5.874
1621786215384.82,-0.257,0.672,0.401,-1.733651597330683,-6.621946713048417,-6.129221226749964
1621786215390.142,-0.243,0.658,0.398,-1.794316143688769,-6.603685446542666,-6.402521198352974
1621786215395.461,-0.22,0.641,0.393,-1.854944512281698,-6.58543507028255,-6.675658185432344
1621786215397.045,-0.21523269804822043,0.632955177956372,0.3888286107921929,-1.873,-6.58,-6.757
1621786215400.777,-0.204,0.614,0.379,-1.9434259693725207,-6.505444112670449,-6.8932872925820075
1621786215406.092,-0.187,0.583,0.372,-2.0437185940365996,-6.399270130387181,-7.087372094015271
1621786215411.404,-0.164,0.553,0.361,-2.143955935673762,-6.293154673036727,-7.281349912553854
1621786215414.215,-0.1587040154546709,0.5402896370912101,0.35464481854560503,-2.197,-6.237,-7.384
1621786215416.712,-0.154,0.529,0.349,-2.197,-6.239913135744093,-7.4383299816273345
1621786215422.02,-0.14,0.492,0.344,-2.197,-6.246106290857818,-7.5538323244983125
1621786215427.323,-0.119,0.461,0.335,-2.197,-6.2522934641733015,-7.669223106832068
1621786215431.357,-0.10834834461481788,0.4396966892296358,0.34945581802274717,-2.197,-6.257,-7.757
1621786215432.625,-0.105,0.433,0.354,-2.103274909775616,-6.272929560789124,-7.905922870633211
1621786215437.923,-0.126,0.415,0.405,-1.7116830378157855,-6.339484701082693,-8.528136042680057
1621786215443.22,-0.159,0.396,0.473,-1.3201813902400752,-6.4060245067971415,-9.150205854243042
1621786215448.472,-0.1659444751890795,0.368222099243682,0.5305399372809445,-0.932,-6.472,-9.767
1621786215448.514,-0.166,0.368,0.531,-0.9344572481677786,-6.4703855879537695,-9.768036958726801
1621786215453.805,-0.138,0.309,0.571,-1.2440705173078848,-6.26696967012872,-9.898693758303928
1621786215459.094,-0.119,0.206,0.553,-1.5535694958355357,-6.063628841236054,-10.029302327242595
1621786215464.381,-0.087,0.042,0.461,-1.8629541837507322,-5.8603631012757695,-10.159862665542809
1621786215465.561,-0.07493927630666851,0.006041175655067239,0.43397504505753504,-1.932,-5.815,-10.189
1621786215469.664,-0.033,-0.119,0.34,-2.116104792862973,-5.571933541448885,-9.589516288860567
1621786215474.946,0.047,-0.251,0.215,-2.3531098620995805,-5.259024887946959,-8.81777821373849
1621786215480.216,0.115,-0.302,0.129,-2.58957815073103,-4.946824925178641,-8.047788008534647
1621786215482.61,0.1390911324340611,-0.30972734436564225,0.10854526491447644,-2.697,-4.805,-7.698
1621786215485.483,0.168,-0.319,0.084,-2.377196821340378,-4.694006503761557,-7.35843085625682
1621786215490.748,0.216,-0.302,0.093,-1.7910767099293632,-4.490582883477861,-6.736084620685695
1621786215496.011,0.236,-0.257,0.098,-1.2052012002526848,-4.287244156664561,-6.113998104864182
1621786215499.615,0.22983231976231372,-0.2097144515110719,0.113076551692122,-0.804,-4.148,-5.688
1621786215501.27,0.227,-0.188,0.12,-0.7284524891432516,-4.0552958931293315,-5.5398293980616025
1621786215506.527,0.171,-0.103,0.134,-0.4884813206407639,-3.760828046360473,-5.069176267579304
1621786215511.781,0.07,-0.012,0.157,-0.24865502861580058,-3.4665379770498403,-4.598807281930345
1621786215516.593,-0.039072265625000005,0.09523911830357142,0.17624804687499998,-0.029,-3.197,-4.168
1621786215517.031,-0.049,0.105,0.178,-0.005199904930642582,-3.2063804934963915,-4.169007821615315
1621786215522.281,-0.187,0.22,0.227,0.28008283998098615,-3.318820923901301,-4.181088198435677
1621786215527.527,-0.311,0.323,0.284,0.565153320945508,-3.431177693271682,-4.193159586880428
1621786215532.77,-0.436,0.415,0.346,0.8500513374530055,-3.5434664880515103,-4.205223672269997
1621786215533.542,-0.4530895028653963,0.4273751572473559,0.35366081162931556,0.892,-3.56,-4.207
1621786215538.01,-0.552,0.499,0.398,1.024290659086974,-4.070150805101864,-4.520431162347781
1621786215543.249,-0.642,0.567,0.459,1.1794092456859238,-4.668332660010389,-4.887947653950482
1621786215548.484,-0.712,0.639,0.517,1.3344049460379754,-5.266040630230276,-5.255172995902349
1621786215550.463,-0.7244818253931221,0.6575336195231207,0.5404507022537446,1.393,-5.492,-5.394
1621786215553.716,-0.745,0.688,0.579,1.2759079346726405,-5.835765356265356,-5.826354747795924
1621786215558.947,-0.75,0.703,0.632,1.0876291660644601,-6.38852457002457,-6.521561714120538
1621786215564.173,-0.728,0.712,0.672,0.8995261453967336,-6.940767813267813,-7.21611974273739
1621786215567.355,-0.6957174837594056,0.7077362714399215,0.6878367060802916,0.785,-7.277,-7.639
1621786215569.397,-0.675,0.705,0.698,0.5723733767643866,-7.430173507057546,-7.8528374809989145
1621786215574.619,-0.597,0.688,0.698,0.028629851610568302,-7.821879406442273,-8.399677495475931
1621786215579.838,-0.499,0.684,0.682,-0.5148086138255518,-8.213365544697792,-8.946210712993123
1621786215584.219,-0.4082880879943834,0.6646817224432483,0.660161947109759,-0.971,-8.542,-9.405
1621786215585.054,-0.391,0.661,0.656,-1.0526860026683682,-8.57894964905157,-9.436097221416555
1621786215590.267,-0.271,0.623,0.623,-1.5626980538314288,-8.80964726782296,-9.630254814664424
1621786215595.479,-0.143,0.578,0.571,-2.07259068101398,-9.040290866639596,-9.82436694413829
1621786215600.686,-0.003,0.529,0.515,-2.582005612274494,-9.270718385637219,-10.018297218516155
1621786215601.054,0.006966557223264541,0.5253950750469043,0.5100520637898687,-2.618,-9.287,-10.032
1621786215605.891,0.138,0.478,0.445,-2.91156003602452,-9.287,-9.86564931291944
1621786215611.094,0.279,0.433,0.374,-3.2273152436012897,-9.287,-9.68672136195927
1621786215616.294,0.415,0.391,0.291,-3.542892652741059,-9.287,-9.507894163446734
1621786215617.861,0.4520970727810929,0.3789359112907015,0.26747502701686793,-3.638,-9.287,-9.454
1621786215621.49,0.538,0.351,0.213,-3.599934871809795,-9.113111573494749,-9.157048744288916
1621786215626.684,0.642,0.307,0.14,-3.5454518522829788,-8.8642232342927,-8.732019279457557
1621786215631.876,0.731,0.278,0.079,-3.4909918808020257,-8.615440182754707,-8.30716961557489
1621786215634.64,0.764557118660017,0.26095511433142,0.0481061447256987,-3.462,-8.483,-8.081
1621786215637.065,0.794,0.246,0.021,-3.3568980805386737,-8.285680556162827,-7.872243845918412
1621786215642.25,0.85,0.22,-0.038,-3.132176992698177,-7.863786833398919,-7.425897002025855
1621786215647.433,0.876,0.195,-0.094,-2.907540553539417,-7.4420520309562335,-6.979718289536969
1621786215651.391,0.8950954063604241,0.18201512367491166,-0.12913554770318023,-2.736,-7.12,-6.639
1621786215652.615,0.901,0.178,-0.14,-2.654910258843453,-7.027420105990044,-6.542102150459145
1621786215657.792,0.909,0.154,-0.18,-2.31190049199235,-6.635806969648306,-6.132224053608187
1621786215662.967,0.895,0.131,-0.204,-1.9690201322685665,-6.244341577003373,-5.722500591266771
1621786215668.114,0.8571829682779456,0.10811074395770393,-0.21594222054380663,-1.628,-5.855,-5.315
1621786215668.139,0.857,0.108,-0.216,-1.6262143212332172,-5.8541944306315274,-5.313097961213327
1621786215673.309,0.794,0.096,-0.227,-1.2554758972708924,-5.686944013806418,-4.918201143709598
1621786215678.476,0.716,0.063,-0.213,-0.8849650598180595,-5.519796267587095,-4.5235467429139735
1621786215683.639,0.62,0.038,-0.19,-0.5147518354930238,-5.352782782929184,-4.129209348582795
1621786215684.807,0.5967174447174447,0.03573955773955774,-0.1805061425061425,-0.431,-5.315,-4.04
1621786215688.806,0.517,0.028,-0.148,-0.21483672275054866,-5.30325720555962,-3.948454133138259
1621786215693.971,0.394,0.009,-0.101,0.06435438185808334,-5.288090504754938,-3.8302157717629846
1621786215699.133,0.272,-0.009,-0.044,0.34338712509144104,-5.272932406730066,-3.71204447695684
1621786215701.494,0.20840264963330968,-0.01540548852614147,-0.02249585994795363,0.471,-5.266,-3.658
1621786215704.293,0.133,-0.023,0.003,0.5319992378383924,-5.307170284491477,-3.811254283494804
1621786215709.45,-0.007,-0.033,0.052,0.644383616456828,-5.383022000087942,-4.0936084248171545
1621786215714.604,-0.15,-0.028,0.091,0.756704149383675,-5.4588306242396705,-4.375802160435018
1621786215718.151,-0.2353859133567163,-0.008719309887193098,0.1233640155464973,0.834,-5.511,-4.57
1621786215719.755,-0.274,0.0,0.138,0.8065128814902893,-5.532796802748051,-4.82346016646849
1621786215724.905,-0.379,0.037,0.169,0.7182570572951072,-5.602782122987038,-5.637271766415643
1621786215730.05,-0.449,0.079,0.185,0.6300890914695909,-5.672697773080254,-6.450273219711983
1621786215734.782,-0.495003038070825,0.12960334187790754,0.1914404253299155,0.549,-5.737,-7.198
1621786215735.193,-0.499,0.134,0.192,0.5460776787552576,-5.76322659489985,-7.238318127003736
1621786215740.334,-0.527,0.188,0.175,0.5095365157798759,-6.091168049060267,-7.742462307714933
1621786215745.472,-0.52,0.251,0.157,0.47301617694638076,-6.418922615371041,-8.246319185858408
1621786215750.608,-0.487,0.325,0.155,0.43650972087414336,-6.746552589782053,-8.749984528956734
1621786215751.383,-0.476125160553732,0.33285405071119356,0.155,0.431,-6.796,-8.826
1621786215755.74,-0.415,0.377,0.155,0.22223795211786368,-6.927462246777164,-8.978233281767956
1621786215760.871,-0.312,0.419,0.152,-0.02361837200736655,-7.082283609576428,-9.157516419889502
1621786215765.998,-0.208,0.431,0.143,-0.2692758305709025,-7.236979742173113,-9.336654541436463
1621786215767.954,-0.16715361158757386,0.42985477415666096,0.13154774156660948,-0.363,-7.296,-9.405
1621786215771.122,-0.101,0.428,0.113,-0.5751562979577381,-7.174029276354622,-9.202034588596387
1621786215776.243,-0.012,0.396,0.079,-0.9180954432770629,-6.976870218982411,-8.873952012749381
1621786215781.363,0.056,0.353,0.056,-1.2609855388974147,-6.7797393607602405,-8.54591636170464
1621786215784.499,0.08603602958721068,0.337675495108566,0.04864423765211167,-1.471,-6.659,-8.345
1621786215786.479,0.105,0.328,0.044,-1.4897750858929177,-6.583899656428329,-8.173871669345445
1621786215791.619,0.14,0.271,0.038,-1.5385139124408334,-6.388944350236666,-7.729634339472404
1621786215796.738,0.145,0.22,0.049,-1.5870559594202043,-6.194776162319182,-7.287190586431131
1621786215801.056,0.1272760200429492,0.18286404199475065,0.05912798854688618,-1.628,-6.031,-6.914
1621786215801.854,0.124,0.176,0.061,-1.649794622002779,-6.006837447890488,-6.892640303935192
1621786215806.967,0.094,0.127,0.072,-1.7894228779233066,-5.852038938000768,-6.755798421192679
1621786215812.077,0.066,0.087,0.08,-1.9289644620524495,-5.697336516571563,-6.619041480649263
1621786215817.186,0.037,0.038,0.084,-2.0684860449989655,-5.542656269402477,-6.482304142151791
1621786215817.571,0.03526537541846007,0.03513409851745576,0.08317039693926351,-2.079,-5.531,-6.472
1621786215822.291,0.014,0.0,0.073,-2.152002250818143,-5.497218566288075,-6.51980931720247
1621786215827.394,0.01,-0.044,0.066,-2.230929114036517,-5.460695547230161,-6.571498674682738
1621786215832.494,0.003,-0.075,0.051,-2.309806888688158,-5.4241952436658725,-6.623155883964402
1621786215834.058,0.005761902481080564,-0.08451321965705527,0.04394180477057189,-2.334,-5.413,-6.639
1621786215837.591,0.012,-0.106,0.028,-2.312962825609684,-5.421371936747167,-6.6263347623568505
1621786215842.686,0.014,-0.129,0.014,-2.2826245772266067,-5.433445321307779,-6.608069898534386
1621786215847.778,0.01,-0.143,-0.002,-2.2523037738088174,-5.445511763484246,-6.589815537293064
1621786215850.516,0.00946205871066769,-0.14945529547198771,-0.01383470836531082,-2.236,-5.452,-6.58
1621786215852.868,0.009,-0.155,-0.024,-2.184036511970042,-5.4773375685435335,-6.558956934599438
1621786215857.954,-0.003,-0.152,-0.038,-2.0716566359056663,-5.532134367616245,-6.513447728589898
1621786215863.038,-0.012,-0.155,-0.063,-1.959325308724533,-5.586907494092996,-6.467958182871918
1621786215866.945,-0.02122540353574174,-0.15423121637202153,-0.06838148539584935,-1.873,-5.629,-6.433
1621786215868.12,-0.024,-0.154,-0.07,-1.8414062248816647,-5.639531258372778,-6.440737251049388
1621786215873.199,-0.04,-0.154,-0.084,-1.7048499598106635,-5.685050013396445,-6.474179601679022
1621786215878.275,-0.052,-0.143,-0.091,-1.5683724658390639,-5.730542511386979,-6.5076026614271685
1621786215883.347,-0.07199614995909331,-0.13800096251022667,-0.09899845998363734,-1.432,-5.776,-6.541
1621786215883.348,-0.072,-0.138,-0.099,-1.4319807234650166,-5.7760186815802,-6.541012851023322
1621786215888.42,-0.087,-0.131,-0.101,-1.331863219895288,-5.873046138743455,-6.607757853403141
1621786215893.506,-0.103,-0.113,-0.101,-1.2314662065683009,-5.97034447881961,-6.6746891956211325
1621786215898.589,-0.113,-0.099,-0.106,-1.1311318419800096,-6.067582103760114,-6.741578772013327
1621786215899.761,-0.113,-0.09507975018015855,-0.10646120586115781,-1.108,-6.09,-6.757
1621786215903.671,-0.113,-0.082,-0.108,-1.0798746558318824,-6.185816850471045,-6.8528168504710445
1621786215908.75,-0.108,-0.068,-0.101,-1.0433389293208912,-6.310286020449167,-6.977286020449167
1621786215913.826,-0.098,-0.056,-0.096,-1.0068260332485006,-6.434677412153413,-7.101677412153413
1621786215916.165,-0.08831709899417682,-0.04631709899417681,-0.09461672842773955,-0.99,-6.492,-7.159
1621786215918.899,-0.077,-0.035,-0.093,-1.0342298634710547,-6.513196953437071,-7.2326051690216415
1621786215923.971,-0.049,-0.035,-0.089,-1.1162869641686042,-6.552522431884577,-7.369160570559828
1621786215929.04,-0.012,-0.035,-0.086,-1.1982966672628628,-6.591825195254278,-7.505637095331783
1621786215932.545,0.019139496770461777,-0.03707596645136412,-0.08945994408560685,-1.255,-6.619,-7.6
1621786215934.105,0.033,-0.038,-0.091,-1.2886737527244498,-6.60316475084346,-7.605628190965276
1621786215939.17,0.082,-0.051,-0.094,-1.3980001492849252,-6.551753470874511,-7.623900874809661
1621786215944.231,0.129,-0.068,-0.099,-1.507242229719643,-6.500381840981698,-7.642159466157107
1621786215948.899,0.1696062361231779,-0.08738024905878945,-0.11192016603919297,-1.608,-6.453,-7.659
1621786215949.289,0.173,-0.089,-0.113,-1.608,-6.444327682095444,-7.646122921899294
1621786215954.346,0.206,-0.105,-0.122,-1.608,-6.3319185952637245,-7.479212459634015
1621786215959.4,0.232,-0.113,-0.131,-1.608,-6.219574632221026,-7.312398696328191
1621786215964.451,0.243,-0.127,-0.133,-1.608,-6.107295792967348,-7.14568163198182
1621786215965.229,0.2431541027996712,-0.12900333639572556,-0.133770513998356,-1.608,-6.09,-7.12
1621786215969.5,0.244,-0.14,-0.138,-1.556655695482248,-5.979452568844431,-7.004213354097723
1621786215974.546,0.234,-0.143,-0.138,-1.495995807190668,-5.848848115481949,-6.86741911621569
1621786215979.59,0.215,-0.148,-0.133,-1.4353564636648148,-5.718287896257918,-6.730671208876776
1621786215981.533,0.2022813831848121,-0.14761458736923672,-0.133,-1.412,-5.668,-6.678
1621786215984.631,0.182,-0.147,-0.133,-1.389555309071287,-5.630718987948918,-6.638816895497332
1621786215989.67,0.148,-0.145,-0.124,-1.3530512920438875,-5.570085196954254,-6.575089543737635
1621786215994.707,0.099,-0.133,-0.119,-1.3165596558546675,-5.509471970741652,-6.511383805983573
1621786215997.821,0.06940746290299193,-0.129300932862874,-0.119,-1.294,-5.472,-6.472
1621786215999.758,0.051,-0.127,-0.119,-1.2835508395941213,-5.481380496273459,-6.498835343769644
1621786216004.808,0.01,-0.12,-0.11,-1.2563084797509654,-5.505836705678111,-6.568798677003203
1621786216009.856,-0.026,-0.117,-0.105,-1.229077973001287,-5.530282274237481,-6.638731569337604
1621786216014.134,-0.05567987804878049,-0.11869599303135889,-0.10330400696864112,-1.206,-5.551,-6.698
1621786216014.901,-0.061,-0.119,-0.103,-1.1995491477656017,-5.55975809135473,-6.714150673842326
1621786216019.944,-0.079,-0.106,-0.101,-1.1571246795688608,-5.617356274453956,-6.820366678159714
1621786216024.984,-0.099,-0.112,-0.099,-1.1147289639767939,-5.674915421170192,-6.9265106960289025
1621786216030.022,-0.103,-0.112,-0.099,-1.0723476246870642,-5.732455049694934,-7.032618720673993
1621786216030.42,-0.1032370564281559,-0.112,-0.099,-1.069,-5.737,-7.041
1621786216035.058,-0.106,-0.112,-0.099,-1.0242209761443648,-5.798606809890556,-7.13055804771127
1621786216040.091,-0.096,-0.115,-0.094,-0.975630620486721,-5.865457235508715,-7.2277387590265585
1621786216045.123,-0.094,-0.112,-0.091,-0.9270496929844315,-5.93229468990677,-7.3249006140311375
1621786216046.682,-0.09244979120132077,-0.1092096241623774,-0.08975983296105662,-0.912,-5.953,-7.355
1621786216050.151,-0.089,-0.103,-0.087,-0.903667779331499,-5.977996662005504,-7.394738283188237
1621786216055.177,-0.089,-0.105,-0.082,-0.8915954711534124,-6.014213586539763,-7.452313906806802
1621786216060.202,-0.079,-0.101,-0.077,-0.8795260949975191,-6.0504217150074435,-7.50987554693491
1621786216062.919,-0.079,-0.09721204901293397,-0.07429432072352427,-0.873,-6.07,-7.541
1621786216065.223,-0.079,-0.094,-0.072,-0.8840834625750983,-6.075683826961589,-7.552225558249138
1621786216070.242,-0.07,-0.093,-0.065,-0.9082281932754129,-6.0880657401412375,-7.576679836778944
1621786216075.259,-0.063,-0.094,-0.059,-0.9323635282248957,-6.100442834987127,-7.601124599099574
1621786216079.133,-0.057592473589406556,-0.08781996981646463,-0.05513748113529039,-0.951,-6.11,-7.62
1621786216080.274,-0.056,-0.086,-0.054,-0.9662210392978858,-6.111338887716018,-7.611684802605785
1621786216085.286,-0.045,-0.079,-0.049,-1.0330887293784117,-6.11722076786199,-7.5751552311729045
1621786216090.297,-0.038,-0.084,-0.045,-1.0999466477666857,-6.123101788460958,-7.53863099797931
1621786216095.304,-0.023,-0.084,-0.044,-1.1667459360014476,-6.128977651777904,-7.502138794221431
1621786216095.323,-0.022973466809213722,-0.08398483817669355,-0.044,-1.167,-6.129,-7.502
1621786216100.328,-0.016,-0.08,-0.044,-1.2185044380923726,-6.1108038212727545,-7.477944034902964
1621786216105.349,0.002,-0.08,-0.045,-1.2701772077629006,-6.092548172107718,-7.453809447871221
1621786216110.37,0.012,-0.086,-0.047,-1.3218474650218144,-6.074293410561156,-7.429676034301189
1621786216111.551,0.01458927441724658,-0.08458766849968367,-0.04747077716677211,-1.334,-6.07,-7.424
1621786216115.387,0.023,-0.08,-0.049,-1.347967063928523,-6.037568004098175,-7.39843317111389
1621786216120.402,0.023,-0.082,-0.058,-1.3662277199379247,-5.995166141839056,-7.365006885537358
1621786216125.416,0.023,-0.093,-0.056,-1.3844839312350274,-5.952774600352564,-7.331588736044357
1621786216127.755,0.023466838848009357,-0.0897321280639345,-0.059267871936065496,-1.393,-5.933,-7.316
1621786216130.426,0.024,-0.086,-0.063,-1.3863973024350502,-5.9427389789083005,-7.302959672309224
1621786216135.435,0.031,-0.082,-0.061,-1.374015660360279,-5.961001900968589,-7.27850592921155
1621786216140.441,0.031,-0.082,-0.065,-1.361641863552699,-5.9792532512597685,-7.254067680516581
1621786216143.937,0.037286522608653234,-0.0854925125603629,-0.06360299497585484,-1.353,-5.992,-7.237
1621786216145.446,0.04,-0.087,-0.063,-1.353,-5.997509828214,-7.235225648541254
1621786216150.447,0.044,-0.086,-0.065,-1.353,-6.015769546889873,-7.229345400154108
1621786216155.447,0.049,-0.087,-0.065,-1.353,-6.034025699910859,-7.223466300028707
1621786216160.096,0.0555110394685424,-0.08234925752246972,-0.06779044548651818,-1.353,-6.051,-7.218
1621786216160.445,0.056,-0.082,-0.068,-1.354709258166523,-6.052903983780431,-7.216723465419938
1621786216165.44,0.063,-0.082,-0.07,-1.3791636028021121,-6.080144266412479,-7.198460094109815
1621786216170.433,0.07,-0.084,-0.068,-1.4036095804396835,-6.107375228844204,-7.180202971570363
1621786216175.425,0.084,-0.089,-0.073,-1.428049581650099,-6.134599533989984,-7.161950312438534
1621786216176.232,0.08626469580539377,-0.09013234790269688,-0.073,-1.432,-6.139,-7.159
1621786216180.413,0.098,-0.096,-0.073,-1.4522425785334363,-6.136404797623919,-7.159
1621786216185.399,0.106,-0.099,-0.077,-1.4763809610401417,-6.1333101331999815,-7.159
1621786216190.383,0.115,-0.098,-0.08,-1.5005110696913215,-6.130216529526753,-7.159
1621786216192.343,0.1177533561979422,-0.1039000489955904,-0.08236001959823616,-1.51,-6.129,-7.159
1621786216195.366,0.122,-0.113,-0.086,-1.5026718161952168,-6.125429859172028,-7.120292157338837
1621786216200.345,0.126,-0.12,-0.087,-1.490601796770669,-6.119549593298531,-7.05653769576302
1621786216205.323,0.126,-0.126,-0.094,-1.478534144712881,-6.113670480757557,-6.992795738739833
1621786216208.431,0.12350171720145225,-0.12475085860072613,-0.094,-1.471,-6.11,-6.953
1621786216210.299,0.122,-0.124,-0.094,-1.4572806958899946,-6.1122090404922895,-6.925677657069057
1621786216215.272,0.115,-0.129,-0.091,-1.420761027121477,-6.118089326141457,-6.852947808250399
1621786216220.243,0.11,-0.134,-0.091,-1.3842557015877839,-6.1239673022867125,-6.780246524348553
1621786216224.499,0.09629279080053074,-0.134,-0.08928659885006635,-1.353,-6.129,-6.718
1621786216225.211,0.094,-0.134,-0.089,-1.351269357195033,-6.127269357195033,-6.715381848064281
1621786216230.178,0.08,-0.138,-0.089,-1.3391946219868518,-6.115194621986851,-6.697114940954468
1621786216235.142,0.068,-0.134,-0.087,-1.3271270087655223,-6.103127008765522,-6.678858808132457
1621786216240.104,0.054,-0.133,-0.086,-1.3150647370343316,-6.091064737034332,-6.660610756026296
1621786216240.542,0.05311695215593621,-0.1326467808623745,-0.086,-1.314,-6.09,-6.659
1621786216245.064,0.044,-0.129,-0.086,-1.2919802469135804,-6.073344032921811,-6.692029629629629
1621786216250.022,0.033,-0.131,-0.084,-1.2678372199359853,-6.055081999695168,-6.728244170096022
1621786216254.978,0.026,-0.126,-0.082,-1.2437037037037038,-6.036827160493827,-6.764444444444444
1621786216256.56,0.023125252624833635,-0.12919416375018486,-0.08136116724996303,-1.236,-6.031,-6.776
1621786216259.931,0.017,-0.136,-0.08,-1.2172436388613295,-6.026785087384568,-6.796653071815615
1621786216264.882,0.012,-0.122,-0.077,-1.1896939174234908,-6.020594138746851,-6.826988720140426
1621786216269.831,0.007,-0.115,-0.075,-1.1621564221933909,-6.014405937571548,-6.857310905899412
1621786216272.555,0.005898563601362357,-0.115,-0.07114497260476825,-1.147,-6.011,-6.874
1621786216274.777,0.005,-0.115,-0.068,-1.1333671710224669,-6.01656441999083,-6.882207519486474
1621786216279.722,0.005,-0.106,-0.072,-1.1030310560904784,-6.028946507718172,-6.900471098884304
1621786216284.664,-0.009,-0.098,-0.068,-1.072711416781293,-6.0413218707015135,-6.918724759284731
1621786216288.529,-0.007435208065632104,-0.08939364436097658,-0.06408802016408026,-1.049,-6.051,-6.933
1621786216289.604,-0.007,-0.087,-0.063,-1.0450231924437028,-6.052280666840164,-6.933
1621786216294.542,-0.012,-0.086,-0.054,-1.0267549867581096,-6.058163648332134,-6.933
1621786216299.478,-0.012,-0.089,-0.054,-1.008494006705142,-6.064044302925463,-6.933
1621786216304.411,-0.017,-0.075,-0.051,-0.9902447683051911,-6.069921176308498,-6.933
1621786216304.477,-0.017080503020101,-0.07497316565996633,-0.05090607980988216,-0.99,-6.07,-6.933
1621786216309.342,-0.023,-0.073,-0.044,-0.9961107022385771,-6.088026571603803,-6.954081922723091
1621786216314.271,-0.014,-0.061,-0.04,-1.0023017479300829,-6.106290156393744,-6.975441030358786
1621786216319.198,-0.014,-0.056,-0.04,-1.0084903403863845,-6.124546504139834,-6.996791674333027
1621786216320.4,-0.014,-0.052094600624721106,-0.03926773761713521,-1.01,-6.129,-7.002
1621786216324.122,-0.014,-0.04,-0.037,-1.0146813541106932,-6.129,-7.020257281031704
1621786216329.045,-0.01,-0.042,-0.031,-1.0208728026406695,-6.129,-7.044403930298611
1621786216333.965,-0.009,-0.033,-0.028,-1.027060873570277,-6.129,-7.068537406924081
1621786216336.302,-0.009475273088381331,-0.029673088381330686,-0.02562363455809335,-1.03,-6.129,-7.08
1621786216338.882,-0.01,-0.026,-0.023,-1.03,-6.125912412350842,-7.095925452085128
1621786216343.798,-0.005,-0.017,-0.019,-1.03,-6.120029400910321,-7.126269405830976
1621786216348.712,-0.01,-0.023,-0.016,-1.03,-6.11414901894452,-7.156599797023004
1621786216352.179,-0.007882133624975144,-0.015234489958242194,-0.013176178166633527,-1.03,-6.11,-7.178
1621786216353.623,-0.007,-0.012,-0.012,-1.03,-6.108178374549598,-7.176269455822118
1621786216358.532,-0.002,-0.017,-0.005,-1.03,-6.101986079886668,-7.170386775892335
1621786216363.439,-0.005,-0.005,-0.003,-1.03,-6.095796248960611,-7.16450643651258
1621786216368.034,-0.00031606191827186336,-0.009683938081728138,-0.00018963715096311775,-1.03,-6.09,-7.159
1621786216368.344,0.0,-0.01,0.0,-1.030372100912904,-6.0907637860843815,-7.15784452874414
1621786216373.246,0.002,0.0,0.005,-1.03625510424377,-6.102839424500369,-7.139576255243029
1621786216378.146,0.002,0.0,0.005,-1.042135470639033,-6.114909650259067,-7.121316170120898
1621786216383.044,0.007,0.0,0.01,-1.048013493091537,-6.126975064766839,-7.103063363557858
1621786216383.866,0.007503790523690773,0.000335860349127182,0.010335860349127183,-1.049,-6.129,-7.1
1621786216387.939,0.01,0.002,0.012,-1.049,-6.129,-7.084800379875845
1621786216392.834,0.014,0.0,0.017,-1.049,-6.129,-7.066533138762779
1621786216397.725,0.01,0.009,0.019,-1.049,-6.129,-7.0482804749992285
1621786216399.676,0.012394307116104869,0.009,0.02099525593008739,-1.049,-6.129,-7.041
1621786216402.614,0.016,0.009,0.024,-1.052722066715123,-6.12174196990551,-7.024622906453459
1621786216407.5,0.014,0.014,0.024,-1.0589120053198893,-6.109671589626216,-6.997387176592487
1621786216412.385,0.009,0.016,0.031,-1.0651007067411038,-6.097603621854847,-6.970156890339143
1621786216415.463,0.006478726063696815,0.02230318484075796,0.033521273936303185,-1.069,-6.09,-6.953
1621786216417.268,0.005,0.026,0.035,-1.0622434098441904,-6.09,-6.9462434098441905
1621786216422.148,-0.005,0.033,0.04,-1.0439785026174766,-6.09,-6.927978502617477
1621786216427.026,-0.005,0.035,0.044,-1.025720905739863,-6.09,-6.909720905739864
1621786216431.226,-0.011029539878836429,0.04102953987883643,0.04658408851950133,-1.01,-6.09,-6.894
1621786216431.902,-0.012,0.042,0.047,-1.01,-6.092104527617068,-6.897779559802082
1621786216436.775,-0.019,0.042,0.054,-1.01,-6.107273999162414,-6.925022692373315
1621786216441.647,-0.021,0.052,0.058,-1.01,-6.122441190612834,-6.952261730080191
1621786216446.516,-0.024,0.063,0.065,-1.01,-6.1375992616835475,-6.979484388329637
1621786216446.966,-0.024,0.06327735139202408,0.06509245046400802,-1.01,-6.139,-6.982
1621786216451.383,-0.024,0.066,0.066,-1.0156195934088121,-6.139,-7.026113808259175
1621786216456.248,-0.021,0.068,0.075,-1.0218091599496808,-6.139,-7.074701905604995
1621786216461.111,-0.012,0.075,0.073,-1.027996241594061,-6.139,-7.1232704965133795
1621786216462.686,-0.011351723444879912,0.0772689679429203,0.07494482966536026,-1.03,-6.139,-7.139
1621786216465.97,-0.01,0.082,0.079,-1.03,-6.139,-7.155528425440575
1621786216470.828,-0.003,0.084,0.079,-1.03,-6.139,-7.179978846183758
1621786216475.685,0.0,0.094,0.087,-1.03,-6.139,-7.204425580563376
1621786216478.382,0.005001660126773317,0.09010981990139853,0.087,-1.03,-6.139,-7.218
1621786216480.538,0.009,0.087,0.087,-1.0381167279411765,-6.141751433200399,-7.209883272058823
1621786216485.389,0.023,0.089,0.087,-1.0563786764705883,-6.147941924227318,-7.191621323529412
1621786216490.24,0.026,0.089,0.093,-1.0746415441176471,-6.154132726819541,-7.173358455882353
1621786216494.054,0.026,0.0905740843367424,0.093,-1.089,-6.159,-7.159
1621786216495.086,0.026,0.091,0.093,-1.090252874280455,-6.1576811849679425,-7.153790680623372
1621786216499.931,0.031,0.094,0.093,-1.0961348922827325,-6.151489587070808,-7.129333868929691
1621786216504.774,0.035,0.099,0.098,-1.1020145391011342,-6.145300485156701,-7.104886916368969
1621786216509.614,0.038,0.096,0.099,-1.1078906291437218,-6.139115127217135,-7.080454752507683
1621786216509.704,0.0379813786838918,0.09609310658054097,0.0990372426322164,-1.108,-6.139,-7.08
1621786216514.452,0.037,0.101,0.101,-1.132008266787517,-6.135960978887656,-7.056295635323718
1621786216519.288,0.038,0.106,0.096,-1.1564634401712741,-6.132865387320091,-7.032150021096717
1621786216524.122,0.038,0.099,0.094,-1.1809075026175557,-6.129771202200309,-7.008015377162414
1621786216525.327,0.037750593824228025,0.09775296912114015,0.0957458432304038,-1.187,-6.129,-7.002
1621786216528.953,0.037,0.094,0.101,-1.19606374988264,-6.129,-6.997351923137107
1621786216533.782,0.031,0.101,0.099,-1.2081349169092104,-6.129,-6.9911615810722
1621786216538.61,0.035,0.099,0.098,-1.2202036428504366,-6.129,-6.98497249084593
1621786216540.929,0.0330776197945656,0.099,0.09703880989728281,-1.226,-6.129,-6.982
1621786216543.435,0.031,0.099,0.096,-1.2369393806419258,-6.129,-6.97894340835005
1621786216548.257,0.03,0.099,0.099,-1.257987963891675,-6.129,-6.973062186559679
1621786216553.078,0.031,0.089,0.099,-1.279031218655968,-6.129,-6.967182453610833
1621786216556.507,0.031,0.09398211299721307,0.09544134785913352,-1.294,-6.129,-6.963
1621786216557.896,0.031,0.096,0.094,-1.2957858207901056,-6.127303470249399,-6.960321268814842
1621786216562.712,0.028,0.099,0.093,-1.3019779636808815,-6.1214209345031625,-6.951033054478677
1621786216567.527,0.026,0.089,0.087,-1.308169164848618,-6.115539293393813,-6.941746252727073
1621786216572.062,0.021286729256533875,0.08051611266176098,0.09265592489215935,-1.314,-6.11,-6.933
1621786216572.338,0.021,0.08,0.093,-1.3133073259670245,-6.11,-6.931259434481241
1621786216577.147,0.017,0.087,0.087,-1.3012327303019349,-6.11,-6.90091814280999
1621786216581.954,0.014,0.082,0.082,-1.2891630385238042,-6.11,-6.870589173726483
1621786216586.76,0.007,0.075,0.084,-1.2770964116750232,-6.11,-6.840267906260315
1621786216587.595,0.0063044892978799125,0.07691265443083024,0.08365224464893996,-1.275,-6.11,-6.835
1621786216591.562,0.003,0.086,0.082,-1.2650248547907255,-6.11,-6.835
1621786216596.363,0.0,0.093,0.08,-1.2529526515449636,-6.11,-6.835
1621786216601.162,-0.012,0.089,0.084,-1.2408853594421445,-6.11,-6.835
1621786216603.105,-0.014835776827530034,0.08697444512319283,0.08237955609855427,-1.236,-6.11,-6.835
1621786216605.958,-0.019,0.084,0.08,-1.2466861115928547,-6.119027921862929,-6.835
1621786216610.751,-0.024,0.086,0.084,-1.2646383401390575,-6.134194459772652,-6.835
1621786216615.543,-0.03,0.08,0.084,-1.2825869109369827,-6.149357907515727,-6.835
1621786216618.59,-0.03445295616717635,0.08254454638124363,0.08145545361875638,-1.294,-6.159,-6.835
1621786216620.333,-0.037,0.084,0.08,-1.2918583901730454,-6.163395935960591,-6.837254326133636
1621786216625.12,-0.035,0.087,0.08,-1.2859762378426172,-6.175469827586207,-6.843446065428824
1621786216629.904,-0.042,0.084,0.08,-1.2800979853479852,-6.187535714285715,-6.8496336996337
1621786216634.053,-0.03766368971676448,0.07966368971676448,0.07566368971676447,-1.275,-6.198,-6.855
1621786216634.688,-0.037,0.079,0.075,-1.2733963481147734,-6.198781266303059,-6.861866919611098
1621786216639.468,-0.037,0.079,0.075,-1.2613248755039126,-6.204662240139119,-6.913557584380682
1621786216644.246,-0.033,0.084,0.075,-1.2492583353094617,-6.210540811003082,-6.9652271282902545
1621786216649.023,-0.026,0.077,0.073,-1.2371948778752668,-6.216417880009485,-7.01688347166232
1621786216649.496,-0.025504474558936334,0.0778919457939146,0.073,-1.236,-6.217,-7.022
1621786216653.797,-0.021,0.086,0.073,-1.236,-6.2061225539864475,-7.027299268570705
1621786216658.569,-0.014,0.073,0.07,-1.236,-6.194054065606991,-7.03317878855044
1621786216663.339,-0.012,0.08,0.073,-1.236,-6.181990516750047,-7.039055902096131
1621786216664.917,-0.0103449423815621,0.07966898847631242,0.0713449423815621,-1.236,-6.178,-7.041
1621786216668.106,-0.007,0.079,0.068,-1.233928836457045,-6.174064789268385,-7.0329224621824755
1621786216672.871,-0.002,0.075,0.068,-1.2308339834459139,-6.168184568547236,-7.020852535439064
1621786216677.634,0.0,0.079,0.063,-1.2277405575111788,-6.16230705927124,-7.008788174293597
1621786216680.314,-0.00112578842110661,0.07280816368391364,0.063,-1.226,-6.159,-7.002
1621786216682.395,-0.002,0.068,0.063,-1.226,-6.154938889594715,-6.987380002540973
1621786216687.153,0.0,0.065,0.063,-1.226,-6.145653697115995,-6.953953309617583
1621786216691.909,-0.007,0.063,0.063,-1.226,-6.136372792529539,-6.92054205310634
1621786216695.687,-0.012561688144991529,0.06458905375571186,0.059821892488576264,-1.226,-6.129,-6.894
1621786216696.664,-0.014,0.065,0.059,-1.226,-6.129636470625655,-6.890244823308629
1621786216701.415,-0.017,0.058,0.061,-1.226,-6.132731352778396,-6.871985018607462
1621786216706.165,-0.026,0.058,0.061,-1.226,-6.135825598778587,-6.853728967206336
1621786216710.913,-0.031,0.066,0.061,-1.226,-6.1389185724736794,-6.8354804224052925
1621786216711.038,-0.031237098019037818,0.06605268844867507,0.061,-1.226,-6.139,-6.835
1621786216715.658,-0.04,0.068,0.061,-1.2290144165671046,-6.162512449223417,-6.852785057745918
1621786216720.4,-0.044,0.059,0.066,-1.2321084826762245,-6.186646164874552,-6.871040047789725
1621786216725.142,-0.049,0.061,0.061,-1.2352027080844286,-6.210781123058542,-6.889295977698128
1621786216726.364,-0.049,0.06332118932288983,0.06151581984953107,-1.236,-6.217,-6.894
1621786216729.88,-0.049,0.07,0.063,-1.236,-6.217,-6.914215476399368
1621786216734.616,-0.044,0.063,0.061,-1.236,-6.217,-6.94144692051237
1621786216739.351,-0.04,0.061,0.063,-1.236,-6.217,-6.968672749605194
1621786216741.669,-0.0365711484882881,0.0575711484882881,0.06055082034877722,-1.236,-6.217,-6.982
1621786216744.083,-0.033,0.054,0.058,-1.2312603575822454,-6.207836691325674,-6.977418345662837
1621786216748.812,-0.031,0.056,0.056,-1.2219756818508636,-6.189886318245002,-6.968443159122502
1621786216753.54,-0.037,0.056,0.054,-1.2126929234505568,-6.17193965200441,-6.959469826002205
1621786216756.949,-0.035557019583527104,0.05094956854234486,0.05183552937529065,-1.206,-6.159,-6.953
1621786216758.265,-0.035,0.049,0.051,-1.2043612564607236,-6.162363736738515,-6.947911270062248
1621786216762.988,-0.04,0.045,0.052,-1.1984794136943338,-6.1744369929432095,-6.929646600419247
1621786216767.709,-0.044,0.045,0.051,-1.1926003072344102,-6.186504632518842,-6.9113904277279055
1621786216772.206,-0.044,0.048811888871643644,0.04909405556417818,-1.187,-6.198,-6.894
1621786216772.428,-0.044,0.049,0.049,-1.1877139124859755,-6.198,-6.894291392851419
1621786216777.144,-0.044,0.047,0.052,-1.2028851418496553,-6.198,-6.900483731367206
1621786216781.858,-0.047,0.045,0.052,-1.2180493027728803,-6.198,-6.906673184805257
1621786216786.571,-0.049,0.044,0.044,-1.2332111075492866,-6.198,-6.912861676550729
1621786216787.438,-0.04807967032967033,0.04418406593406593,0.04547252747252747,-1.236,-6.198,-6.914
1621786216791.281,-0.044,0.045,0.052,-1.236,-6.202800626003211,-6.926380561797752
1621786216795.988,-0.042,0.04,0.047,-1.236,-6.2086805617977525,-6.941544606741573
1621786216800.693,-0.035,0.035,0.042,-1.236,-6.214558057784911,-6.956702359550562
1621786216802.648,-0.03333767581875746,0.03209093268282556,0.04116883790937873,-1.236,-6.217,-6.963
1621786216805.397,-0.031,0.028,0.04,-1.2394394392463264,-6.213560560753673,-6.970059901610881
1621786216810.097,-0.031,0.028,0.037,-1.2453197807144465,-6.207680219285553,-6.982130076203338
1621786216814.797,-0.026,0.03,0.033,-1.2512004276389825,-6.2017995723610175,-6.99420087778528
1621786216817.834,-0.02405984194655298,0.022886087137360924,0.033,-1.255,-6.198,-7.002
1621786216819.493,-0.023,0.019,0.033,-1.2529211483962386,-6.195811735153936,-6.999811735153935
1621786216824.187,-0.019,0.014,0.035,-1.2470388702821074,-6.18961986345485,-6.99361986345485
1621786216828.88,-0.016,0.021,0.026,-1.2411581218601055,-6.183429601958006,-6.987429601958006
1621786216832.996,-0.014244390066121727,0.021,0.029511219867756545,-1.236,-6.178,-6.982
1621786216833.569,-0.014,0.021,0.03,-1.2341456213618847,-6.178,-6.980902510601932
1621786216838.257,-0.009,0.024,0.026,-1.218974007127078,-6.178,-6.971923391973169
1621786216842.942,-0.012,0.01,0.028,-1.2038126642694746,-6.178,-6.962950352322751
1621786216847.626,-0.014,0.017,0.024,-1.188653691729687,-6.178,-6.953978715513489
1621786216848.137,-0.014545819642205185,0.01667250821467689,0.024,-1.187,-6.178,-6.953
1621786216852.307,-0.019,0.014,0.024,-1.1707275545795117,-6.167243637772898,-6.953
1621786216856.985,-0.023,0.009,0.026,-1.1524715476036687,-6.1551761077380185,-6.953
1621786216861.662,-0.023,0.003,0.028,-1.1342203042242602,-6.143111726521122,-6.953
1621786216863.256,-0.023,0.006069421228583369,0.02731790639364814,-1.128,-6.139,-6.953
1621786216866.336,-0.023,0.012,0.026,-1.135958861783357,-6.139,-6.962999595573962
1621786216871.008,-0.026,0.016,0.021,-1.1480324834994176,-6.139,-6.978169017730037
1621786216875.679,-0.031,0.007,0.028,-1.1601029506923775,-6.139,-6.9933344765109355
1621786216878.348,-0.02928436911487759,0.008715630885122411,0.02514061519146265,-1.167,-6.139,-7.002
1621786216880.346,-0.028,0.01,0.023,-1.1618292319406418,-6.132503393976704,-7.009822443987234
1621786216885.012,-0.03,0.005,0.026,-1.1497539974403421,-6.117331945501968,-7.028090106436405
1621786216889.676,-0.03,0.005,0.023,-1.1376838174542745,-6.102166847570755,-7.046350122312764
1621786216893.418,-0.030803007282443548,0.012227065541991933,0.023,-1.128,-6.09,-7.061
1621786216894.336,-0.031,0.014,0.023,-1.1327584897700906,-6.088779874417925,-7.063379244885045
1621786216898.995,-0.03,0.01,0.021,-1.1569103564648808,-6.082587088085928,-7.07545517823244
1621786216903.652,-0.03,0.003,0.021,-1.1810508331575615,-6.076397222267292,-7.087525416578781
1621786216908.307,-0.024,0.012,0.017,-1.2051799198481332,-6.070210276962017,-7.099589959924066
1621786216908.465,-0.02396598603747835,0.011591832449740172,0.017,-1.206,-6.07,-7.1
1621786216912.958,-0.023,0.0,0.017,-1.194336253128352,-6.07,-7.117645155523775
1621786216917.609,-0.017,0.01,0.014,-1.1822624402769202,-6.07,-7.135910667273377
1621786216922.257,-0.016,-0.003,0.016,-1.1701955991809407,-6.07,-7.15416563200832
1621786216923.488,-0.016265005781562075,-0.002204982655313781,0.014409965310627562,-1.167,-6.07,-7.159
1621786216926.902,-0.017,0.0,0.01,-1.1715517869930343,-6.065675802356617,-7.154448213006965
1621786216931.546,-0.016,-0.002,0.017,-1.1777431156825728,-6.059794040101556,-7.148256884317427
1621786216936.187,-0.016,-0.003,0.012,-1.1839308638760497,-6.053915679317753,-7.142069136123951
1621786216938.489,-0.014015051839376874,-0.0015112888795326563,0.011007525919688437,-1.187,-6.051,-7.139
1621786216940.826,-0.012,0.0,0.01,-1.1838793401362762,-6.053964626870537,-7.139
1621786216945.462,-0.012,0.0,0.01,-1.1776885534509178,-6.059845874221629,-7.139
1621786216950.097,-0.012,0.002,0.012,-1.171499070844065,-6.065725882698139,-7.139
1621786216953.466,-0.010545301217519634,-0.0009093975649607337,0.010545301217519634,-1.167,-6.07,-7.139
1621786216954.729,-0.01,-0.002,0.01,-1.167,-6.0667067091087175,-7.139
1621786216959.359,-0.009,-0.005,0.012,-1.167,-6.054633643486778,-7.139
1621786216963.988,-0.009,-0.005,0.009,-1.167,-6.042562487757101,-7.139
1621786216968.422,-0.005165118243243243,-0.005,0.011876161317567567,-1.167,-6.031,-7.139
1621786216968.613,-0.005,-0.005,0.012,-1.167498618490967,-6.031255701790239,-7.138501381509033
1621786216973.237,-0.005,-0.01,0.01,-1.1795751328374071,-6.037448786070465,-7.126424867162593
1621786216977.858,-0.005,-0.01,0.007,-1.1916433581296493,-6.0436376195536665,-7.1143566418703506
1621786216982.477,-0.005,-0.012,0.009,-1.203707120085016,-6.0498241641461625,-7.102292879914984
1621786216983.355,-0.005,-0.011049230606525302,0.008619692242610121,-1.206,-6.051,-7.1
1621786216987.094,-0.005,-0.007,0.007,-1.2135232106891978,-6.0557647001031585,-7.0949845262072015
1621786216991.709,0.0,-0.016,0.005,-1.2228089600628775,-6.061645674706489,-7.088794026624748
1621786216996.321,0.003,-0.014,0.007,-1.2320888146583484,-6.0675229159502875,-7.082607456894435
1621786216998.265,0.0008916428344455038,-0.011048299968223705,0.007843342866221799,-1.236,-6.07,-7.08
1621786217000.931,-0.002,-0.007,0.009,-1.234208925847562,-6.063014810805491,-7.069611769915859
1621786217005.54,0.0,-0.009,0.003,-1.2311124341878659,-6.050938493332677,-7.051652118289622
1621786217010.145,-0.003,-0.01,0.0,-1.228018730830422,-6.038873050238646,-7.033708638816448
1621786217013.15,-0.0023473326969986213,-0.00934733269699862,0.004568671121009651,-1.226,-6.031,-7.022
1621786217014.749,-0.002,-0.009,0.007,-1.2270759046633486,-6.031,-7.022
1621786217019.35,-0.007,-0.009,0.002,-1.2301715534092215,-6.031,-7.022
1621786217023.949,-0.005,-0.007,0.003,-1.233265723812809,-6.031,-7.022
1621786217028.013,-0.011188432736735886,-0.003463752721865208,0.003,-1.236,-6.031,-7.022
1621786217028.546,-0.012,-0.003,0.003,-1.2366824456620102,-6.031718363854748,-7.024083255178769
1621786217033.14,-0.014,-0.014,0.003,-1.2425649834641392,-6.03791050890962,-7.0420404758379
1621786217037.734,-0.014,-0.005,0.003,-1.2484475212662685,-6.044102653964493,-7.05999769649703
1621786217042.323,-0.016,-0.01,0.0,-1.2543238067031934,-6.05028821758231,-7.077935830988697
1621786217042.851,-0.015769795657726692,-0.010805715197956577,0.0,-1.255,-6.051,-7.08
1621786217046.911,-0.014,-0.017,0.0,-1.2655605021901613,-6.051,-7.08
1621786217051.498,-0.017,-0.005,-0.003,-1.2774927455993226,-6.051,-7.08
1621786217056.105,-0.005,-0.021,0.0,-1.2894764293041963,-6.051,-7.08
1621786217057.844,-0.00569296624185232,-0.02169296624185232,-0.0010394493627784802,-1.294,-6.051,-7.08
1621786217061.124,-0.007,-0.023,-0.003,-1.290157325866715,-6.051,-7.06826973159313
1621786217066.142,-0.009,-0.023,-0.003,-1.2842784777732617,-6.051,-7.05032377425522
1621786217071.161,-0.003,-0.021,-0.005,-1.2783987716208283,-6.051,-7.032375197579371
1621786217074.062,-0.00415627128539457,-0.01984372871460543,-0.0061562712853945704,-1.275,-6.051,-7.022
1621786217076.179,-0.005,-0.019,-0.007,-1.275,-6.051,-7.016777449858459
1621786217081.198,-0.003,-0.026,-0.007,-1.275,-6.051,-7.004395350237909
1621786217086.215,-0.01,-0.017,-0.005,-1.275,-6.051,-6.992018069023671
1621786217090.276,-0.011618862231738771,-0.021856586695216312,-0.005,-1.275,-6.051,-6.982
1621786217091.232,-0.012,-0.023,-0.005,-1.2726999743979759,-6.051,-6.98317950030873
1621786217096.25,-0.012,-0.024,-0.01,-1.26062777669011,-6.051,-6.989370370928149
1621786217101.267,-0.016,-0.024,-0.005,-1.2485579283444526,-6.051,-6.995560036746435
1621786217106.283,-0.016,-0.016,-0.005,-1.2364910167015557,-6.051,-7.001748196563304
1621786217106.487,-0.016284824296700088,-0.016325513481942958,-0.005081378370485739,-1.236,-6.051,-7.002
1621786217111.299,-0.023,-0.024,-0.007,-1.2330312688275695,-6.056640589227618,-7.013578051572479
1621786217116.316,-0.014,-0.021,-0.002,-1.2299361670080733,-6.062521282684661,-7.025648948668515
1621786217121.331,-0.016,-0.021,-0.009,-1.2268421195324737,-6.0683999728883,-7.037715733823353
1621786217122.696,-0.01681656199795531,-0.02154437466530354,-0.007911250669392921,-1.226,-6.07,-7.041
1621786217126.346,-0.019,-0.023,-0.005,-1.226,-6.07,-7.045504097372861
1621786217131.362,-0.016,-0.023,-0.005,-1.226,-6.07,-7.051694143167028
1621786217136.377,-0.017,-0.012,-0.005,-1.226,-6.07,-7.057882682574114
1621786217138.903,-0.015488606485539002,-0.014015191352614666,-0.006007595676307333,-1.226,-6.07,-7.061
1621786217141.391,-0.014,-0.016,-0.007,-1.227535644862348,-6.067082274761539,-7.061
1621786217146.406,-0.019,-0.021,-0.003,-1.2306308937208987,-6.061201301930293,-7.061
1621786217151.42,-0.017,-0.023,-0.005,-1.2337255398339435,-6.055321474315507,-7.061
1621786217155.105,-0.01626492646342651,-0.018589558780559075,-0.0027947793902795364,-1.236,-6.051,-7.061
1621786217156.433,-0.016,-0.017,-0.002,-1.236,-6.052557682164117,-7.05780265239997
1621786217161.448,-0.012,-0.021,-0.002,-1.236,-6.0584393640268255,-7.0457297264712535
1621786217166.46,-0.019,-0.019,-0.003,-1.236,-6.064317609825936,-7.033663853515184
1621786217171.305,-0.019,-0.019,-0.0020335070374519065,-1.236,-6.07,-7.022
1621786217171.473,-0.019,-0.019,-0.002,-1.2356889083153721,-6.0702073944564185,-7.022
1621786217176.486,-0.024,-0.01,-0.002,-1.2264040876000422,-6.0763972749333055,-7.022
1621786217181.498,-0.017,-0.007,0.0,-1.2171215277254435,-6.082585648183038,-7.022
1621786217186.51,-0.021,-0.017,0.003,-1.2078389678508448,-6.08877402143277,-7.022
1621786217187.503,-0.020009450046276002,-0.0156132300647864,0.0033962199814896003,-1.206,-6.09,-7.022
1621786217191.522,-0.016,-0.01,0.005,-1.2012851565444158,-6.099677836566725,-7.026714843455585
1621786217196.534,-0.019,-0.002,0.01,-1.1954054929980855,-6.111746619635508,-7.032594507001915
1621786217201.545,-0.017,-0.005,0.01,-1.1895269750825306,-6.123813051146384,-7.03847302491747
1621786217203.699,-0.016570133982947627,-0.007149330085261876,0.012579196102314252,-1.187,-6.129,-7.041
1621786217206.556,-0.016,-0.01,0.016,-1.187,-6.129,-7.047880727305622
1621786217211.567,-0.009,0.0,0.019,-1.187,-6.129,-7.059949341896965
1621786217216.577,-0.002,0.005,0.019,-1.187,-6.129,-7.072015604504953
1621786217219.892,-0.002661841399814788,0.005,0.019,-1.187,-6.129,-7.08
1621786217221.586,-0.003,0.005,0.019,-1.1828148092293773,-6.127012034383954,-7.073931473382597
1621786217226.597,0.005,0.005,0.024,-1.1704335695973458,-6.121130945558739,-7.055978675916151
1621786217231.606,0.007,0.016,0.023,-1.1580571557834414,-6.1152521489971345,-7.03803287588599
1621786217236.081,0.005213189062728469,0.016,0.030147243749086124,-1.147,-6.11,-7.022
1621786217236.615,0.005,0.016,0.031,-1.1444271364363066,-6.109340291393925,-7.018437573527194
1621786217241.625,0.007,0.026,0.031,-1.1202855117492685,-6.103150131217761,-6.98501070857591
1621786217246.633,0.005,0.03,0.031,-1.0961532985430305,-6.096962384241802,-6.951596874905734
1621786217251.641,0.0,0.035,0.033,-1.0720210853367922,-6.090774637265844,-6.918183041235558
1621786217252.268,-0.0002503411971144473,0.03650204718268669,0.03412653538701502,-1.069,-6.09,-6.914
1621786217256.65,-0.002,0.047,0.042,-1.0584412381397734,-6.079441238139774,-6.903170500656177
1621786217261.658,-0.003,0.044,0.042,-1.046373493430679,-6.067373493430679,-6.890793326595568
1621786217266.665,-0.017,0.061,0.047,-1.0343081019112124,-6.055308101911212,-6.8784185660627815
1621786217268.453,-0.021640910642031882,0.061,0.04878496563155072,-1.03,-6.051,-6.874
1621786217271.673,-0.03,0.061,0.052,-1.0260193149237966,-6.047019314923797,-6.885743020974799
1621786217276.68,-0.038,0.068,0.054,-1.019830089029727,-6.040830089029726,-6.904001237362306
1621786217281.686,-0.049,0.075,0.065,-1.0136417685227102,-6.03464176852271,-6.922256782858005
1621786217284.632,-0.05429538251499342,0.07617675166999853,0.06558837583499927,-1.01,-6.031,-6.933
1621786217286.693,-0.058,0.077,0.066,-1.0175173642030275,-6.033548259051874,-6.9392432346770905
1621786217291.699,-0.061,0.094,0.072,-1.0357756010685664,-6.039737491887649,-6.954406855124741
1621786217296.705,-0.07,0.094,0.068,-1.0540347284060552,-6.045927026578324,-6.969571215116893
1621786217300.808,-0.07245893484198206,0.10137680452594615,0.07947502926258292,-1.069,-6.051,-6.982
1621786217301.711,-0.073,0.103,0.082,-1.0777643560171486,-6.052060654549846,-6.980939345450154
1621786217306.716,-0.077,0.103,0.08,-1.1263522583177343,-6.057940719159471,-6.975059280840529
1621786217311.721,-0.077,0.105,0.08,-1.1749377905923555,-6.063820496950667,-6.969179503049333
1621786217316.725,-0.086,0.101,0.082,-1.2235162127890828,-6.069699414286577,-6.963300585713423
1621786217316.981,-0.08625560975609756,0.10089775609756098,0.08210224390243903,-1.226,-6.07,-6.963
1621786217321.73,-0.091,0.099,0.084,-1.226,-6.07,-6.974453236106708
1621786217326.734,-0.103,0.11,0.08,-1.226,-6.07,-6.986521173966212
1621786217331.738,-0.099,0.103,0.079,-1.226,-6.07,-6.998589700620499
1621786217333.152,-0.10069555035128806,0.103,0.07843481654957064,-1.226,-6.07,-7.002
1621786217336.742,-0.105,0.103,0.077,-1.226,-6.065781348151727,-7.019318676008697
1621786217341.745,-0.101,0.096,0.07,-1.226,-6.059901802971733,-7.043455756221309
1621786217346.748,-0.101,0.091,0.068,-1.226,-6.054022544696787,-7.067591658613192
1621786217349.32,-0.09842948467694711,0.09202820612922116,0.06337307241850479,-1.226,-6.051,-7.08
1621786217351.751,-0.096,0.093,0.059,-1.2201351567691656,-6.067241104331541,-7.083007611913248
1621786217356.754,-0.093,0.087,0.052,-1.208065018425663,-6.100666102821241,-7.0891974264483775
1621786217361.756,-0.091,0.089,0.051,-1.1959966471334502,-6.134086207938138,-7.095386334803359
1621786217365.485,-0.08205388520109333,0.089,0.0457814330339711,-1.187,-6.159,-7.1
1621786217366.758,-0.079,0.089,0.044,-1.1923558512968475,-6.1535653861840816,-7.109293977250411
1621786217371.76,-0.075,0.093,0.042,-1.2134012447317934,-6.132210501669209,-7.145813924681642
1621786217376.761,-0.068,0.087,0.031,-1.2344425293433434,-6.110859786401607,-7.182326742095802
1621786217381.647,-0.06311496777973052,0.08016095489162273,0.028068980667838313,-1.255,-6.09,-7.218
1621786217381.762,-0.063,0.08,0.028,-1.2548648105625717,-6.090277494108405,-7.216740603661853
1621786217386.763,-0.058,0.07,0.017,-1.248985361653272,-6.102345836606442,-7.161968895401535
1621786217391.763,-0.058,0.066,0.005,-1.2431070608495982,-6.114411822466614,-7.10720788265152
1621786217396.764,-0.061,0.059,0.005,-1.2372276119402985,-6.12648016496465,-7.052436174391202
1621786217397.808,-0.0618353515625,0.057538134765625,0.003955810546875,-1.236,-6.129,-7.041
1621786217401.764,-0.065,0.052,0.0,-1.2095561163581412,-6.145894703437854,-7.005006936154137
1621786217406.763,-0.059,0.044,0.0,-1.176138541745372,-6.167244820551568,-6.959521904042313
1621786217411.763,-0.059,0.042,-0.002,-1.142714438987533,-6.188599108424632,-6.914027986399698
1621786217413.964,-0.06076128150029302,0.03803711662434069,-0.0024403203750732565,-1.128,-6.198,-6.894
1621786217416.762,-0.063,0.033,-0.003,-1.1212447628548108,-6.2082194613222095,-6.894
1621786217421.761,-0.056,0.042,0.0,-1.1091749342522899,-6.2264789456183305,-6.894
1621786217426.759,-0.056,0.044,-0.002,-1.097107463498685,-6.244734862912246,-6.894
1621786217430.117,-0.05734342645047861,0.039969720648564175,-0.000656573549521391,-1.089,-6.257,-6.894
1621786217431.758,-0.058,0.038,0.0,-1.0849356057743178,-6.257,-6.894
1621786217436.756,-0.051,0.04,-0.003,-1.0725574030685512,-6.257,-6.894
1621786217441.754,-0.051,0.035,-0.005,-1.060179805003401,-6.257,-6.894
1621786217446.268,-0.04738655462184874,0.025063025210084036,-0.0004831932773109249,-1.049,-6.257,-6.894
1621786217446.751,-0.047,0.024,0.0,-1.0472355840464456,-6.257,-6.894
1621786217451.748,-0.04,0.035,-0.016,-1.0289777146140122,-6.257,-6.894
1621786217456.746,-0.04,0.037,-0.012,-1.0107162771007832,-6.257,-6.894
1621786217461.742,-0.031,0.026,-0.012,-0.9924628677693448,-6.257,-6.894
1621786217462.416,-0.030865080140734948,0.025595240422204846,-0.012,-0.99,-6.257,-6.894
1621786217466.738,-0.03,0.023,-0.012,-0.9953543235641049,-6.257,-6.862409490971781
1621786217471.735,-0.024,0.017,-0.012,-1.0015449293772496,-6.257,-6.825884916674228
1621786217476.73,-0.026,0.017,-0.017,-1.0077328131143575,-6.257,-6.789376402625291
1621786217478.56,-0.02526739640344019,0.011505473025801408,-0.01919781078967944,-1.01,-6.257,-6.776
1621786217481.726,-0.024,0.002,-0.023,-1.0292202779752273,-6.245428608157771,-6.745208330182544
1621786217486.72,-0.026,-0.005,-0.024,-1.0595372725760348,-6.227176539979734,-6.696639267403699
1621786217491.716,-0.028,-0.014,-0.035,-1.0898676063580406,-6.208916441070159,-6.648048834712118
1621786217494.703,-0.03099046687851381,-0.015196186751405525,-0.03679428012710829,-1.108,-6.198,-6.619
1621786217496.71,-0.033,-0.016,-0.038,-1.1104869165381008,-6.1955130834619,-6.609301025501407
1621786217501.704,-0.042,-0.031,-0.04,-1.116675015881659,-6.1893249841183415,-6.58516743806153
1621786217506.699,-0.054,-0.037,-0.038,-1.1228640227485858,-6.183135977251414,-6.561030311280516
1621786217510.844,-0.0672796245600313,-0.04280983574501369,-0.04297985921001173,-1.128,-6.178,-6.541
1621786217511.693,-0.07,-0.044,-0.044,-1.1311047463422752,-6.174421648283479,-6.545104579910127
1621786217516.687,-0.087,-0.049,-0.047,-1.1493645469263007,-6.153376454390027,-6.569244655258499
1621786217521.68,-0.108,-0.049,-0.049,-1.1676207767842284,-6.132335375909703,-6.593380009985929
1621786217526.673,-0.131,-0.059,-0.054,-1.1858778993236803,-6.111293268576097,-6.617516544868594
1621786217526.98,-0.13186066415611092,-0.059122952022301556,-0.05443033207805546,-1.187,-6.11,-6.619
1621786217531.665,-0.145,-0.061,-0.061,-1.15273058704239,-6.115517956323683,-6.676212494513976
1621786217536.658,-0.155,-0.068,-0.056,-1.116209286135872,-6.121398504774732,-6.737184496874858
1621786217541.65,-0.173,-0.072,-0.061,-1.0796951284107934,-6.127277903052499,-6.798144573754861
1621786217543.112,-0.17592946585795344,-0.0740506261005674,-0.061,-1.069,-6.129,-6.816
1621786217546.641,-0.183,-0.079,-0.061,-1.0346500121087365,-6.15262929103348,-6.845974193255434
1621786217551.634,-0.187,-0.077,-0.058,-0.9860514924017678,-6.18606011987649,-6.888381818732215
1621786217556.625,-0.183,-0.08,-0.063,-0.9374719834110311,-6.219477871284131,-6.930772855240056
1621786217559.242,-0.1803778071334214,-0.08314663143989431,-0.063,-0.912,-6.237,-6.953
1621786217561.615,-0.178,-0.086,-0.063,-0.8903679525222552,-6.245682250348211,-6.965949797129535
1621786217566.607,-0.169,-0.084,-0.056,-0.8448627596439169,-6.263946239326591,-6.993191001029492
1621786217571.597,-0.161,-0.082,-0.058,-0.7993753709198813,-6.282203082419912,-7.020421546660208
1621786217575.368,-0.15646572728607075,-0.08502284847595283,-0.05648857576202358,-0.765,-6.296,-7.041
1621786217576.587,-0.155,-0.086,-0.056,-0.7590286873457771,-6.294488275277412,-7.043947863209047
1621786217581.577,-0.152,-0.08,-0.056,-0.7345849342234737,-6.288299983347715,-7.056015032471956
1621786217586.566,-0.148,-0.07,-0.049,-0.71014596484854,-6.282112902493301,-7.068079840138063
1621786217591.495,-0.14108392463909958,-0.06802397846831418,-0.04208392463909959,-0.686,-6.276,-7.08
1621786217591.555,-0.141,-0.068,-0.042,-0.6860741940856715,-6.275929515618612,-7.07963644898021
1621786217596.545,-0.133,-0.065,-0.042,-0.6922637978286874,-6.270049392062747,-7.049307390639432
1621786217601.533,-0.129,-0.072,-0.031,-0.6984509789076814,-6.2641715700377025,-7.018990203352361
1621786217606.522,-0.124,-0.066,-0.03,-0.7046393713186863,-6.258292597247248,-6.988667080538438
1621786217607.619,-0.12443982183936175,-0.06643982183936176,-0.028680534481914738,-0.706,-6.257,-6.982
1621786217611.51,-0.126,-0.068,-0.024,-0.7202407014780712,-6.252172643566755,-6.95593227526048
1621786217616.498,-0.12,-0.07,-0.023,-0.7384959262175914,-6.245984431790647,-6.922515931669493
1621786217621.485,-0.126,-0.077,-0.019,-0.7567475769323965,-6.23979743154834,-6.889106130361037
1621786217623.74,-0.12916456191874695,-0.07157503671071953,-0.01809583945178659,-0.765,-6.237,-6.874
1621786217626.473,-0.133,-0.065,-0.017,-0.7683911449734168,-6.226996122328421,-6.880782289946833
1621786217631.46,-0.134,-0.066,-0.014,-0.7745793635165634,-6.208740877626138,-6.893158727033127
1621786217636.447,-0.138,-0.065,-0.012,-0.7807675820597101,-6.190485632923855,-6.90553516411942
1621786217639.858,-0.13663210456748423,-0.07183947716257894,-0.007212365986194742,-0.785,-6.178,-6.914
1621786217641.434,-0.136,-0.075,-0.005,-0.7868585736147518,-6.171348262852468,-6.920651737147533
1621786217646.42,-0.138,-0.072,0.0,-0.7927377232988378,-6.150307095562054,-6.941692904437946
1621786217651.406,-0.145,-0.08,0.0,-0.7986171608660738,-6.129264897952999,-6.9627351020470005
1621786217655.971,-0.1495776820251677,-0.07542231797483229,0.0,-0.804,-6.11,-6.982
1621786217656.392,-0.15,-0.075,0.0,-0.8047842453816662,-6.10845765074939,-6.984065179505055
1621786217661.377,-0.15,-0.077,0.007,-0.8140669828905693,-6.090201600315214,-7.008509721611833
1621786217666.362,-0.157,-0.073,0.014,-0.8233501750344765,-6.07194465576553,-7.032955460924121
1621786217671.347,-0.157,-0.072,0.014,-0.8326329125433797,-6.053688605331353,-7.0574000030309
1621786217672.081,-0.15729458731325005,-0.07273646828312515,0.014294587313250062,-0.834,-6.051,-7.061
1621786217676.331,-0.159,-0.077,0.016,-0.8907267877171178,-6.045723089514687,-7.071289975446361
1621786217681.315,-0.15,-0.087,0.017,-0.9572491133408105,-6.039534966200855,-7.083356815908333
1621786217686.3,-0.154,-0.087,0.014,-1.0237877322743945,-6.033345327230289,-7.095426611900936
1621786217688.189,-0.15058829005389515,-0.08775815776580108,0.012104605585497304,-1.049,-6.031,-7.1
1621786217691.283,-0.145,-0.089,0.009,-1.0829974992042921,-6.019667500265236,-7.107490974400945
1621786217696.266,-0.138,-0.098,0.007,-1.137753512481244,-6.001415495839585,-7.119555858682308
1621786217701.25,-0.129,-0.103,0.0,-1.1925175737734732,-5.983160808742176,-7.131622516255172
1621786217704.297,-0.12594243018128368,-0.11033816756491915,-0.004280597746202841,-1.226,-5.972,-7.139
1621786217706.233,-0.124,-0.115,-0.007,-1.2483585755218993,-5.957935734752354,-7.150780324737345
1621786217711.215,-0.115,-0.124,-0.017,-1.3059032155364534,-5.921738299904489,-7.1810995436697445
1621786217716.198,-0.106,-0.126,-0.028,-1.3634563150952834,-5.885535543730387,-7.211423219781386
1621786217720.401,-0.09756375575811035,-0.12262550230324414,-0.03643624424188964,-1.412,-5.855,-7.237
1621786217721.18,-0.096,-0.122,-0.038,-1.4276777363297242,-5.849290207139175,-7.228483698783854
1621786217726.161,-0.084,-0.147,-0.049,-1.52791502138113,-5.812784035422922,-7.174033815546053
1621786217731.143,-0.073,-0.159,-0.072,-1.6281768719861704,-5.7762689169926915,-7.119570588056895
1621786217736.124,-0.063,-0.18,-0.084,-1.7284141570375762,-5.739762745276439,-7.065120704819094
1621786217736.501,-0.06247014413177763,-0.18090832434552406,-0.08558956760466713,-1.736,-5.737,-7.061
1621786217741.104,-0.056,-0.192,-0.105,-1.7528714604219435,-5.6949643274232935,-6.974069085283546
1621786217746.086,-0.052,-0.195,-0.12,-1.7711317246295482,-5.649468414906041,-6.879982300213853
1621786217751.066,-0.061,-0.195,-0.134,-1.7893848300547526,-5.603990338677142,-6.785932401073817
1621786217752.598,-0.06530679478380233,-0.19561525639768607,-0.13615339739190116,-1.795,-5.59,-6.757
1621786217756.046,-0.075,-0.197,-0.141,-1.79907083150022,-5.581644082710075,-6.719076990761108
1621786217761.025,-0.094,-0.215,-0.148,-1.8049492240241516,-5.569577908582005,-6.664315123564482
1621786217766.005,-0.126,-0.22,-0.155,-1.8108287695131757,-5.5575093678413765,-6.609542515587784
1621786217768.691,-0.14002628223987448,-0.21892105521231736,-0.1571578895753653,-1.814,-5.551,-6.58
1621786217770.984,-0.152,-0.218,-0.159,-1.8112923450421061,-5.580356680069798,-6.602373780441544
1621786217775.964,-0.187,-0.222,-0.161,-1.805411440710113,-5.644118063879827,-6.650968621500645
1621786217780.942,-0.22,-0.225,-0.161,-1.7995334193156816,-5.707848190577346,-6.699539640391473
1621786217784.781,-0.24699239823442865,-0.23348332515939185,-0.15945757724374693,-1.795,-5.757,-6.737
1621786217785.92,-0.255,-0.236,-0.159,-1.789407323661527,-5.776397383756222,-6.764113861235887
1621786217790.899,-0.288,-0.251,-0.154,-1.764957797134879,-5.861197007405608,-6.882647641738497
1621786217795.876,-0.312,-0.262,-0.147,-1.7405178614786936,-5.945963366516936,-7.001134924729877
1621786217800.853,-0.333,-0.267,-0.134,-1.7160779258225083,-6.030729725628262,-7.119622207721258
1621786217800.869,-0.3330191307760228,-0.2670669577160797,-0.13395536152261356,-1.716,-6.031,-7.12
1621786217805.83,-0.339,-0.288,-0.12,-1.6978011687917425,-6.106571417729205,-7.219630889496053
1621786217810.808,-0.342,-0.29,-0.11,-1.6795405434122648,-6.182399438372799,-7.3196000758955675
1621786217815.784,-0.335,-0.297,-0.105,-1.6612879781420766,-6.258193989071038,-7.419525136612021
1621786217816.953,-0.3326508684133059,-0.2972349131586694,-0.10124138946128937,-1.657,-6.276,-7.443
1621786217820.76,-0.325,-0.298,-0.089,-1.603732100564766,-6.313169156494808,-7.4662011295317905
1621786217825.737,-0.316,-0.298,-0.077,-1.534095099289488,-6.3617603084957794,-7.496531912309467
1621786217830.713,-0.309,-0.288,-0.059,-1.4644751776279832,-6.4103395427218075,-7.5268552559664785
1621786217833.034,-0.3071338698596526,-0.28613386985965256,-0.05013588183334969,-1.432,-6.433,-7.541
1621786217835.688,-0.305,-0.284,-0.04,-1.37206693194417,-6.480054888143007,-7.510290494054038
1621786217840.664,-0.295,-0.269,-0.017,-1.2596986315933356,-6.568277933873,-7.452713348419726
1621786217845.638,-0.281,-0.255,0.009,-1.1473799492732712,-6.656462023297845,-7.395161626900355
1621786217849.109,-0.26913970949062715,-0.2403490529001865,0.029232260280694866,-1.069,-6.718,-7.355
1621786217850.613,-0.264,-0.234,0.038,-1.050657841573631,-6.730820794410268,-7.345828920786816
1621786217855.588,-0.25,-0.222,0.063,-0.989992663476874,-6.773224515835042,-7.315496331738437
1621786217860.562,-0.232,-0.206,0.096,-0.9293364167995747,-6.81562199437989,-7.285168208399787
1621786217865.182,-0.2236389120722667,-0.1957808925327704,0.1238702930924444,-0.873,-6.855,-7.257
1621786217865.535,-0.223,-0.195,0.126,-0.8764487672231759,-6.853264633053307,-7.257856700138241
1621786217870.51,-0.22,-0.18,0.152,-0.9250511036504778,-6.82880868032874,-7.269929891989609
1621786217875.482,-0.201,-0.171,0.178,-0.9736224345633251,-6.8043683291050785,-7.281995381834202
1621786217880.456,-0.188,-0.159,0.197,-1.0222152308323333,-6.7799171768423285,-7.294066203837332
1621786217881.253,-0.1847951298541902,-0.15643610388335216,0.19988438313122883,-1.03,-6.776,-7.296
1621786217885.429,-0.168,-0.143,0.215,-1.0936781844980323,-6.735193979729832,-7.306136527328259
1621786217890.401,-0.136,-0.134,0.234,-1.1694926380088435,-6.686610840133108,-7.318204950540183
1621786217895.373,-0.106,-0.12,0.244,-1.2453108143015605,-6.638025314916959,-7.330273966358208
1621786217897.32,-0.09660152221949422,-0.11608396759145592,0.2502656518536705,-1.275,-6.619,-7.335
1621786217900.345,-0.082,-0.11,0.26,-1.3230144980395733,-6.572868423452174,-7.305438132579557
1621786217905.316,-0.066,-0.108,0.278,-1.4019187106774869,-6.497058493662807,-7.256857891857391
1621786217910.287,-0.056,-0.106,0.288,-1.4808267985775507,-6.421244840582353,-7.208275265189508
1621786217913.385,-0.05163844831819298,-0.10101536950650626,0.29796926098698745,-1.53,-6.374,-7.178
1621786217915.259,-0.049,-0.098,0.304,-1.5654689770481836,-6.336314211886305,-7.147197993616051
1621786217920.23,-0.045,-0.08,0.314,-1.6595523331813347,-6.236350645994832,-7.065494026447788
1621786217925.2,-0.052,-0.072,0.328,-1.75361720626235,-6.136406718346254,-6.983806110351117
1621786217929.447,-0.061398163155051325,-0.05832994450174353,0.33227189234320514,-1.834,-6.051,-6.914
1621786217930.171,-0.063,-0.056,0.333,-1.8503637814908853,-6.038603195840238,-6.908680644033265
1621786217935.14,-0.084,-0.049,0.34,-1.962691621181944,-5.953506347589436,-6.872166360056558
1621786217940.11,-0.108,-0.042,0.347,-2.0750470557827683,-5.868388594103964,-6.835643105833701
1621786217945.08,-0.127,-0.03,0.349,-2.187396971401639,-5.783275021665425,-6.799121645660073
1621786217945.505,-0.12836812619784757,-0.029486952675807164,0.349,-2.197,-5.776,-6.796
1621786217950.048,-0.143,-0.024,0.349,-2.2357652130280083,-5.762135069792902,-6.796
1621786217955.017,-0.157,-0.026,0.349,-2.2781634279110787,-5.7469707447617315,-6.796
1621786217959.986,-0.176,-0.014,0.344,-2.320561642794149,-5.73180641973056,-6.796
1621786217961.561,-0.1788531623175586,-0.011146837682441398,0.34463403607056853,-2.334,-5.727,-6.796
1621786217964.954,-0.185,-0.005,0.346,-2.3257571969524156,-5.758069026871664,-6.800227078485941
1621786217969.922,-0.199,0.003,0.34,-2.313688352570829,-5.803559286463798,-6.806416229450857
1621786217974.89,-0.208,0.01,0.339,-2.301620101281993,-5.849047310552488,-6.812605076265645
1621786217977.615,-0.2145836323420988,0.013291816171049398,0.33954863602850827,-2.295,-5.874,-6.816
1621786217979.857,-0.22,0.016,0.34,-2.3032418881299725,-5.895931804006875,-6.832344083240793
1621786217984.824,-0.234,0.016,0.342,-2.3215018482741834,-5.944521867441471,-6.868554512679313
1621786217989.791,-0.243,0.038,0.337,-2.3397618084183947,-5.993111930876067,-6.904764942117833
1621786217993.664,-0.24689874662079134,0.048136741214057505,0.3385594986483166,-2.354,-6.031,-6.933
1621786217994.758,-0.248,0.051,0.339,-2.3566588212025317,-6.035022319255112,-6.945748706791626
1621786217999.723,-0.246,0.056,0.335,-2.368725276898734,-6.053276700949366,-7.003605814873418
1621786218004.69,-0.237,0.056,0.333,-2.38079707278481,-6.071539161392405,-7.0614885284810125
1621786218009.656,-0.227,0.056,0.328,-2.3928664952531644,-6.089798031280428,-7.119359861854917
1621786218009.711,-0.22690042779170969,0.05607744505089246,0.3279446821065054,-2.393,-6.09,-7.12
1621786218014.621,-0.218,0.063,0.323,-2.398814043362495,-6.065825819703309,-7.143868178014454
1621786218019.586,-0.206,0.061,0.323,-2.4046928413845565,-6.041382396348421,-7.168002190947129
1621786218024.551,-0.192,0.072,0.318,-2.41057192848992,-6.016937771015596,-7.192137390642831
1621786218025.757,-0.18811253196930947,0.072,0.31702813299232735,-2.412,-6.011,-7.198
1621786218029.515,-0.176,0.072,0.314,-2.428164130037745,-5.983591257762084,-7.156769755266042
1621786218034.48,-0.152,0.07,0.302,-2.449521322902715,-5.9473768872519175,-7.102293437233654
1621786218039.444,-0.141,0.073,0.293,-2.470874315110191,-5.911169639595763,-7.047827833921832
1621786218041.798,-0.13625678866587956,0.07916617473435655,0.28825678866587956,-2.481,-5.894,-7.022
1621786218044.407,-0.131,0.086,0.283,-2.473027194518462,-5.857227468595356,-6.9915731709173965
1621786218049.372,-0.127,0.094,0.271,-2.457853795203654,-5.787244035020937,-6.933666524552722
1621786218054.339,-0.122,0.106,0.264,-2.4426744271031593,-5.717233071945185,-6.875737099352874
1621786218057.832,-0.1184703705531159,0.11517703656189865,0.25482296343810135,-2.432,-5.668,-6.835
1621786218059.287,-0.117,0.119,0.251,-2.424902487060871,-5.659082611948274,-6.803789141818959
1621786218064.236,-0.119,0.126,0.241,-2.400762607062703,-5.628753019130063,-6.6976355669552206
1621786218069.184,-0.119,0.136,0.225,-2.376627490496038,-5.598429411136048,-6.591502938976167
1621786218073.823,-0.12837533922139438,0.15568821236492822,0.2203123303893028,-2.354,-5.57,-6.492
1621786218074.132,-0.129,0.157,0.22,-2.354,-5.575123627422533,-6.484981597153285
1621786218079.08,-0.133,0.173,0.215,-2.354,-5.65714618427282,-6.372626170222514
1621786218084.026,-0.145,0.187,0.211,-2.354,-5.739132317231479,-6.260320637150842
1621786218088.972,-0.15,0.202,0.209,-2.354,-5.821122497289207,-6.148009560317048
1621786218089.809,-0.15033844939051472,0.20233844939051474,0.2084923259142279,-2.354,-5.835,-6.129
1621786218093.919,-0.152,0.204,0.206,-2.401831169227949,-5.880259600989887,-6.118970883871559
1621786218098.864,-0.155,0.223,0.195,-2.459382573095842,-5.9347168433595066,-6.106903654028291
1621786218103.809,-0.154,0.227,0.19,-2.5169339769637347,-5.989174085729125,-6.094836424185023
1621786218105.791,-0.1503927125506073,0.22980566801619434,0.18679352226720647,-2.54,-6.011,-6.09
1621786218108.754,-0.145,0.234,0.182,-2.5509413526481466,-6.060143363589132,-6.093708933101066
1621786218113.698,-0.129,0.239,0.175,-2.5691988783961373,-6.142147504660615,-6.099897924880047
1621786218118.641,-0.11,0.232,0.175,-2.587452797897375,-6.224135448183124,-6.1060856942025
1621786218121.768,-0.09355516049382716,0.23010251851851854,0.17120503703703704,-2.599,-6.276,-6.11
1621786218123.585,-0.084,0.229,0.169,-2.5878512771909445,-6.291699221914793,-6.098737514713301
1621786218128.528,-0.056,0.237,0.161,-2.5575196202821897,-6.334411146949569,-6.068096351101396
1621786218133.47,-0.017,0.244,0.159,-2.527195453781127,-6.377112524267392,-6.037462754329915
1621786218137.739,0.02186353533856867,0.24313636588136514,0.1572727317627303,-2.501,-6.414,-6.011
1621786218138.413,0.028,0.243,0.157,-2.4811120847861994,-6.41564677004955,-5.993223328439469
1621786218143.354,0.084,0.244,0.15,-2.3353346026793904,-6.427717516975592,-5.862921162904509
1621786218148.295,0.117,0.257,0.147,-2.189557120572582,-6.439788263901633,-5.732618997369548
1621786218153.237,0.143,0.265,0.15,-2.0437436226830608,-6.4518619930262435,-5.602284639383373
1621786218153.703,0.14432015419590788,0.26669734110902443,0.15103726401107048,-2.03,-6.453,-5.59
1621786218158.177,0.157,0.283,0.161,-1.8567667834253636,-6.51607034584028,-5.482640255747434
1621786218163.117,0.176,0.302,0.18,-1.6654974991204856,-6.5857072211939975,-5.364102819034216
1621786218168.057,0.192,0.326,0.195,-1.4742282148156078,-6.655344096547715,-5.245565382321
1621786218169.664,0.19655638502991052,0.33576368220695113,0.20085820932417067,-1.412,-6.678,-5.207
1621786218172.995,0.206,0.356,0.213,-1.4038586903304773,-6.7149490208078335,-5.178401040391677
1621786218177.934,0.218,0.377,0.237,-1.3917875458996327,-6.769733445532436,-5.135997276621787
1621786218182.873,0.232,0.405,0.251,-1.3797164014687882,-6.824517870257038,-5.093593512851897
1621786218185.621,0.24201918702403324,0.42058540203738504,0.2587927010186925,-1.373,-6.855,-5.07
1621786218187.81,0.25,0.433,0.265,-1.4443383826792136,-6.838811674699717,-5.102239461403106
1621786218192.748,0.281,0.461,0.283,-1.605267462321169,-6.802293152780965,-5.174967026241298
1621786218197.685,0.309,0.471,0.302,-1.7661647157830311,-6.765781852956928,-5.247680208094255
1621786218201.577,0.3310767632802453,0.471,0.320922939954496,-1.893,-6.737,-5.305
1621786218202.621,0.337,0.471,0.326,-1.9193155687522958,-6.541204313089262,-5.573392616627892
1621786218207.557,0.333,0.456,0.356,-2.0437069303293742,-5.615695451206073,-6.842060732215011
1621786218212.493,0.26,0.414,0.384,-2.1681044447165423,-4.69014081057916,-8.110791600342843
1621786218217.428,0.166,0.415,0.33,-2.292477347863352,-3.7647692849271457,-9.379271458307823
1621786218217.528,0.16557397328055418,0.4181647699158832,0.3302028698664028,-2.295,-3.746,-9.405
1621786218222.362,0.145,0.571,0.34,-1.9797664681658833,-4.23339953768198,-10.035163954503007
1621786218227.297,0.103,0.686,0.527,-1.6579416897570534,-4.730990156606402,-10.678504064418352
1621786218232.231,-0.03,0.576,0.663,-1.336196515775454,-5.22845769483949,-11.321685042021953
1621786218233.476,-0.06508363852321093,0.5209767395823023,0.6624951994457092,-1.255,-5.354,-11.484
1621786218237.164,-0.169,0.358,0.661,-1.0530407056877698,-6.1072410793592455,-11.724361634353272
1621786218242.098,-0.14,0.278,0.599,-0.782856978774235,-7.114936628993231,-12.045920502925052
1621786218247.03,0.065,0.279,0.648,-0.5127668381879996,-8.122283132714632,-12.367367989831235
1621786218249.418,0.1806970551843603,0.23591615936649346,0.7075428359317001,-0.382,-8.61,-12.523
1621786218251.963,0.304,0.19,0.771,-0.5715243696964127,-8.397164292497626,-12.696877033360904
1621786218256.894,0.522,0.026,0.808,-0.9387551082927426,-7.984764482431149,-13.033788806175902
1621786218261.825,0.74,-0.162,0.747,-1.3059676653493857,-7.5723850902184235,-13.370683898538736
1621786218265.357,0.8911007326007325,-0.23862454212454215,0.6761043956043956,-1.569,-7.277,-13.612
1621786218266.757,0.951,-0.269,0.648,-1.5414084515674318,-7.182187003953054,-13.181079765881163
1621786218271.687,1.152,-0.3,0.59,-1.4442582968161064,-6.84834937026936,-11.663804737535624
1621786218276.617,1.33,-0.3,0.567,-1.347108142064781,-6.514511736585665,-10.146529709190084
1621786218281.291,1.4409223036545509,-0.27250643755570964,0.5594155689808855,-1.255,-6.198,-8.708
1621786218281.547,1.447,-0.271,0.559,-1.224421784241904,-6.172775383530783,-8.653451164002513
1621786218286.476,1.497,-0.216,0.543,-0.6359150178546796,-5.687303713466873,-7.603607074437923
1621786218291.404,1.456,-0.115,0.538,-0.04752485095557013,-5.201928228785115,-6.5539709880611206
1621786218296.333,1.337,0.016,0.539,0.5409819154316542,-4.716456558721206,-5.504126898496529
1621786218297.221,1.3052877384196184,0.037982363140946246,0.5415225662620758,0.647,-4.629,-5.315
1621786218301.261,1.161,0.138,0.553,0.5450100268302032,-4.312881824453814,-5.063830663089306
1621786218306.188,0.941,0.218,0.565,0.4206288539670372,-3.9273620697585283,-4.757518819471062
1621786218311.116,0.672,0.314,0.552,0.296223027980069,-3.5417659026446913,-4.451146262935991
1621786218313.145,0.5603738415027011,0.35642617832185164,0.5351119096000396,0.245,-3.383,-4.325
1621786218316.042,0.401,0.417,0.511,0.04514621425941834,-3.506224966253528,-4.56598944655786
1621786218320.968,0.159,0.524,0.469,-0.2946860657749417,-3.715757255491471,-4.97576899006013
1621786218325.894,-0.054,0.597,0.428,-0.6345183458093017,-3.9252895447294143,-5.3855485335624005
1621786218329.061,-0.15945818668517325,0.6407265652109255,0.39970634015763645,-0.853,-4.06,-5.649
1621786218330.819,-0.218,0.665,0.384,-0.9679136886038269,-4.322202099093155,-5.8624742753678785
1621786218335.744,-0.353,0.695,0.342,-1.2898188304614016,-5.056702966043178,-6.460474981203296
1621786218340.668,-0.457,0.703,0.297,-1.6116760982645655,-5.791094597290206,-7.058386751776097
1621786218344.972,-0.5199201407822337,0.7143605809745699,0.2629182570762901,-1.893,-6.433,-7.581
1621786218345.593,-0.529,0.716,0.258,-1.9331721195752256,-6.48507930759315,-7.669035111411209
1621786218350.516,-0.529,0.723,0.209,-2.2515961727334113,-6.8978856116874345,-8.366844868332208
1621786218355.439,-0.478,0.698,0.168,-2.5700044349640905,-7.31067144435578,-9.064620020256584
1621786218360.362,-0.394,0.661,0.126,-2.888428488122276,-7.723477748450065,-9.762429777177584
1621786218360.881,-0.3838761904761905,0.656465376984127,0.11988353174603175,-2.922,-7.767,-9.836
1621786218365.284,-0.298,0.618,0.068,-3.049631704995548,-7.6936325340047285,-10.050565230740888
1621786218370.206,-0.182,0.56,0.0,-3.1923167889711075,-7.6116118241272375,-10.290437118118456
1621786218375.128,-0.068,0.508,-0.073,-3.334994795664589,-7.52959518253554,-10.530297107679083
1621786218376.784,-0.029293852031955545,0.49218096561306013,-0.09487738798193818,-3.383,-7.502,-10.611
1621786218380.048,0.047,0.461,-0.138,-3.2058228122168817,-7.332829660795725,-10.385371113124396
1621786218384.97,0.182,0.414,-0.188,-2.9386655866590914,-7.07774558911598,-10.045155828202018
1621786218389.89,0.297,0.374,-0.232,-2.6716143758733475,-6.822762741274204,-9.705075549345086
1621786218392.683,0.34640031763362944,0.3478802918258971,-0.2569840686882724,-2.52,-6.678,-9.512
1621786218394.809,0.384,0.328,-0.276,-2.4203416440081726,-6.498347420003994,-9.253690892053397
1621786218399.728,0.445,0.297,-0.304,-2.1897586678341554,-6.0826790481896245,-8.656032198104368
1621786218404.647,0.475,0.264,-0.328,-1.959175691660138,-5.667010676375256,-8.058373504155337
1621786218408.576,0.4718044082605242,0.2344407764098491,-0.3479724483717236,-1.775,-5.335,-7.581
1621786218409.565,0.471,0.227,-0.353,-1.746307024552131,-5.286141028792675,-7.490626463448361
1621786218414.483,0.435,0.195,-0.37,-1.6036283532556925,-5.043184939925637,-7.041235073594936
1621786218419.401,0.356,0.162,-0.384,-1.4609496819592538,-4.800228851058599,-6.591843683741511
1621786218424.318,0.258,0.143,-0.389,-1.3182922594720832,-4.557308945088037,-6.142519220723351
1621786218424.466,0.25502115193644487,0.14215749751737833,-0.3891203574975174,-1.314,-4.55,-6.129
1621786218429.235,0.159,0.115,-0.393,-1.307996650122163,-4.556003349877837,-6.008332667455476
1621786218434.152,0.058,0.099,-0.401,-1.301807059329717,-4.562192940670283,-5.883921892527314
1621786218439.067,-0.03,0.077,-0.4,-1.2956202344914487,-4.568379765508552,-5.759566713278117
1621786218440.354,-0.05094973177031591,0.07464315517583946,-0.40026187164712895,-1.294,-4.57,-5.727
1621786218443.982,-0.11,0.068,-0.401,-1.343347518602792,-4.632598241190579,-5.796452063218744
1621786218448.898,-0.161,0.052,-0.403,-1.4102157308898593,-4.717421806776951,-5.890562880511654
1621786218453.812,-0.199,0.026,-0.415,-1.4770573765451078,-4.802211672098887,-5.984636307730152
1621786218456.234,-0.20688396582555135,0.0210725213590304,-0.4238694615537453,-1.51,-4.844,-6.031
1621786218458.727,-0.215,0.016,-0.433,-1.479222517798656,-4.853264650254486,-6.0479590208048215
1621786218463.64,-0.229,0.0,-0.45,-1.4185747236018638,-4.871520874017806,-6.081377193117341
1621786218468.553,-0.248,-0.009,-0.469,-1.3579239155505667,-4.88977800501284,-6.114797026125198
1621786218472.111,-0.2617599880739416,-0.024932617769827067,-0.48420840787119857,-1.314,-4.903,-6.139
1621786218473.466,-0.267,-0.031,-0.49,-1.2620949377797603,-4.8963411268862185,-6.14232943655689
1621786218478.379,-0.286,-0.047,-0.508,-1.0738993401116734,-4.872197612711695,-6.154401193644152
1621786218483.291,-0.298,-0.068,-0.524,-0.8857317992339757,-4.848057697928043,-6.166471151035979
1621786218487.983,-0.31328346339281277,-0.08614911277896516,-0.5354625975446096,-0.706,-4.825,-6.178
1621786218488.203,-0.314,-0.087,-0.536,-0.6979741692307692,-4.8260812,-6.175685123076923
1621786218493.114,-0.335,-0.106,-0.536,-0.5187870307692307,-4.8502203999999995,-6.124002476923077
1621786218498.024,-0.363,-0.127,-0.536,-0.3396444307692308,-4.8743536,-6.072332676923077
1621786218502.935,-0.396,-0.136,-0.531,-0.16045729230769235,-4.8984928,-6.0206500307692306
1621786218503.852,-0.4021644203511215,-0.13768120555030586,-0.5285715919828916,-0.127,-4.903,-6.011
1621786218507.844,-0.429,-0.145,-0.518,-0.0827094882647172,-4.9696874182377835,-6.011
1621786218512.753,-0.466,-0.154,-0.503,-0.028244971142747224,-5.051693651404387,-6.011
1621786218517.663,-0.487,-0.154,-0.482,0.026233089649865315,-5.133720277029627,-6.011
1621786218519.715,-0.49368954882355864,-0.15232761279411033,-0.4774009351838034,0.049,-5.168,-6.011
1621786218522.571,-0.503,-0.15,-0.471,0.017301031562740578,-5.261656043110085,-6.079981277906081
1621786218527.479,-0.522,-0.157,-0.456,-0.037173610469591986,-5.4226038491147035,-6.198525527328714
1621786218532.387,-0.517,-0.161,-0.443,-0.09164825250192453,-5.583551655119322,-6.317069776751348
1621786218535.572,-0.5131054778844719,-0.1720344793273297,-0.43521095576894375,-0.127,-5.688,-6.394
1621786218537.294,-0.511,-0.178,-0.431,-0.16859812436477872,-5.756099279312575,-6.457863438972558
1621786218542.201,-0.49,-0.182,-0.433,-0.28714068804090054,-5.95016243185808,-6.639855677723367
1621786218547.108,-0.45,-0.199,-0.431,-0.4056832517170224,-6.144225584403586,-6.821847916474176
1621786218551.426,-0.3962989895973321,-0.23157274401473296,-0.43892309989547557,-0.51,-6.315,-6.982
1621786218552.013,-0.389,-0.236,-0.44,-0.5187012907001818,-6.33280987585867,-6.9936264054462
1621786218556.919,-0.309,-0.269,-0.456,-0.5914352493608108,-6.4816823614576595,-7.0908113544650835
1621786218561.824,-0.202,-0.304,-0.468,-0.6641547300003081,-6.63052521331978,-7.18797695838339
1621786218566.729,-0.094,-0.349,-0.482,-0.7368742106398053,-6.7793680651819,-7.285142562301697
1621786218567.277,-0.08170597899138747,-0.3531352616119878,-0.48334116592821225,-0.745,-6.796,-7.296
1621786218571.633,0.016,-0.386,-0.494,-0.6966186426315384,-6.839158369925276,-7.104673723133811
1621786218576.537,0.119,-0.419,-0.499,-0.6421496186734458,-6.88774721516062,-6.889273492026808
1621786218581.44,0.211,-0.456,-0.504,-0.5876941529928357,-6.936323965796164,-6.673926877744395
1621786218583.123,0.23914297804550205,-0.4673258326280679,-0.504,-0.569,-6.953,-6.6
1621786218586.344,0.293,-0.489,-0.504,-0.6088524774601217,-6.877158295445789,-6.378574755336364
1621786218591.246,0.353,-0.532,-0.508,-0.6695056946906064,-6.761731509593897,-6.041578053479232
1621786218596.148,0.403,-0.581,-0.51,-0.7301558911921091,-6.646310472374201,-5.70459813516221
1621786218598.964,0.4282771552368146,-0.6062771552368146,-0.5168937696100404,-0.765,-6.58,-5.511
1621786218601.05,0.447,-0.625,-0.522,-0.752092063883579,-6.428924461984337,-5.452914287476106
1621786218605.951,0.497,-0.661,-0.524,-0.7217650613553679,-6.073974748720478,-5.316442776099155
1621786218610.851,0.548,-0.703,-0.517,-0.6914425911080965,-5.719078081642721,-5.179991659986435
1621786218614.801,0.5673432300488194,-0.7344327488293314,-0.5266716150244097,-0.667,-5.433,-5.07
1621786218615.752,0.572,-0.742,-0.529,-0.6204593740363861,-5.307550493370336,-5.190705365402406
1621786218620.652,0.574,-0.78,-0.546,-0.3806347517730497,-4.6611070921985815,-5.812702127659575
1621786218625.551,0.518,-0.819,-0.586,-0.1408698735738514,-4.0148247301880975,-6.43454394079556
1621786218630.451,0.435,-0.782,-0.593,0.09894279987665744,-3.368413536848597,-7.056509713228492
1621786218630.636,0.4345844091112994,-0.7781841200219309,-0.5897886158600408,0.108,-3.344,-7.08
1621786218635.349,0.424,-0.681,-0.508,-0.9900967771795307,-2.6137224579212885,-7.6232407164565945
1621786218640.247,0.44,-0.696,-0.471,-2.131252827103164,-1.8548088060599515,-8.187783335133217
1621786218645.146,0.264,-0.747,-0.663,-3.272636402906555,-1.0957438405405822,-8.752438513398848
1621786218646.461,0.1753879748728687,-0.7198793498853325,-0.7301303220660086,-3.579,-0.892,-8.904
1621786218650.043,-0.066,-0.646,-0.913,-2.768831242767878,-1.9688294993442876,-8.573277296922008
1621786218654.939,-0.384,-0.471,-1.002,-1.6614754454987273,-3.440662840391884,-8.121238509604257
1621786218659.836,-0.548,-0.264,-0.958,-0.5538987734320759,-4.912789755457841,-7.669109557972691
1621786218662.285,-0.5304930188491075,-0.1179417572554104,-0.9014774608556896,0.0,-5.649,-7.443
1621786218664.732,-0.513,0.028,-0.845,-0.28668970254542087,-5.7551355293827084,-8.033243505240572
1621786218669.627,-0.372,0.353,-0.682,-0.8601835203679978,-5.9674489449392585,-9.213966071345878
1621786218674.523,-0.246,0.504,-0.632,-1.43379175092231,-6.179804717286943,-10.394924193075344
1621786218678.101,-0.18094344139650873,0.4776849875311721,-0.7182547630922693,-1.853,-6.335,-11.258
1621786218679.418,-0.157,0.468,-0.75,-1.9535181102362205,-6.36523038443724,-11.088943029180175
1621786218684.312,-0.068,0.328,-0.902,-2.3270787401574804,-6.477577119036591,-10.46066790180639
1621786218689.206,0.04,0.166,-0.969,-2.7006393700787403,-6.589923853635943,-9.832392774432607
1621786218693.914,0.16986830290332233,0.028435797665369633,-0.9353304399880276,-3.06,-6.698,-9.228
1621786218694.1,0.175,0.023,-0.934,-3.0453355162560816,-6.70100115839061,-9.21668975210441
1621786218698.993,0.278,-0.11,-0.843,-2.659651895899297,-6.779933199474863,-8.919224295312379
1621786218703.885,0.311,-0.223,-0.759,-2.274026009730481,-6.858853424974902,-8.62180336705537
1621786218708.777,0.284,-0.309,-0.705,-1.888400123561665,-6.9377736504749405,-8.324382438798363
1621786218709.721,0.2726186318048001,-0.31980265455815576,-0.6978625318097899,-1.814,-6.953,-8.267
1621786218713.67,0.225,-0.365,-0.668,-1.7430318095444082,-6.85004614624048,-8.34546483029245
1621786218718.561,0.15,-0.401,-0.625,-1.6551321664169074,-6.722529762548471,-8.442649646989757
1621786218723.451,0.098,-0.421,-0.56,-1.56725446090624,-6.595045203849898,-8.53981020871634
1621786218725.524,0.08613277428371768,-0.43710552061495456,-0.5243983228511531,-1.53,-6.541,-8.581
1621786218728.342,0.07,-0.459,-0.476,-1.4092345577894883,-6.68620394380998,-8.596697723655133
1621786218733.232,0.056,-0.485,-0.384,-1.1996866896413172,-6.93815662427174,-8.62393585127262
1621786218738.122,0.028,-0.518,-0.29,-0.9901283592699625,-7.190121884127402,-8.651175338824585
1621786218741.322,0.0005041706208481073,-0.518,-0.23631766645022725,-0.853,-7.355,-8.669
1621786218743.01,-0.014,-0.518,-0.208,-0.9336961105614643,-7.3277450222606975,-8.68161210734603
1621786218747.9,-0.059,-0.494,-0.15,-1.1674627287905022,-7.248790733984665,-8.71814781721494
1621786218752.788,-0.089,-0.447,-0.129,-1.4011476471679445,-7.169864039698243,-8.75467075810042
1621786218757.115,-0.10758963088756805,-0.4266399280755207,-0.1166069127416213,-1.608,-7.1,-8.787
1621786218757.676,-0.11,-0.424,-0.115,-1.6195120291916631,-7.0783971797884835,-8.799897736409179
1621786218762.563,-0.134,-0.396,-0.086,-1.7197889170635166,-6.890223266745005,-8.912244990413756
1621786218767.45,-0.133,-0.377,-0.061,-1.8200658049353702,-6.702049353701527,-9.024592244418331
1621786218772.337,-0.112,-0.36,-0.052,-1.9203426928072236,-6.513875440658049,-9.136939498422908
1621786218772.905,-0.1087443161944736,-0.36116274421625943,-0.05467431169739669,-1.932,-6.492,-9.15
1621786218777.223,-0.084,-0.37,-0.075,-1.9481381091572711,-6.339098253916702,-8.793046907623069
1621786218782.109,-0.072,-0.375,-0.086,-1.9663995576795188,-6.1660787670703225,-8.389128427597086
1621786218786.994,-0.072,-0.389,-0.091,-1.984657356284508,-5.99309386164339,-7.985290678791815
1621786218788.691,-0.07234739367284722,-0.3907369683642361,-0.0944739367284722,-1.991,-5.933,-7.845
1621786218791.879,-0.073,-0.394,-0.101,-1.8502047708181861,-5.738876305245734,-7.660774391658803
1621786218796.763,-0.08,-0.401,-0.108,-1.6345049270609349,-5.4414766641399686,-7.3785387280912085
1621786218801.648,-0.099,-0.396,-0.103,-1.4187619541172285,-5.144017557972248,-7.096246631499157
1621786218804.473,-0.11519859007049647,-0.38500809959502025,-0.09605774711264436,-1.294,-4.972,-6.933
1621786218806.531,-0.127,-0.377,-0.091,-1.2223835476533123,-4.895296040109559,-6.815335081936771
1621786218811.414,-0.176,-0.361,-0.079,-1.052466505733253,-4.713308388654195,-6.536163548581774
1621786218816.298,-0.25,-0.34,-0.065,-0.882515482103895,-4.531284341488325,-6.256936183711681
1621786218820.25,-0.3115229045809162,-0.3108575715143029,-0.048000250050010004,-0.745,-4.384,-6.031
1621786218821.18,-0.326,-0.304,-0.044,-0.7190014084507043,-4.40534124748491,-6.00847967806841
1621786218826.061,-0.435,-0.264,-0.012,-0.5825378114842903,-4.517358984677295,-5.890273115616777
1621786218830.943,-0.536,-0.225,0.028,-0.4460469122426869,-4.6293991332611055,-5.772042903575298
1621786218835.824,-0.627,-0.18,0.08,-0.3095901408450704,-4.741411267605634,-5.653842253521127
1621786218836.024,-0.6290486267447096,-0.17827915353444393,0.08188473660513282,-0.304,-4.746,-5.649
1621786218840.704,-0.677,-0.138,0.126,-0.44081410038084035,-4.9498856550143975,-5.858524414032263
1621786218845.585,-0.7,-0.119,0.159,-0.5834947208719077,-5.16251382481345,-6.077033130012076
1621786218850.464,-0.703,-0.094,0.175,-0.7261253831625228,-5.375067544973217,-6.295465337337833
1621786218851.794,-0.7002743194555644,-0.08745836669335469,0.17827081665332264,-0.765,-5.433,-6.355
1621786218855.343,-0.693,-0.07,0.187,-0.8840819319272817,-5.5500559633311655,-6.500644631298585
1621786218860.223,-0.654,-0.059,0.182,-1.0478165164607143,-5.711004893307319,-6.700902242249683
1621786218865.101,-0.586,-0.035,0.182,-1.2114937594846542,-5.871897457338413,-6.901089720957602
1621786218867.56,-0.5446717373899119,-0.029455964771817455,0.18250400320256205,-1.294,-5.953,-7.002
1621786218869.98,-0.504,-0.024,0.183,-1.3181040876070693,-5.990614659004662,-7.002
1621786218874.857,-0.419,-0.014,0.178,-1.3666818977401218,-6.066420795836496,-7.002
1621786218879.734,-0.33,0.005,0.176,-1.4152597078731743,-6.142226932668329,-7.002
1621786218883.322,-0.2696608421368848,0.013830120662894907,0.18409427727432032,-1.451,-6.198,-7.002
1621786218884.61,-0.248,0.017,0.187,-1.4590111556994778,-6.176337181016718,-6.952298136068546
1621786218889.487,-0.173,0.03,0.195,-1.48934300677089,-6.094317379650145,-6.764116855952031
1621786218894.363,-0.105,0.044,0.209,-1.519668784183697,-6.012314001952247,-6.5759732573093075
1621786218899.079,-0.04598873197115384,0.06431535456730769,0.22254356971153846,-1.549,-5.933,-6.394
1621786218899.238,-0.044,0.065,0.223,-1.5524709237445753,-5.927955052696838,-6.386281230626163
1621786218904.113,0.007,0.094,0.239,-1.658933911965282,-5.773212337259764,-6.1495248760074395
1621786218908.988,0.051,0.108,0.253,-1.7653969001859888,-5.61846962182269,-5.912768521388717
1621786218913.862,0.086,0.124,0.264,-1.8718385616862987,-5.463757904525728,-5.676059593924364
1621786218914.831,0.08798807854137447,0.124,0.26638569424964936,-1.893,-5.433,-5.629
1621786218918.736,0.096,0.124,0.276,-2.038826188076595,-5.3576068687495155,-5.448949298395224
1621786218923.609,0.098,0.14,0.291,-2.2207921079153423,-5.263529250329483,-5.224277091247383
1621786218928.482,0.082,0.143,0.297,-2.402767144739902,-5.1694469183657645,-4.9995936274129775
1621786218930.577,0.07297008418520745,0.1421400080176388,0.2961400080176388,-2.481,-5.129,-4.903
1621786218933.354,0.061,0.141,0.295,-2.536396581673801,-5.193041271170668,-4.833842484025063
1621786218938.226,0.045,0.127,0.295,-2.6335828835535704,-5.305393588311929,-4.712514361933122
1621786218943.098,0.035,0.126,0.29,-2.730764315404181,-5.41774027545133,-4.591192319622805
1621786218946.318,0.035,0.12137239374498797,0.29066108660785883,-2.795,-5.492,-4.511
1621786218947.969,0.035,0.119,0.291,-2.7867124639300007,-5.554733500884296,-4.5356527971702505
1621786218952.84,0.054,0.11,0.284,-2.762259207545999,-5.739835365664463,-4.608393496540383
1621786218957.71,0.103,0.12,0.274,-2.7378120791833442,-5.924890843650129,-4.681115966986255
1621786218962.055,0.16723621415680767,0.12535301784640066,0.2570487768197313,-2.716,-6.09,-4.746
1621786218962.58,0.175,0.126,0.255,-2.6934316933105698,-6.099481359615086,-4.7535450256091885
1621786218967.449,0.264,0.127,0.227,-2.484189601117492,-6.187387800713953,-4.823498742821667
1621786218972.318,0.365,0.155,0.197,-2.274937016917585,-6.275298649697346,-4.8934559677169025
1621786218977.187,0.482,0.183,0.171,-2.0656949247245073,-6.363205090796213,-4.963409684929381
1621786218977.785,0.49440528612267415,0.18815863383319123,0.16817503385325244,-2.04,-6.374,-4.972
1621786218982.055,0.583,0.225,0.148,-1.9680503896426464,-6.1662964078363185,-4.910639200223541
1621786218986.923,0.677,0.271,0.126,-1.8860220745754293,-5.929497686981899,-4.840682976807725
1621786218991.79,0.745,0.3,0.11,-1.804014328293334,-5.692758343941135,-4.770744295072806
1621786218993.512,0.7587981941309255,0.3049531978931527,0.11495319789315275,-1.775,-5.609,-4.746
1621786218996.657,0.784,0.314,0.124,-1.4963653923791185,-4.842104748299742,-5.795530356200119
1621786219001.523,0.752,0.318,0.199,-1.0652625850128876,-3.655566224651408,-7.419361246545138
1621786219006.389,0.682,0.311,0.248,-0.634159777646657,-2.4690277010030743,-9.043192136890159
1621786219009.235,0.6708843277964571,0.35078240578110104,0.21114277111456817,-0.382,-1.775,-9.993
1621786219011.254,0.663,0.379,0.185,-0.2448447095000699,-1.5999600552889468,-10.281437062231127
1621786219016.12,0.572,0.506,0.183,0.08576107720262777,-1.1780352544689308,-10.97669979344298
1621786219020.984,0.265,0.403,0.297,0.416200997064716,-0.7563221357685317,-11.671613707310255
1621786219024.955,-0.005174929747089496,0.1605771778402248,0.36066659975913284,0.686,-0.412,-12.239
1621786219025.849,-0.066,0.106,0.375,0.5859730698798148,-0.8795061477617223,-12.03894613975963
1621786219030.712,-0.213,-0.061,0.433,0.04191616268870335,-3.4223208531462075,-10.950832325377407
1621786219035.583,-0.223,-0.108,0.572,-0.5030694489327977,-5.969476139913516,-9.860861102134404
1621786219040.584,-0.236,-0.211,0.744,-1.062586553406275,-8.584548758906177,-8.741826893187449
1621786219040.82,-0.23604720757664518,-0.2218105350517477,0.7445664909197423,-1.089,-8.708,-8.689
1621786219045.585,-0.237,-0.44,0.756,-1.29128537326061,-8.184593968604107,-9.85995512713977
1621786219050.586,-0.164,-0.693,0.661,-1.503593288712285,-7.635254974541828,-11.088927040053182
1621786219055.587,0.044,-0.885,0.574,-1.7159012041639596,-7.08591598047955,-12.317898952966594
1621786219056.979,0.1294576254637766,-0.9033719976567076,0.55646309314587,-1.775,-6.933,-12.66
1621786219060.588,0.351,-0.951,0.511,-1.488029414875134,-7.2067945037845025,-11.727178105784775
1621786219065.589,0.621,-0.92,0.478,-1.0903435512380837,-7.586220860842109,-10.434466936592589
1621786219070.59,0.796,-0.808,0.436,-0.6926771011164659,-7.965628695744135,-9.141818872656405
1621786219073.139,0.8413602811950791,-0.7172794376098419,0.40338137082601055,-0.49,-8.159,-8.483
1621786219075.591,0.885,-0.63,0.372,-0.4930346244486072,-7.980412351199469,-8.12294180917276
1621786219080.593,0.878,-0.452,0.312,-0.4992247265695812,-7.616124841380144,-7.388486192519186
1621786219085.593,0.759,-0.279,0.255,-0.5054124116260801,-7.251979575805185,-6.654317360565593
1621786219089.3,0.6307617652802187,-0.14853798086311265,0.22534954110525288,-0.51,-6.982,-6.11
1621786219090.594,0.586,-0.103,0.215,-0.5116014261757641,-6.8823112205586865,-6.118567630040338
1621786219095.595,0.401,0.063,0.213,-0.5177907872671511,-6.497023492619843,-6.1516807118792585
1621786219100.596,0.22,0.218,0.197,-0.5239801483585382,-6.111735764680999,-6.184793793718179
1621786219105.46,0.038121411833626245,0.3230421792618629,0.15615026362038664,-0.53,-5.737,-6.217
1621786219105.597,0.033,0.326,0.155,-0.5334068825910931,-5.747890159526255,-6.229051211553568
1621786219110.597,-0.15,0.401,0.091,-0.6577793522267207,-6.145448924406309,-6.668995619070638
1621786219115.599,-0.325,0.442,0.024,-0.7822064777327935,-6.54318239772796,-7.109133361532419
1621786219120.6,-0.459,0.482,-0.005,-0.9066032388663967,-6.940818810804278,-7.549163695691583
1621786219121.621,-0.47941992187500004,0.48792177734375,-0.0045916015625,-0.932,-7.022,-7.639
1621786219125.6,-0.559,0.511,-0.003,-0.9366783097399949,-7.13526434107356,-8.293470909942439
1621786219130.602,-0.597,0.536,0.016,-0.942559350969165,-7.277647444516626,-9.116197625054767
1621786219135.603,-0.576,0.539,0.037,-0.9484392440059827,-7.420002749618528,-9.938763714100105
1621786219137.781,-0.5524824253075571,0.5337738722905683,0.033080404217926185,-0.951,-7.482,-10.297
1621786219140.604,-0.522,0.527,0.028,-1.1583305287009062,-7.324449758308157,-10.360404365558914
1621786219145.605,-0.443,0.508,-0.017,-1.52561916918429,-7.04534752265861,-10.472725996978852
1621786219150.606,-0.323,0.476,-0.082,-1.8929078096676735,-6.766245287009063,-10.585047628398792
1621786219153.943,-0.23691813122437025,0.4586501659832064,-0.1260418863503222,-2.138,-6.58,-10.66
1621786219155.607,-0.194,0.45,-0.148,-2.055230471759392,-6.49218606021239,-10.520712472998081
1621786219160.608,-0.077,0.435,-0.194,-1.8064482242934183,-6.228241710599859,-10.102052795359446
1621786219165.609,0.028,0.408,-0.234,-1.5576659768274446,-5.964297360987326,-9.683393117720811
1621786219170.105,0.10440001952267071,0.4017082336863683,-0.2528752989408951,-1.334,-5.727,-9.307
1621786219170.611,0.113,0.401,-0.255,-1.3155559365558913,-5.7070528549848945,-9.221011208459215
1621786219175.611,0.157,0.405,-0.258,-1.1333396223564955,-5.509986993957704,-8.3714933836858
1621786219180.612,0.148,0.421,-0.244,-0.9510877190332327,-5.3128826435045315,-7.521809637462235
1621786219185.614,0.099,0.428,-0.229,-0.7688002265861028,-5.115739803625377,-6.671959969788519
1621786219186.267,0.089726318359375,0.429044921875,-0.22691015625,-0.745,-5.09,-6.561
1621786219190.614,0.028,0.436,-0.213,-0.7740496261046906,-4.960621572626331,-6.175823476093361
1621786219195.615,-0.065,0.468,-0.204,-0.8074701563562202,-4.8117764332653525,-5.732692000906413
1621786219200.617,-0.155,0.476,-0.194,-0.8408972127804215,-4.662902228264975,-5.289473993504041
1621786219202.428,-0.18940966796875,0.48070869140625,-0.19436220703125,-0.853,-4.609,-5.129
1621786219205.617,-0.25,0.489,-0.195,-0.8879288271819432,-4.568348370624405,-5.219972821078394
1621786219210.618,-0.318,0.49,-0.202,-0.9427046728407186,-4.5045979513831185,-5.362637594234865
1621786219215.62,-0.37,0.483,-0.215,-0.9974938888972822,-4.440831971113897,-5.505337190856763
1621786219218.588,-0.3878031634446397,0.4628230814294083,-0.21974751025190392,-1.03,-4.403,-5.59
1621786219220.621,-0.4,0.449,-0.223,-1.034907113071856,-4.458488124735601,-5.645488124735602
1621786219225.621,-0.403,0.419,-0.237,-1.046974557321569,-4.594943071251587,-5.781943071251586
1621786219230.623,-0.407,0.396,-0.239,-1.0590467154166918,-4.731451320481054,-5.918451320481053
1621786219234.747,-0.413597148994337,0.364663542276899,-0.239,-1.069,-4.844,-6.031
1621786219235.624,-0.415,0.358,-0.239,-1.05939354517021,-4.87064841424535,-6.02991452487799
1621786219240.625,-0.412,0.33,-0.234,-1.0046110783736004,-5.022615596150069,-6.023724415635435
1621786219245.626,-0.412,0.307,-0.223,-0.949828611576991,-5.174582778054788,-6.01753430639288
1621786219250.627,-0.403,0.265,-0.22,-0.8950461447803817,-5.3265499599595065,-6.011344197150326
1621786219250.905,-0.40183230814294085,0.26288703378246436,-0.21988879125170865,-0.892,-5.335,-6.011
1621786219255.628,-0.382,0.227,-0.218,-0.854878458214345,-5.303432074701963,-6.065659278062342
1621786219260.629,-0.349,0.192,-0.216,-0.8155712645241225,-5.270005484792168,-6.123536799480229
1621786219265.63,-0.321,0.159,-0.227,-0.7762640708338999,-5.2365788948823715,-6.181414320898116
1621786219267.063,-0.3115438125457652,0.1475379546009275,-0.22986551134976813,-0.765,-5.227,-6.198
1621786219270.631,-0.288,0.119,-0.237,-0.6459813860727938,-5.213971988456948,-6.206611736443713
1621786219275.633,-0.269,0.079,-0.243,-0.47913544955958115,-5.195708704126188,-6.218684076933537
1621786219280.634,-0.267,0.049,-0.244,-0.3123220874189795,-5.177448985450315,-6.230754060465046
1621786219283.222,-0.267,0.032440734231595394,-0.24141261472368677,-0.226,-5.168,-6.237
1621786219285.635,-0.267,0.017,-0.239,-0.15851407854984895,-5.222197764350454,-6.237
1621786219290.636,-0.269,0.002,-0.227,-0.018653534743202416,-5.334519395770393,-6.237
1621786219295.638,-0.272,-0.005,-0.222,0.12123432024169181,-5.446862960725076,-6.237
1621786219299.384,-0.2734981448935755,-0.025974028510056632,-0.21525834797891036,0.226,-5.531,-6.237
1621786219300.639,-0.274,-0.033,-0.213,0.226,-5.5858237675816955,-6.2606068347660555
1621786219305.639,-0.258,-0.037,-0.211,0.226,-5.804265549697089,-6.3546667522775
1621786219310.64,-0.225,-0.052,-0.204,0.226,-6.022749996223052,-6.448745040866584
1621786219315.544,-0.17892215335057834,-0.06768607545512226,-0.20203924056810973,0.226,-6.237,-6.541
1621786219315.642,-0.178,-0.068,-0.202,0.22397126150219845,-6.2401585150265175,-6.542785775803455
1621786219320.643,-0.108,-0.093,-0.185,0.12059643715153438,-6.401101355332941,-6.633780381669009
1621786219325.645,-0.03,-0.138,-0.185,0.017201426348155857,-6.562075623649577,-6.72479275644803
1621786219330.645,0.059,-0.192,-0.183,-0.0861532115497938,-6.722987035945787,-6.815769593400118
1621786219331.702,0.07675219683655535,-0.2023554481546573,-0.1855360281195079,-0.108,-6.757,-6.835
1621786219335.646,0.143,-0.241,-0.195,-0.17480354959931182,-6.733106759632363,-6.732356589849233
1621786219340.648,0.239,-0.288,-0.204,-0.25952475815336323,-6.702805013507191,-6.602182762107423
1621786219345.649,0.326,-0.342,-0.215,-0.34422942605756024,-6.672509183380872,-6.472034349013748
1621786219347.879,0.3625716796875,-0.36474580078125,-0.22258193359375,-0.382,-6.659,-6.414
1621786219350.649,0.408,-0.393,-0.232,-0.44103118666626334,-6.62691037236456,-6.176674037327203
1621786219355.651,0.48,-0.442,-0.255,-0.5476265464775099,-6.5689646389787955,-5.748123506458151
1621786219360.652,0.548,-0.513,-0.267,-0.6542062978311504,-6.511027390423183,-5.319635727033486
1621786219364.021,0.5857169074580242,-0.5507169074580242,-0.2750821944552909,-0.726,-6.472,-5.031
1621786219365.654,0.604,-0.569,-0.279,-0.6090852330236423,-6.307490716821513,-5.10830319510537
1621786219370.655,0.667,-0.621,-0.274,-0.2510523302364227,-5.803707168215122,-5.345031951053705
1621786219375.656,0.735,-0.668,-0.253,0.10698057255079685,-5.299923619608732,-5.581760707002039
1621786219380.182,0.74314658203125,-0.72502607421875,-0.253,0.431,-4.844,-5.796
1621786219380.656,0.744,-0.731,-0.253,0.3498681554454249,-4.686900580200653,-5.968650912607277
1621786219385.658,0.719,-0.735,-0.204,-0.5060686268584553,-3.0295097908860154,-7.790109150247794
1621786219390.659,0.737,-0.579,-0.028,-1.3618382992868368,-1.3724425843104076,-9.611211773238246
1621786219395.661,0.654,-0.609,0.007,-2.217775081590717,0.28494820500423046,-11.432670010878763
1621786219396.34,0.6045663656333903,-0.6274697095435684,-0.035371686599951185,-2.334,0.51,-11.68
1621786219400.662,0.29,-0.745,-0.305,-1.7438376055465765,-0.638503617660831,-10.29805199160159
1621786219405.662,-0.113,-0.637,-0.571,-1.0610987568539192,-1.967168481790855,-8.699323233086114
1621786219410.663,-0.332,-0.401,-0.513,-0.3782265607298765,-3.2960928507771543,-7.100282222859991
1621786219412.503,-0.33714955095665755,-0.30536548223350257,-0.466654041390082,-0.127,-3.785,-6.512
1621786219415.665,-0.346,-0.141,-0.387,-0.03113751434958613,-4.339437314965863,-7.287116669687632
1621786219420.666,-0.253,0.208,-0.302,0.1204720560691197,-5.216297565101806,-8.512988339073168
1621786219425.668,-0.195,0.545,-0.185,0.27211123194973114,-6.093329043562322,-9.739099389764968
1621786219428.666,-0.2045918765866042,0.6283294278461239,-0.1682142159734427,0.363,-6.619,-10.474
1621786219430.669,-0.211,0.684,-0.157,-0.02358240546297835,-6.71022303636446,-10.40223622546872
1621786219435.669,-0.243,0.684,-0.288,-0.9886247828254595,-6.937947047181641,-10.223089211524226
1621786219440.67,-0.183,0.599,-0.412,-1.9538556450272693,-7.165715535344685,-10.04390720792857
1621786219444.826,-0.06585211576943727,0.4860062960613012,-0.4252933769339646,-2.756,-7.355,-9.895
1621786219445.672,-0.042,0.463,-0.428,-2.7256837573267263,-7.398667955767721,-9.899084053417125
1621786219450.673,0.106,0.339,-0.386,-2.5465152879328055,-7.656744818418032,-9.923220738413198
1621786219455.675,0.23,0.244,-0.323,-2.367311831530606,-7.91487207686265,-9.947362136684996
1621786219460.676,0.328,0.169,-0.281,-2.1881433621366853,-8.172948939512962,-9.971498821681068
1621786219460.987,0.3291195079086116,0.16358904510837727,-0.28044024604569423,-2.177,-8.189,-9.973
1621786219465.677,0.346,0.082,-0.272,-2.5839140465650354,-7.918497937661474,-9.796535135298473
1621786219470.678,0.312,0.0,-0.284,-3.017814480184931,-7.630056279934126,-9.608367186909817
1621786219475.679,0.255,-0.068,-0.29,-3.451714913804826,-7.3416146222067775,-9.42019923852116
1621786219477.146,0.2391621436938696,-0.08442444357672785,-0.2823743654822335,-3.579,-7.257,-9.365
1621786219480.681,0.201,-0.124,-0.264,-3.4567451362455444,-7.40703011902604,-9.339411772702556
1621786219485.682,0.176,-0.168,-0.208,-3.283786463053592,-7.619283517612229,-9.303211120174007
1621786219490.683,0.176,-0.223,-0.124,-3.1108193462630656,-7.831547278110084,-9.267008700380641
1621786219493.309,0.1822998828582585,-0.2560743850058571,-0.08830066380320187,-3.02,-7.943,-9.248
1621786219495.685,0.188,-0.286,-0.056,-3.172900974393836,-7.794509630636755,-9.271082166326762
1621786219500.686,0.197,-0.353,-0.023,-3.494728302741899,-7.481965782914117,-9.319665714933151
1621786219505.687,0.209,-0.421,-0.017,-3.8165556310899613,-7.16942193519148,-9.368249263539541
1621786219509.47,0.1999226713532513,-0.46260442296426474,-0.02532088459285296,-4.06,-6.933,-9.405
1621786219510.688,0.197,-0.476,-0.028,-4.006043683161138,-6.869473219140837,-9.35692160594526
1621786219515.689,0.15,-0.52,-0.056,-3.784508065977886,-6.60864287656335,-9.159519757114372
1621786219520.69,0.082,-0.534,-0.075,-3.5629724487946346,-6.347812533985862,-8.962117908283487
1621786219525.633,0.00985869777430691,-0.515223496680984,-0.07697647403358063,-3.344,-6.09,-8.767
1621786219525.692,0.009,-0.515,-0.077,-3.339536969623733,-6.089501276377203,-8.764073183994682
1621786219530.693,-0.077,-0.48,-0.056,-2.9601793876410434,-6.047109768439497,-8.51529382354274
1621786219535.694,-0.164,-0.431,-0.035,-2.580840324456595,-6.004720329894416,-8.266526607555548
1621786219540.696,-0.239,-0.405,-0.019,-2.2014271860791803,-5.962322613778832,-8.017710813709348
1621786219541.796,-0.24669747119703184,-0.4045601445030268,-0.015261228275727396,-2.118,-5.953,-7.963
1621786219545.697,-0.274,-0.403,-0.002,-1.952427013473506,-5.8084253368376535,-7.953586958491934
1621786219550.698,-0.3,-0.396,0.0,-1.740173614887318,-5.62309037218295,-7.9415200743157515
1621786219555.7,-0.3,-0.379,0.016,-1.527878768654462,-5.4377192163615495,-7.929450833786478
1621786219557.959,-0.2945783203125,-0.37267470703125,0.017355419921875,-1.432,-5.354,-7.924
1621786219560.7,-0.288,-0.365,0.019,-1.2988701661631419,-5.28921580060423,-7.800876102719034
1621786219565.702,-0.29,-0.333,0.037,-1.05592333836858,-5.1709919939577045,-7.576188972809668
1621786219570.703,-0.3,-0.304,0.049,-0.8130239425981873,-5.052791268882175,-7.3515457099697885
1621786219574.121,-0.31708689284842567,-0.2814453014400781,0.06061908713692946,-0.647,-4.972,-7.198
1621786219575.704,-0.325,-0.271,0.066,-0.5980294095433742,-4.9969750011328795,-7.10583734876063
1621786219580.706,-0.372,-0.232,0.089,-0.4432932193405133,-5.075890458136339,-6.8146238387988465
1621786219585.707,-0.429,-0.188,0.113,-0.28858723924897667,-5.154790507983022,-6.523467184266574
1621786219590.284,-0.4802513181019332,-0.14407029876977154,0.14503207381370825,-0.147,-5.227,-6.257
1621786219590.708,-0.485,-0.14,0.148,-0.14907298024049792,-5.237548582995951,-6.259571545108465
1621786219595.71,-0.527,-0.094,0.178,-0.1735238836183455,-5.36196963562753,-6.289903045501239
1621786219600.711,-0.543,-0.058,0.209,-0.1979700132938546,-5.486366396761134,-6.320228624086048
1621786219605.712,-0.546,-0.016,0.227,-0.2224161429693637,-5.610763157894737,-6.350554202670857
1621786219606.445,-0.5439480696959345,-0.01057704133925521,0.228465664502904,-0.226,-5.629,-6.355
1621786219610.714,-0.532,0.021,0.237,-0.332191887604804,-5.693718936475564,-6.461191887604804
1621786219615.715,-0.482,0.049,0.26,-0.4565905279854974,-5.7695340282498675,-6.585590527985497
1621786219620.716,-0.415,0.07,0.271,-0.5809891683661909,-5.845349120024171,-6.7099891683661905
1621786219622.606,-0.3889296661460367,0.07869011128465443,0.2728891546270988,-0.628,-5.874,-6.757
1621786219625.718,-0.346,0.093,0.276,-0.7562479606018491,-5.841841727596833,-6.698460390355913
1621786219630.719,-0.279,0.101,0.276,-0.9623381171067737,-5.790164466130884,-6.6043892078071185
1621786219635.72,-0.218,0.113,0.284,-1.1684282736116987,-5.738487204664934,-6.510318025258324
1621786219638.767,-0.18814989262007029,0.1154367434595861,0.2894826727840687,-1.294,-5.707,-6.453
1621786219640.722,-0.169,0.117,0.293,-1.35218214366644,-5.634665443009291,-6.39953532744165
1621786219645.723,-0.11,0.117,0.304,-1.501027283027419,-5.449614729209155,-6.262758712893723
1621786219650.725,-0.044,0.129,0.307,-1.6499087544376463,-5.264518845834277,-6.1259487121383795
1621786219654.928,0.0047438976762351065,0.12647876391329818,0.3044787639132982,-1.775,-5.109,-6.011
1621786219655.726,0.014,0.126,0.304,-1.7856683185519815,-5.079464562527384,-5.96837611615574
1621786219660.727,0.073,0.119,0.305,-1.8525174581111095,-4.89439148171091,-5.701289044676447
1621786219665.729,0.119,0.133,0.302,-1.9193796515932133,-4.709282260866938,-5.434149817940079
1621786219670.729,0.145,0.138,0.302,-1.9862157372293654,-4.524245320077961,-5.167114901717859
1621786219671.087,0.1457155408043733,0.1385008785630613,0.3025008785630613,-1.991,-4.511,-5.148
1621786219675.731,0.155,0.145,0.309,-2.038698670694864,-4.423648217522659,-4.866405438066465
1621786219680.732,0.161,0.155,0.314,-2.0900633836858007,-4.329582719033232,-4.563167975830815
1621786219685.733,0.147,0.166,0.318,-2.141428096676737,-4.235517220543807,-4.259930513595166
1621786219687.249,0.1442721948362536,0.166606178925277,0.3195154473131924,-2.157,-4.207,-4.168
1621786219690.735,0.138,0.168,0.323,-2.212016318389919,-4.236557786742819,-4.040923092032697
1621786219695.737,0.131,0.171,0.328,-2.2909556230451926,-4.2789683151262405,-3.8585887765740448
1621786219700.738,0.124,0.175,0.335,-2.3698795158877655,-4.321370563437741,-3.6762900593808077
