time,gyro_x,gyro_y,gyro_z,acc_x,acc_y,acc_z
1621785620050.459,,,,-0.49,-5.148,-9.13
1621785620069.096,,,,0.167,-5.335,-8.081
1621785620087.111,-0.106,1.398,1.859,2.1348474665841746,-5.959879548354666,-8.09907109804983
1621785620088.037,-0.0953613265137766,1.4072306137601056,1.864162885662432,2.236,-5.992,-8.1
1621785620093.03,-0.038,1.457,1.892,2.5440196546167417,-5.976689840250726,-8.133215261828932
1621785620098.978,0.033,1.522,1.922,2.9109593077108524,-5.9584510537869075,-8.172784154496199
1621785620104.955,0.096,1.557,1.955,3.2796912613721436,-5.940123180774258,-8.212546319676187
1621785620107.278,0.12152804878048781,1.5716979674796747,1.9696979674796748,3.423,-5.933,-8.228
1621785620110.961,0.162,1.595,1.993,3.426579287177182,-5.766657338028873,-8.231579287177182
1621785620116.998,0.222,1.623,2.037,3.4324466132174436,-5.49398108047355,-8.237446613217443
1621785620123.062,0.265,1.677,2.072,3.4383400394625108,-5.2200918502422695,-8.24334003946251
1621785620126.828,0.28971856095508997,1.694302992668563,2.101044309122231,3.442,-5.05,-8.247
1621785620129.156,0.305,1.705,2.119,3.3613819627909565,-4.974685781028393,-8.193696626713757
1621785620134.003,0.328,1.738,2.159,3.1935432575989324,-4.817889095914792,-8.082724324925609
1621785620139.613,0.344,1.77,2.211,2.9992771211657723,-4.636403626352235,-7.954278622876053
1621785620144.386,0.3635406544696015,1.7878414671244187,2.2721707444265786,2.834,-4.482,-7.845
1621785620145.231,0.367,1.791,2.283,2.76245910176908,-4.47558919223645,-7.80857917908244
1621785620150.854,0.37,1.806,2.332,2.286374164451961,-4.432927035515825,-7.56620866553918
1621785620156.484,0.354,1.831,2.346,1.809710450726155,-4.39021301441572,-7.323543502187861
1621785620162.121,0.326,1.84,2.339,1.332426619419613,-4.347443424337602,-7.0805626426136214
1621785620162.575,0.3239087959157184,1.839839138147363,2.3378739670315407,1.294,-4.344,-7.061
1621785620167.764,0.3,1.838,2.325,1.0432941569817982,-4.27720195792599,-7.12779804207401
1621785620173.413,0.276,1.826,2.302,0.7703534163401228,-4.2044796517459515,-7.200520348254049
1621785620179.068,0.257,1.794,2.285,0.4971295788586788,-4.131681917269603,-7.273318082730397
1621785620180.83,0.2504648354965288,1.7765728946574102,2.279398430425596,0.412,-4.109,-7.296
1621785620184.73,0.236,1.738,2.267,0.2972522056667644,-4.167544793027161,-7.2919550870272145
1621785620190.398,0.216,1.682,2.246,0.13048215475651043,-4.252631553695658,-7.286076365381027
1621785620196.073,0.192,1.641,2.222,-0.03649621504917766,-4.337824599514887,-7.2801903003971535
1621785620199.149,0.17900520005157078,1.620966350079505,2.2008834500838024,-0.127,-4.384,-7.277
1621785620201.754,0.168,1.604,2.183,-0.21738290979579916,-4.429758118909159,-7.311708170689609
1621785620207.442,0.138,1.562,2.147,-0.4147344592262142,-4.529671207413898,-7.387493640298468
1621785620213.135,0.136,1.525,2.1,-0.6122638944209884,-4.629674354072067,-7.463347420271383
1621785620217.537,0.13908921917162806,1.4917908939049984,2.0660185891120917,-0.765,-4.707,-7.522
1621785620218.835,0.14,1.482,2.056,-0.7684457834512864,-4.735269488722799,-7.553012051061579
1621785620224.542,0.154,1.431,2.012,-0.7835978966862888,-4.859578662609961,-7.689381070176599
1621785620230.255,0.173,1.395,1.97,-0.7987655665057213,-4.984015463985713,-7.825890098551492
1621785620235.974,0.202,1.342,1.934,-0.8139500892916197,-5.108590528474106,-7.962550803624579
1621785620235.993,0.20212147699654628,1.341875239841385,1.9338785230034536,-0.814,-5.109,-7.963
1621785620241.7,0.239,1.304,1.897,-0.6630201144122532,-5.2026691535075,-8.062831597817205
1621785620247.432,0.272,1.264,1.871,-0.5113814356892415,-5.296747027654022,-8.163098805789154
1621785620253.171,0.309,1.204,1.843,-0.3595554530356154,-5.390941106688108,-8.263489863707063
1621785620254.515,0.31601810300866906,1.193004971953085,1.8369176440591535,-0.324,-5.413,-8.287
1621785620258.916,0.339,1.157,1.817,-0.1661072183630323,-5.373704345199795,-8.291497695428939
1621785620264.666,0.365,1.119,1.787,0.04017728782845065,-5.322365172744344,-8.297373865770226
1621785620270.424,0.384,1.063,1.766,0.24675083056478414,-5.270954066156291,-8.303258269536327
1621785620273.107,0.3970328264644839,1.0346070566309458,1.7571562963276717,0.343,-5.247,-8.306
1621785620276.188,0.412,1.002,1.747,0.43052535364241884,-5.198283057878276,-8.249356233397453
1621785620281.959,0.433,0.958,1.737,0.5944654732461823,-5.107033368664861,-8.143259137125584
1621785620287.735,0.44,0.916,1.724,0.7585512372577501,-5.01570261322446,-8.037067784189796
1621785620291.764,0.446966690589775,0.8978866044665851,1.71563997129227,0.873,-4.952,-7.963
1621785620293.518,0.45,0.89,1.712,0.9253720824097014,-4.9106832051114875,-7.906037162602686
1621785620299.308,0.449,0.876,1.705,1.098240044334333,-4.774306154648586,-7.7180161950710655
1621785620305.104,0.44,0.871,1.688,1.2712829443212934,-4.637791094014865,-7.529804955013692
1621785620310.487,0.4205163475699558,0.8737833789185777,1.673155312434252,1.432,-4.511,-7.355
1621785620310.906,0.419,0.874,1.672,1.4486389442036625,-4.502892702354457,-7.346669360821522
1621785620316.705,0.368,0.89,1.665,1.6789564510041257,-4.3906708836047015,-7.2313560319133705
1621785620322.511,0.309,0.908,1.676,1.9095454557286584,-4.2783167779469755,-7.115906771829813
1621785620328.322,0.243,0.937,1.682,2.1403380838962427,-4.165863457108274,-7.0003555633647006
1621785620329.245,0.2342719298245614,0.9406499202551835,1.6829521531100478,2.177,-4.148,-6.982
1621785620334.139,0.188,0.96,1.688,2.261242353490544,-4.13031950605754,-7.007480711858251
1621785620339.962,0.122,0.981,1.693,2.361480037356993,-4.109281967468285,-7.037799517472177
1621785620345.792,0.052,1.005,1.691,2.4618395984123276,-4.088218849715931,-7.068155187174099
1621785620348.067,0.028221636546184738,1.0151350401606425,1.6964573293172691,2.501,-4.08,-7.08
1621785620351.628,-0.009,1.031,1.705,2.549083849365894,-4.140906209196799,-7.21312626530322
1621785620357.469,-0.072,1.054,1.717,2.6279544167647018,-4.240808927901956,-7.431489483277959
1621785620363.316,-0.108,1.079,1.735,2.7069041019740667,-4.340811862500485,-7.6500717489948675
1621785620366.952,-0.11669410391126678,1.0907991410224336,1.7405890668001,2.756,-4.403,-7.786
1621785620369.171,-0.122,1.098,1.744,2.753658077814996,-4.434030468951301,-7.879091406853903
1621785620375.031,-0.117,1.114,1.752,2.747473331615563,-4.5159783560937905,-8.12493506828137
1621785620380.896,-0.101,1.121,1.758,2.741283432105128,-4.59799452460706,-8.37098357382118
1621785620385.902,-0.08480197073008482,1.1278202228504906,1.7665252785631134,2.736,-4.668,-8.581
1621785620386.768,-0.082,1.129,1.768,2.7324475802827393,-4.671552419717261,-8.59484532812881
1621785620392.647,-0.072,1.127,1.784,2.7083307867130624,-4.695669213286938,-8.688838985118322
1621785620398.531,-0.052,1.121,1.803,2.68419296105597,-4.7198070389440305,-8.782914613320322
1621785620404.42,-0.038,1.11,1.82,2.6600351048394346,-4.743964895160566,-8.877068309343741
1621785620404.916,-0.036570139492528665,1.11042054720808,1.8213457510658555,2.658,-4.746,-8.885
1621785620410.318,-0.021,1.115,1.836,2.544157880591284,-4.762708171754015,-8.868291828245985
1621785620416.22,0.002,1.112,1.852,2.4197840660395467,-4.780962040058872,-8.850037959941128
1621785620422.128,0.024,1.107,1.861,2.295281627951622,-4.799234785947399,-8.831765214052602
1621785620423.992,0.029673299207397624,1.1073151832892998,1.8613151832892998,2.256,-4.805,-8.826
1621785620428.042,0.042,1.108,1.862,2.17918535857336,-4.780241561854223,-8.830232211648852
1621785620433.962,0.058,1.11,1.866,2.066906051483532,-4.744052363701304,-8.836418399367298
1621785620439.89,0.072,1.096,1.874,1.9544739393320918,-4.7078139143301785,-8.842613006097405
1621785620443.131,0.0867523252942629,1.0910825582352457,1.870721705490164,1.893,-4.688,-8.846
1621785620445.822,0.099,1.087,1.868,1.8530606476713583,-4.682394476866155,-8.810264790021742
1621785620451.761,0.115,1.079,1.868,1.7649128809551056,-4.670022860484927,-8.73139573559141
1621785620457.707,0.14,1.079,1.859,1.6766600297516878,-4.657636495403746,-8.652432658198878
1621785620462.333,0.14932977719420623,1.0813324442985517,1.8628874071642527,1.608,-4.648,-8.591
1621785620463.657,0.152,1.082,1.864,1.581748815165877,-4.641265402843602,-8.572789099526066
1621785620469.614,0.173,1.072,1.861,1.4636354259066833,-4.610964062143599,-8.490851800694427
1621785620475.577,0.188,1.082,1.864,1.3454058595433003,-4.580632916846187,-8.408833907798362
1621785620481.547,0.195,1.07,1.861,1.2270310717996806,-4.550264515802012,-8.326715272321769
1621785620481.599,0.195,1.0699390757160954,1.8608781514321906,1.226,-4.55,-8.326
1621785620487.522,0.195,1.063,1.847,1.006621629472461,-4.538050619482439,-8.220906730319909
1621785620493.503,0.19,1.068,1.836,0.7850910721277106,-4.525984010911984,-8.114782454943862
1621785620499.49,0.182,1.075,1.822,0.5633344447391353,-4.513905088470428,-8.008549880650172
1621785620500.93,0.1785146258072686,1.0732573129036342,1.8197594023046726,0.51,-4.511,-7.983
1621785620505.274,0.168,1.068,1.813,0.32774768047368563,-4.511,-7.929852871983294
1621785620510.99,0.161,1.056,1.792,0.08793013666041077,-4.511,-7.859918981787422
1621785620516.707,0.152,1.033,1.766,-0.151928378842748,-4.511,-7.789973143718115
1621785620519.402,0.14964295170175512,1.0282859034035101,1.7528005295298288,-0.265,-4.511,-7.757
1621785620522.424,0.147,1.023,1.738,-0.3644519049066378,-4.499713517370793,-7.7282112906849205
1621785620528.142,0.15,0.991,1.716,-0.5526295640453002,-4.478357829080386,-7.673738810407939
1621785620533.859,0.152,0.955,1.689,-0.740767050334994,-4.457006699879746,-7.619277959113554
1621785620537.877,0.15059435452876116,0.9353209634026562,1.670726608873895,-0.873,-4.442,-7.581
1621785620539.576,0.15,0.927,1.663,-0.9063798065487989,-4.446505814107138,-7.551206453658923
1621785620545.294,0.155,0.892,1.632,-1.0187218742567192,-4.461670445836306,-7.4509341948783
1621785620551.012,0.147,0.862,1.595,-1.1310639419646398,-4.476835077565474,-7.350661936097677
1621785620556.353,0.14139458513046077,0.8264990391595849,1.572578340521843,-1.236,-4.491,-7.257
1621785620556.729,0.141,0.824,1.571,-1.2306067742404418,-4.49500930367786,-7.259991713911906
1621785620562.446,0.126,0.791,1.552,-1.1485982238433177,-4.555974150576854,-7.305483249415216
1621785620568.164,0.113,0.742,1.536,-1.066575665067597,-4.616949411251635,-7.350982555604012
1621785620573.882,0.096,0.705,1.52,-0.9845531062918764,-4.677924671926416,-7.396481861792808
1621785620574.827,0.09484314814024,0.6977283597386513,1.5157031216637487,-0.971,-4.688,-7.404
1621785620579.599,0.089,0.661,1.494,-0.9405199672278457,-4.728295636546238,-7.5282448793509
1621785620585.318,0.087,0.63,1.468,-0.9039928905568623,-4.776585670111267,-7.677139149509739
1621785620591.035,0.087,0.592,1.433,-0.8674798477680576,-4.824857150408331,-7.825976213759018
1621785620593.302,0.087,0.5793104155100995,1.4171380193876244,-0.853,-4.844,-7.885
1621785620596.752,0.087,0.56,1.393,-0.7504877903750099,-4.8861999260022735,-7.9398972488702135
1621785620602.47,0.087,0.543,1.356,-0.5805820185522874,-4.95614292132456,-8.030885039245224
1621785620608.189,0.091,0.538,1.314,-0.41064722904939355,-5.026097861994239,-8.121888369142948
1621785620611.778,0.09602233420164838,0.5442779177520605,1.300188580945467,-0.304,-5.07,-8.179
1621785620613.906,0.099,0.548,1.292,-0.37588551119792724,-5.0432793987981395,-8.203355946228246
1621785620619.459,0.113,0.55,1.267,-0.5634756846945835,-4.973550156676027,-8.26691445895902
1621785620625.011,0.122,0.515,1.206,-0.7510328680530122,-4.903833177335558,-8.330461794110066
1621785620629.776,0.12543594031952818,0.48493552220412833,1.1338452532899082,-0.912,-4.844,-8.385
1621785620630.558,0.126,0.48,1.122,-0.9231403209751974,-4.848718253589496,-8.371718989896236
1621785620636.102,0.131,0.438,1.042,-1.0020961289354915,-4.882158360490326,-8.277591281582787
1621785620641.643,0.122,0.429,0.979,-1.0810102128471892,-4.915580796029398,-8.183513314880214
1621785620647.181,0.113,0.428,0.929,-1.1598790957062408,-4.948984087593232,-8.089489234922755
1621785620647.681,0.11128369795342273,0.428,0.9248447424135497,-1.167,-4.952,-8.081
1621785620652.716,0.094,0.428,0.883,-1.3050492869242118,-5.051451833233156,-8.031133216764111
1621785620658.248,0.075,0.419,0.836,-1.4567200972624448,-5.160716723129884,-7.97634600568275
1621785620663.776,0.058,0.41,0.775,-1.60827711600459,-5.2698996366318775,-7.9215998989126275
1621785620665.553,0.05381943892202341,0.40485469405787494,0.7553835210956483,-1.657,-5.305,-7.904
1621785620669.302,0.045,0.394,0.714,-1.774471624266145,-5.356695920517838,-7.961790155050429
1621785620674.825,0.038,0.372,0.653,-1.9475273083081304,-5.432852804729517,-8.046924883335842
1621785620680.344,0.049,0.328,0.602,-2.1204605942003205,-5.508955824996921,-8.131999397862412
1621785620683.393,0.05673723338348526,0.3036829807947606,0.5721563855208426,-2.216,-5.551,-8.179
1621785620685.861,0.063,0.284,0.548,-2.263675463730961,-5.584954908761876,-8.173594932890968
1621785620691.374,0.087,0.236,0.497,-2.3701706310579786,-5.660801757584897,-8.16152135287424
1621785620696.884,0.129,0.188,0.447,-2.476609204699689,-5.736608299858791,-8.149454189002071
1621785620701.201,0.16192299507913288,0.14880595823912757,0.40467043489825777,-2.56,-5.796,-8.14
1621785620702.391,0.171,0.138,0.393,-2.547479570394583,-5.784818653774842,-8.098622323550014
1621785620707.895,0.213,0.096,0.358,-2.4895799673126313,-5.733111521610746,-7.907274972188269
1621785620713.395,0.239,0.047,0.316,-2.431721456922718,-5.681441087198363,-7.716063424482565
1621785620718.893,0.251,0.012,0.29,-2.3738834928788233,-5.629789001661837,-7.524919778604882
1621785620718.977,0.25092357933087484,0.011342782245523614,0.28954147598524904,-2.373,-5.629,-7.522
1621785620724.388,0.246,-0.031,0.26,-2.3247460685064487,-5.538639134655387,-7.244463056441548
1621785620729.817,0.222,-0.059,0.239,-2.2763310220496464,-5.447976563583414,-6.965999445291915
1621785620735.242,0.187,-0.087,0.222,-2.227950811260574,-5.357379226182221,-6.687736194702538
1621785620736.582,0.17390094105993065,-0.09169588905398712,0.21631550272412087,-2.216,-5.335,-6.619
1621785620740.664,0.134,-0.106,0.199,-2.1749510099319274,-5.3440960830264475,-6.53900111594688
1621785620746.08,0.087,-0.124,0.182,-2.1204874455975897,-5.356164713759624,-6.4328590559089385
1621785620751.493,0.031,-0.124,0.168,-2.0660557973440463,-5.368226272179444,-6.326779195960272
1621785620754.084,0.010397814997065599,-0.13070768814049027,0.16512527651121847,-2.04,-5.374,-6.276
1621785620756.901,-0.012,-0.138,0.162,-2.0004708300704777,-5.435794579930641,-6.318756040944177
1621785620762.306,-0.054,-0.145,0.148,-1.924622650743931,-5.554365407204385,-6.400795908379013
1621785620767.706,-0.087,-0.15,0.143,-1.8488429913860611,-5.672829119588321,-6.482761662378342
1621785620771.543,-0.09837706994842095,-0.1585328024613157,0.13304506379513167,-1.795,-5.757,-6.541
1621785620773.102,-0.103,-0.162,0.129,-1.7694882253994952,-5.799967199327165,-6.580476114381834
1621785620778.494,-0.106,-0.162,0.127,-1.6812596719932715,-5.948562657695542,-6.71699819175778
1621785620783.882,-0.11,-0.161,0.122,-1.5930910428931875,-6.097057190916737,-6.853427544154752
1621785620788.96,-0.10528324564586357,-0.16383005261248187,0.13049015783744558,-1.51,-6.237,-6.982
1621785620789.265,-0.105,-0.164,0.131,-1.5075949710462697,-6.244408191375724,-6.986142969584528
1621785620794.645,-0.098,-0.162,0.14,-1.4651613256872997,-6.375116208466858,-7.0592403440715135
1621785620800.021,-0.091,-0.157,0.147,-1.4227604149097655,-6.505723393489627,-7.13228132906055
1621785620805.391,-0.087,-0.154,0.159,-1.3804057176589644,-6.636188227357058,-7.205242705346602
1621785620806.33,-0.08560037301551199,-0.153650093253878,0.16179925396897601,-1.373,-6.659,-7.218
1621785620810.758,-0.079,-0.152,0.175,-1.3630333516506743,-6.734133195248764,-7.255566597624382
1621785620816.12,-0.068,-0.15,0.199,-1.3509642389144862,-6.825115737413873,-7.301057868706937
1621785620821.48,-0.063,-0.155,0.218,-1.3389000718603374,-6.916060996745149,-7.346530498372575
1621785620823.657,-0.055680984952120385,-0.15378016415868673,0.22369256725946193,-1.334,-6.953,-7.365
1621785620826.834,-0.045,-0.152,0.232,-1.3104257246376811,-6.945817212975544,-7.437196218297101
1621785620832.184,-0.03,-0.152,0.243,-1.2707264492753623,-6.933721340013587,-7.558775249094203
1621785620837.51,-0.014,-0.145,0.264,-1.2312065217391304,-6.921680112092391,-7.679805027173913
1621785620840.907,-0.008254370268410187,-0.1360623537508603,0.2793216792842395,-1.206,-6.914,-7.757
1621785620842.831,-0.005,-0.131,0.288,-1.206,-6.87881296212035,-7.786696067000341
1621785620848.147,0.0,-0.129,0.311,-1.206,-6.781596547605505,-7.86874176714822
1621785620853.458,0.003,-0.12,0.326,-1.206,-6.684469428961437,-7.950712106131271
1621785620858.077,0.003,-0.11304000735767497,0.3416599834452313,-1.206,-6.6,-8.022
1621785620858.767,0.003,-0.112,0.344,-1.2072092910511607,-6.588511735013974,-8.018815533565277
1621785620864.069,0.007,-0.093,0.363,-1.2164990589174698,-6.500258940284036,-7.994352478183996
1621785620869.367,0.017,-0.079,0.382,-1.2257815547824102,-6.412075229567102,-7.969908572406319
1621785620874.661,0.023,-0.073,0.396,-1.2350572064107683,-6.3239565390977015,-7.945482689784977
1621785620875.199,0.02310171681742662,-0.0714742477386007,0.3974240354439727,-1.236,-6.315,-7.943
1621785620879.951,0.024,-0.058,0.41,-1.2796905480176715,-6.214261284188554,-7.8311299343751335
1621785620885.236,0.028,-0.042,0.419,-1.3282834879830718,-6.102218964013554,-7.706707247329969
1621785620890.516,0.019,-0.028,0.426,-1.3768292895643595,-5.99028533234205,-7.582405258567691
1621785620892.275,0.01733317908375752,-0.023332901434521054,0.42933364183248496,-1.393,-5.953,-7.541
1621785620895.792,0.014,-0.014,0.436,-1.4415439997705732,-5.89020265561594,-7.490390298111531
1621785620901.063,0.01,0.002,0.438,-1.5142959749924718,-5.796089462137398,-7.414542494156785
1621785620906.33,0.002,0.023,0.445,-1.5869940349015614,-5.702046014425214,-7.338750899783479
1621785620909.301,-0.009856771679116595,0.02977529810235234,0.4489522572263722,-1.628,-5.649,-7.296
1621785620911.592,-0.019,0.035,0.452,-1.669014693619346,-5.643603329786928,-7.303960088564281
1621785620916.851,-0.037,0.037,0.459,-1.7631640452022888,-5.631215257210225,-7.3222324956149185
1621785620922.104,-0.049,0.038,0.466,-1.8572041291658279,-5.618841561951864,-7.340483696121
1621785620926.282,-0.05457167441860465,0.03242832558139535,0.47157167441860465,-1.932,-5.609,-7.355
1621785620927.353,-0.056,0.031,0.473,-1.9598874938737856,-5.610264738951192,-7.356833871479229
1621785620932.598,-0.051,0.019,0.469,-2.0964516677717877,-5.61645812552253,-7.365814282007669
1621785620937.837,-0.049,0.0,0.466,-2.232863277308502,-5.622644593075215,-7.3747846599590625
1621785620943.073,-0.038,-0.005,0.457,-2.369198604664572,-5.628827601118574,-7.383750021621934
1621785620943.219,-0.03760933271115259,-0.0050558096126924875,0.4566651423238451,-2.373,-5.629,-7.384
1621785620948.305,-0.024,-0.007,0.445,-2.337766555357995,-5.622977188950085,-7.378278329502581
1621785620953.533,-0.007,0.002,0.436,-2.301548766208422,-5.616786113881782,-7.372396808187693
1621785620958.756,0.009,-0.005,0.421,-2.2653648033305864,-5.610600821082151,-7.366520780028044
1621785620960.108,0.012108200402301539,-0.00603606680076718,0.4194458997988492,-2.256,-5.609,-7.365
1621785620963.975,0.021,-0.009,0.415,-2.159096794769574,-5.636096156912773,-7.308741030138734
1621785620969.189,0.037,-0.007,0.403,-2.028448761253099,-5.6726280714979485,-7.2328908685000215
1621785620974.398,0.044,-0.016,0.398,-1.89792308026848,-5.70912577376379,-7.157111740914165
1621785620976.949,0.04449010318949343,-0.014039587242026266,0.40143072232645405,-1.834,-5.727,-7.12
1621785620979.603,0.045,-0.012,0.405,-1.7766361640888477,-5.74406692638679,-7.059475622165368
1621785620984.804,0.054,-0.01,0.421,-1.6642249970926852,-5.77751157111292,-6.940871002442145
1621785620990.0,0.051,0.01,0.44,-1.5519193656239099,-5.810924816839167,-6.822377732875916
1621785620993.744,0.04811449807131433,0.022984758679085525,0.4551488851255998,-1.471,-5.835,-6.737
1621785620995.19,0.047,0.028,0.461,-1.5074380721907983,-5.813845195055105,-6.707383273077148
1621785621000.377,0.037,0.035,0.471,-1.6381426613796723,-5.737962198962038,-6.6011470785468545
1621785621005.56,0.023,0.058,0.469,-1.7687488191731298,-5.662136349058254,-6.4949908886815555
1621785621010.491,0.007763449478994766,0.07133198170587958,0.46614314677731156,-1.893,-5.59,-6.394
1621785621010.738,0.007,0.072,0.466,-1.8932811152209827,-5.588831152502229,-6.3897980672232055
1621785621015.91,0.007,0.096,0.454,-1.8991656456965744,-5.56436389420898,-6.301839822219623
1621785621021.08,0.005,0.113,0.44,-1.9050482316992938,-5.539904720829252,-6.21391064196845
1621785621026.244,0.0,0.143,0.417,-1.9109235953742012,-5.515475577128321,-6.126089416511937
1621785621027.19,-0.0003667423812227901,0.14721753738406207,0.4140660609502177,-1.912,-5.511,-6.11
1621785621031.403,-0.002,0.166,0.401,-1.8153504772237454,-5.521120368877095,-6.045482648408521
1621785621036.558,-0.009,0.204,0.377,-1.6970938466726289,-5.53350326212852,-5.966541703930682
1621785621041.709,-0.01,0.236,0.368,-1.5789324262905566,-5.545876185728738,-5.887664315979299
1621785621043.842,-0.012895923102419623,0.2451014726076045,0.3580711207917041,-1.53,-5.551,-5.855
1621785621046.865,-0.017,0.258,0.344,-1.4677515353159307,-5.5758630893927625,-5.8584481656822085
1621785621052.021,-0.03,0.302,0.328,-1.3615792428217568,-5.6182700983481615,-5.8643294296979205
1621785621057.175,-0.037,0.335,0.316,-1.2554471690093365,-5.660661043281985,-5.870208465856625
1621785621060.499,-0.04668533624205634,0.36211894147775775,0.31148017642037373,-1.187,-5.688,-5.874
1621785621062.323,-0.052,0.377,0.309,-1.215988433104543,-5.6837176178368285,-5.941859286585634
1621785621067.467,-0.059,0.401,0.293,-1.2977427210864358,-5.671640279839504,-6.1332386425432475
1621785621072.607,-0.063,0.419,0.283,-1.3794310468995723,-5.6595726862534725,-6.324463587060363
1621785621077.11,-0.058616057422636314,0.43127503921661836,0.25406597898939964,-1.451,-5.649,-6.492
1621785621077.743,-0.058,0.433,0.25,-1.4735022551071546,-5.6377297703622915,-6.523480234649059
1621785621082.874,-0.037,0.443,0.223,-1.6559597765527814,-5.54634612210005,-6.778734899625623
1621785621088.0,-0.014,0.459,0.192,-1.8382349880611975,-5.45505378356867,-7.033734516404799
1621785621093.123,0.012,0.457,0.155,-2.020406022462636,-5.3638136220263535,-7.288588391356896
1621785621093.674,0.015983637838095692,0.45646167056241954,0.1512316939369365,-2.04,-5.354,-7.316
1621785621098.241,0.049,0.452,0.12,-2.1539025154444147,-5.308107238922881,-7.326782034228962
1621785621103.354,0.073,0.449,0.08,-2.2814263249682245,-5.256726286541929,-7.33885346280039
1621785621108.464,0.093,0.459,0.033,-2.408877065413378,-5.205374774614998,-7.350917974638645
1621785621110.193,0.09740296508847442,0.45595179340028696,0.01945241511238642,-2.452,-5.188,-7.355
1621785621113.569,0.106,0.45,-0.007,-2.367569216177364,-5.20009081612994,-7.260527690916906
1621785621118.669,0.11,0.459,-0.049,-2.24002549016702,-5.218355573010062,-7.117814929531544
1621785621123.765,0.105,0.466,-0.077,-2.1125794567037657,-5.236606339938053,-6.975211479467077
1621785621126.667,0.09987064294960925,0.4677097856834636,-0.09352792827348133,-2.04,-5.247,-6.894
1621785621128.857,0.096,0.469,-0.106,-1.9968064204503233,-5.261264546332764,-6.857338782789626
1621785621133.944,0.079,0.466,-0.136,-1.8964692279111244,-5.294400594486141,-6.772176042208516
1621785621139.027,0.063,0.469,-0.162,-1.7962138961135468,-5.327509608382255,-6.68708278219514
1621785621143.094,0.044582752487621974,0.47460524924289765,-0.18602249675527568,-1.716,-5.354,-6.619
1621785621144.106,0.04,0.476,-0.192,-1.6888408736349454,-5.3733377906544835,-6.632302429240027
1621785621149.18,0.028,0.482,-0.213,-1.5526652106084242,-5.470297333036179,-6.699000713171384
1621785621154.275,0.014,0.482,-0.234,-1.4159260530421216,-5.567658093752321,-6.7659749944283485
1621785621159.366,0.012,0.489,-0.243,-1.2792917316692667,-5.664944209196939,-6.832897927345665
1621785621159.526,0.012157210061443933,0.48931442012288784,-0.243440188172043,-1.275,-5.668,-6.835
1621785621164.452,0.017,0.499,-0.257,-0.9896844453035551,-5.821008341635317,-6.9910085051967945
1621785621169.534,0.024,0.51,-0.251,-0.6953330260360132,-5.9788624150595515,-7.151957756531307
1621785621174.612,0.028,0.527,-0.241,-0.40120785689857696,-6.136595155606441,-7.312783295912451
1621785621175.945,0.026686679174484054,0.5306772983114447,-0.23233208255159474,-0.324,-6.178,-7.355
1621785621179.687,0.023,0.541,-0.208,-0.12454154492874608,-6.337018424661618,-7.516303172142389
1621785621184.756,0.01,0.545,-0.169,0.14565848786595909,-6.552435632937809,-7.734815455250135
1621785621189.822,0.003,0.555,-0.122,0.4156893447021644,-6.767717965535746,-7.953190924810685
1621785621192.323,-0.00342288029323816,0.5490711874216263,-0.09630847882704736,0.549,-6.874,-8.061
1621785621194.884,-0.01,0.543,-0.07,0.47374442518084536,-6.912568482094817,-8.279397949423089
1621785621199.941,-0.016,0.517,-0.017,0.3251487415555689,-6.988723769952771,-8.710635006277277
1621785621204.994,-0.017,0.447,0.023,0.17666784241047412,-7.064820230764632,-9.141538949004604
1621785621208.658,-0.011195600676818952,0.37879830795262265,0.0440409475465313,0.069,-7.12,-9.454
1621785621210.044,-0.009,0.353,0.052,-0.032836845102505674,-7.0957531321184515,-9.534057202373816
1621785621215.089,0.019,0.241,0.066,-0.40353587699316623,-7.00749145785877,-9.825475572473325
1621785621220.129,0.082,0.131,0.068,-0.7738402619589977,-6.919323747152619,-10.116583697997841
1621785621224.949,0.15566791044776118,0.030543758480325645,0.05938946501259934,-1.128,-6.835,-10.395
1621785621225.167,0.159,0.026,0.059,-1.1256251427369433,-6.8303978754732855,-10.378295495522567
1621785621230.199,0.258,-0.037,0.044,-1.0708119478334033,-6.724177955405974,-9.992745056794279
1621785621235.227,0.368,-0.087,0.031,-1.016041303563916,-6.61804049221708,-9.607493914898733
1621785621240.251,0.461,-0.119,0.03,-0.9613158693431095,-6.511990639461506,-9.222560775887974
1621785621241.198,0.471750899542935,-0.12050889818146455,0.027925265000486237,-0.951,-6.492,-9.15
1621785621245.272,0.518,-0.127,0.019,-0.8597468966556191,-6.312007652907502,-8.644462835191323
1621785621250.288,0.552,-0.119,0.023,-0.7473907954203073,-6.0903906598373005,-8.022016224766496
1621785621255.3,0.56,-0.094,0.023,-0.6351276589334136,-5.868957035251581,-7.400084633925881
1621785621257.404,0.5570591332325843,-0.08181640910642032,0.02342012382391654,-0.588,-5.776,-7.139
1621785621260.308,0.553,-0.065,0.024,-0.5263641513709494,-5.677346702923181,-6.922286199864038
1621785621265.311,0.534,-0.037,0.024,-0.420181569604955,-5.507392658055744,-6.548944527532291
1621785621270.311,0.49,0.003,0.031,-0.3140611677619155,-5.33753813732155,-6.175821481985044
1621785621273.565,0.45482861750476467,0.03035551971851634,0.03555925328641939,-0.245,-5.227,-5.933
1621785621275.307,0.436,0.045,0.038,-0.20263526204180551,-5.21846220842169,-5.891715995152984
1621785621280.298,0.375,0.077,0.052,-0.08124707664344136,-5.193998773099061,-5.773424447137231
1621785621285.284,0.304,0.11,0.065,0.040010481672220544,-5.169561663132384,-5.655260193880642
1621785621289.683,0.2448518445936015,0.1373670569790799,0.08000774092401157,0.147,-5.148,-5.551
1621785621290.267,0.237,0.141,0.082,0.14772666514771776,-5.161915637578796,-5.570583625730994
1621785621295.247,0.169,0.178,0.101,0.15392336902863218,-5.280582516898306,-5.737584795321638
1621785621300.221,0.11,0.209,0.115,0.16011247816510976,-5.399103956861851,-5.904381286549707
1621785621305.191,0.058,0.222,0.134,0.16629672666514772,-5.517532315637578,-6.0710467836257305
1621785621305.756,0.054813959203735566,0.2231378717129516,0.13604816908331285,0.167,-5.531,-6.09
1621785621310.158,0.03,0.232,0.152,0.03216084320833462,-5.673803180308892,-6.34594723855363
1621785621315.12,0.017,0.239,0.159,-0.1198417004295245,-5.834783470923325,-6.6344734517318065
1621785621320.078,0.024,0.237,0.168,-0.2717096292685899,-5.995621195966735,-6.9227441435403785
1621785621321.785,0.030890027591643672,0.2352774931020891,0.16593299172250692,-0.324,-6.051,-7.022
1621785621325.033,0.044,0.232,0.162,-0.41359675030160503,-6.108699494525297,-7.143494006077914
1621785621329.982,0.07,0.223,0.157,-0.5501132660385138,-6.196614892414825,-7.328611639662203
1621785621334.928,0.105,0.213,0.15,-0.6865489669074416,-6.284478246262388,-7.513619687552494
1621785621337.772,0.1257164945907227,0.20666995998616805,0.1442454181692437,-0.765,-6.335,-7.62
1621785621339.87,0.141,0.202,0.14,-0.7998745080624168,-6.3247350504571,-7.612235486884217
1621785621344.807,0.18,0.19,0.131,-0.8819314579728343,-6.300582438785354,-7.593966203696614
1621785621349.74,0.204,0.176,0.119,-0.9639275377854004,-6.276447743595241,-7.575710472719477
1621785621353.715,0.22093269945030455,0.1663241717426831,0.11013049076412618,-1.03,-6.257,-7.561
1621785621354.67,0.225,0.164,0.108,-1.036957064448938,-6.241242546333601,-7.544112766636766
1621785621359.595,0.246,0.152,0.099,-1.0728417131649766,-6.159965350523771,-7.45700814924057
1621785621364.515,0.25,0.141,0.087,-1.1086890061271342,-6.078772763900081,-7.369994207349521
1621785621369.583,0.234,0.115,0.077,-1.1456160582609887,-5.995134568896051,-7.280359311571618
1621785621369.773,0.23332523850823939,0.11492502650091549,0.07666261925411968,-1.147,-5.992,-7.277
1621785621374.65,0.216,0.113,0.068,-1.0945280808322015,-5.951155381102339,-7.247484545468113
1621785621379.713,0.201,0.101,0.058,-1.0400545796456875,-5.908752712565109,-7.2168432010506995
1621785621384.773,0.188,0.094,0.049,-0.9856125994358461,-5.866374580242676,-7.186219587182664
1621785621386.131,0.1834353219422724,0.0918519162081282,0.04604638478617627,-0.971,-5.855,-7.178
1621785621389.831,0.171,0.086,0.038,-0.9109537251618498,-5.859305204611037,-7.191368793265852
1621785621394.885,0.157,0.08,0.033,-0.8289334060972144,-5.865185906732653,-7.209629920906658
1621785621399.937,0.152,0.072,0.024,-0.7469447841753509,-5.871064336228937,-7.227883991447752
1621785621402.46,0.15100062859629612,0.07349905710555582,0.021501571490740293,-0.706,-5.874,-7.237
1621785621404.986,0.15,0.075,0.019,-0.6725250954841608,-5.883143608177937,-7.240099528195911
1621785621410.033,0.148,0.061,0.012,-0.6056464614693327,-5.901411383209766,-7.246291994308395
1621785621415.076,0.15,0.059,0.007,-0.5388195911031228,-5.919665019096832,-7.2524796674904515
1621785621418.76,0.15,0.059,0.0018842502905850444,-0.49,-5.933,-7.257
1621785621420.117,0.15,0.059,0.0,-0.4712381852551985,-5.944423860533501,-7.248828187355597
1621785621425.156,0.154,0.056,-0.002,-0.4015649473399946,-5.986847120952981,-7.2184816215080865
1621785621430.191,0.164,0.049,-0.005,-0.33194909532811234,-6.02923543973355,-7.188160050409578
1621785621435.033,0.16207596041909197,0.04707596041909197,-0.008848079161816064,-0.265,-6.07,-7.159
1621785621435.224,0.162,0.047,-0.009,-0.2656943680389593,-6.069305631961041,-7.158541010957298
1621785621440.254,0.166,0.037,-0.009,-0.2839643173858803,-6.05103568261412,-7.146464264778825
1621785621445.281,0.164,0.026,-0.017,-0.3022245118816792,-6.032775488118321,-7.13439396672228
1621785621450.305,0.161,0.017,-0.021,-0.3204731779170612,-6.014526822082939,-7.122331289173468
1621785621451.276,0.15887326203208557,0.014293242586290715,-0.021580019445794848,-0.324,-6.011,-7.12
1621785621455.327,0.15,0.003,-0.024,-0.3287464958371599,-6.011,-7.12
1621785621460.346,0.148,-0.01,-0.026,-0.3346271962180636,-6.011,-7.12
1621785621465.362,0.14,-0.009,-0.037,-0.3405044639496545,-6.011,-7.12
1621785621467.492,0.13915041145250037,-0.01834547402249598,-0.03997355991624872,-0.343,-6.011,-7.12
1621785621470.376,0.138,-0.031,-0.044,-0.32553727335807164,-6.014563821763659,-7.126949452439135
1621785621475.387,0.131,-0.037,-0.049,-0.2951959151657767,-6.020755935680453,-7.139024074576885
1621785621480.395,0.133,-0.042,-0.056,-0.26487229613539687,-6.026944429360123,-7.1510916372522395
1621785621483.677,0.12906546341463415,-0.04659029268292683,-0.06059029268292683,-0.245,-6.031,-7.159
1621785621485.4,0.127,-0.049,-0.063,-0.23039011711371363,-6.03515901775595,-7.152708152625614
1621785621490.403,0.127,-0.052,-0.061,-0.18796411031356253,-6.047236494144315,-7.1344370986021906
1621785621495.402,0.138,-0.045,-0.063,-0.1455732980732905,-6.05930395164337,-7.11618120136003
1621785621499.833,0.14243372257780818,-0.04056627742219182,-0.0656602335466849,-0.108,-6.07,-7.1
1621785621500.399,0.143,-0.04,-0.066,-0.10112332748077738,-6.06863168250893,-7.0934741781195125
1621785621505.394,0.145,-0.03,-0.063,-0.040425864261064356,-6.056554126051947,-7.035873524247744
1621785621510.385,0.147,-0.026,-0.059,0.02022116607132045,-6.044486604710299,-6.978320730156808
1621785621515.374,0.136,-0.03,-0.058,0.0808444632802567,-6.032423805775867,-6.9207904583156745
1621785621515.963,0.13493708074230035,-0.028110365764089505,-0.056700876462811536,0.088,-6.031,-6.914
1621785621520.36,0.127,-0.014,-0.047,0.13617740399873057,-6.02038463979689,-6.855207235798159
1621785621525.343,0.108,-0.005,-0.04,0.19077186380740807,-6.008355352042435,-6.7885834882350276
1621785621530.374,0.086,0.007,-0.031,0.24589327651085824,-5.996209956023031,-6.7213166795121735
1621785621532.118,0.07902168815943728,0.009442409144196952,-0.02751084407971864,0.265,-5.992,-6.698
1621785621535.372,0.066,0.014,-0.021,0.2847660891276387,-6.003899992433986,-6.690133903306348
1621785621540.368,0.042,0.026,-0.01,0.3151114625104033,-6.022169145797079,-6.678057683286676
1621785621545.36,0.023,0.024,-0.005,0.3454345918135734,-6.040424907316335,-6.6659903155027616
1621785621548.252,0.010829884045207693,0.028056705318264104,0.0031134106365282048,0.363,-6.051,-6.659
1621785621550.35,0.002,0.031,0.009,0.3654748177450401,-6.06754220282211,-6.684529698843571
1621785621555.337,-0.009,0.042,0.014,0.37135690143833644,-6.106859288561512,-6.745208035890208
1621785621560.322,-0.016,0.061,0.023,0.37723696933872897,-6.146162900316767,-6.805865578441626
1621785621564.36,-0.025726551014407528,0.06667382142507106,0.03110545917867294,0.382,-6.178,-6.855
1621785621565.304,-0.028,0.068,0.033,0.37859553922536177,-6.184926316748402,-6.868206959901614
1621785621570.283,-0.019,0.068,0.04,0.3606362601156947,-6.221464160454277,-6.937876577137391
1621785621575.26,-0.014,0.086,0.044,0.3426840259326177,-6.2579876713784675,-7.00751886491657
1621785621580.234,-0.003,0.091,0.049,0.32474323975524955,-6.294487891532424,-7.077116742328774
1621785621580.44,-0.0026684019251547,0.0913315980748453,0.04912434927806699,0.324,-6.296,-7.08
1621785621585.205,0.005,0.099,0.052,0.3296399251745168,-6.325090140373823,-7.091873526683194
1621785621590.174,0.019,0.105,0.054,0.33552113211564494,-6.3554247867017475,-7.104255014980305
1621785621595.139,0.033,0.117,0.063,0.341397426733381,-6.385734095782702,-7.11662616154396
1621785621596.493,0.036818619977376676,0.11945482712831358,0.0643637928490631,0.343,-6.394,-7.12
1621785621600.103,0.047,0.126,0.068,0.3342141714529472,-6.394,-7.093417236703789
1621785621605.064,0.052,0.124,0.072,0.3221408613781441,-6.394,-7.056887734426179
1621785621610.021,0.063,0.134,0.075,0.31007705784670697,-6.394,-7.020386995536191
1621785621612.518,0.0640078833267639,0.13500788332676392,0.07852759164367364,0.304,-6.394,-7.002
1621785621614.976,0.065,0.136,0.082,0.30706829610215464,-6.381880230396489,-6.979448023649163
1621785621619.929,0.07,0.138,0.086,0.313250906652851,-6.357458918721239,-6.934005836101545
1621785621624.879,0.07,0.147,0.094,0.3194298601164173,-6.333052052540152,-6.888590528144333
1621785621628.54,0.07147178329571106,0.1543589164785553,0.09767945823927765,0.324,-6.315,-6.855
1621785621629.854,0.072,0.157,0.099,0.3223580450302032,-6.306954420647996,-6.848514277869303
1621785621634.81,0.07,0.157,0.103,0.31616486667887,-6.2766078467264625,-6.824051223381536
1621785621639.762,0.061,0.161,0.108,0.30997687473305263,-6.246286686191958,-6.799608655195558
1621785621644.545,0.05423748705557473,0.15713570688889986,0.11186429311110016,0.304,-6.217,-6.776
1621785621644.713,0.054,0.157,0.112,0.3031801265010542,-6.216800287224616,-6.775800287224616
1621785621649.661,0.04,0.168,0.115,0.2790284169034742,-6.210917178476487,-6.769917178476487
1621785621654.606,0.028,0.166,0.119,0.2548910074250619,-6.205037553090721,-6.76403755309072
1621785621659.548,0.023,0.175,0.117,0.2307678980658172,-6.1991614110673146,-6.758161411067314
1621785621660.525,0.0208244686109738,0.1765822046465645,0.11877998022738508,0.226,-6.198,-6.757
1621785621664.487,0.012,0.183,0.126,0.19172387511478423,-6.212654285277012,-6.7716542852770125
1621785621669.425,0.005,0.178,0.126,0.14900596877869604,-6.23091773798592,-6.7899177379859195
1621785621674.359,0.002,0.182,0.126,0.10632396694214875,-6.249165840220385,-6.8081658402203855
1621785621676.477,-0.0001468870632485397,0.18114124517470057,0.126,0.088,-6.257,-6.816
1621785621679.292,-0.003,0.18,0.126,0.07067600883110511,-6.267252974365264,-6.829788482767079
1621785621684.22,-0.003,0.176,0.124,0.04034775542745002,-6.285202348828652,-6.853927296700601
1621785621689.147,0.0,0.182,0.126,0.010025512081442423,-6.303148166319146,-6.878061327118852
1621785621692.401,0.0,0.17605147532853954,0.12335621125712869,-0.01,-6.315,-6.894
1621785621694.07,0.0,0.173,0.122,-0.011994855572106451,-6.319199695941277,-6.905339179041447
1621785621698.992,0.0,0.178,0.122,-0.01787700978209125,-6.331583178488613,-6.9387745819192554
1621785621703.911,0.003,0.171,0.117,-0.0237556627098082,-6.343959289915386,-6.972190082771541
1621785621708.299,0.011035267236240813,0.16921438505861316,0.117,-0.029,-6.355,-7.002
1621785621708.826,0.012,0.169,0.117,-0.029,-6.354335989784459,-7.004589639840613
1621785621713.74,0.017,0.166,0.113,-0.029,-6.348142663733288,-7.028743611440176
1621785621718.651,0.024,0.166,0.108,-0.029,-6.341953337743658,-7.052881982799735
1621785621723.559,0.031,0.157,0.105,-0.029,-6.335767396421484,-7.077007153956215
1621785621724.168,0.03271966115051221,0.1561401694247439,0.105,-0.029,-6.335,-7.08
1621785621728.516,0.045,0.15,0.105,-0.029,-6.313721624850657,-7.064177618478694
1621785621733.438,0.049,0.145,0.094,-0.029,-6.289635603345281,-7.046267499923414
1621785621738.359,0.049,0.147,0.094,-0.029,-6.265554360812425,-7.028360934963086
1621785621740.107,0.049,0.14380119136262098,0.092933730454207,-0.029,-6.257,-7.022
1621785621743.277,0.049,0.138,0.091,-0.0329931116133893,-6.2490137767732215,-7.000437197287698
1621785621748.193,0.051,0.134,0.091,-0.039185279148792225,-6.236629441702415,-6.966999492596522
1621785621753.105,0.049,0.138,0.084,-0.04537221889078524,-6.2242555622184295,-6.93359001798976
1621785621755.985,0.04372196261682243,0.138,0.08282710280373833,-0.049,-6.217,-6.914
1621785621758.016,0.04,0.138,0.082,-0.049,-6.2145657831919054,-6.914
1621785621762.924,0.037,0.126,0.082,-0.049,-6.208683458333975,-6.914
1621785621767.829,0.026,0.117,0.079,-0.049,-6.2028046447877045,-6.914
1621785621771.838,0.017823523553430934,0.11863529528931381,0.07409411413205856,-0.049,-6.198,-6.914
1621785621772.732,0.016,0.119,0.073,-0.051202893632773944,-6.198,-6.9178409427443235
1621785621777.633,0.014,0.117,0.075,-0.0632791059970385,-6.198,-6.938896902764067
1621785621782.53,0.007,0.112,0.068,-0.07534509192991115,-6.198,-6.959935032082922
1621785621787.425,-0.002,0.113,0.063,-0.08740626542448174,-6.198,-6.980964770483712
1621785621787.666,-0.0021477397465322822,0.11295075341782257,0.06290150683564515,-0.088,-6.198,-6.982
1621785621792.318,-0.005,0.112,0.061,-0.09948299519446203,-6.215371710678801,-7.016743421357603
1621785621797.208,-0.01,0.099,0.054,-0.11155294590293122,-6.233631379699307,-7.053262759398613
1621785621802.096,-0.007,0.093,0.058,-0.1236180756215523,-6.251883755427476,-7.089767510854953
1621785621803.466,-0.006439052426408116,0.09328047378679594,0.054914788345244644,-0.127,-6.257,-7.1
1621785621806.981,-0.005,0.094,0.047,-0.13145603392243646,-6.2612332322263144,-7.113145300071187
1621785621811.864,0.0,0.082,0.044,-0.1376465690674425,-6.26711424061407,-7.131407378748955
1621785621816.744,0.005,0.077,0.038,-0.14383308056578661,-6.272991426537497,-7.14965758766907
1621785621819.242,0.0060241729643161004,0.07443956758920975,0.03748791351784195,-0.147,-6.276,-7.159
1621785621821.622,0.007,0.072,0.037,-0.12916904333808665,-6.2701067177134355,-7.150084521669043
1621785621826.496,0.012,0.066,0.035,-0.09265481430962862,-6.258038455576911,-7.131827407154814
1621785621831.369,0.017,0.061,0.033,-0.05614973029946059,-6.245973215946432,-7.11357486514973
1621785621834.993,0.01997713598074609,0.05727858002406739,0.030767148014440433,-0.029,-6.237,-7.1
1621785621836.238,0.021,0.056,0.03,-0.024407545412203073,-6.230823940381929,-7.093823940381928
1621785621841.106,0.023,0.056,0.026,-0.006452848936500544,-6.206677969259432,-7.069677969259431
1621785621845.971,0.017,0.054,0.026,0.011491041763701294,-6.182546530041919,-7.045546530041919
1621785621850.718,0.016023846578643506,0.05790461368542598,0.029904613685425973,0.029,-6.159,-7.022
1621785621850.834,0.016,0.058,0.03,0.029435908603070417,-6.159,-7.021852234371841
1621785621855.693,0.009,0.058,0.026,0.047700937922881895,-6.159,-7.015660699009192
1621785621860.55,0.0,0.059,0.031,0.0659577079217931,-6.159,-7.009471963416341
1621785621865.405,-0.002,0.065,0.028,0.08420713630212627,-6.159,-7.0032857165077536
1621785621866.414,-0.002,0.06458416339671999,0.02862375490492001,0.088,-6.159,-7.002
1621785621870.258,-0.002,0.063,0.031,0.09290651293237769,-6.163661187285759,-7.011567700218136
1621785621875.107,-0.002,0.066,0.03,0.09909566843253349,-6.169540885010907,-7.02363655344344
1621785621879.954,-0.009,0.068,0.031,0.10528264256777813,-6.175418510439389,-7.035701153007167
1621785621882.083,-0.008121189216427311,0.0728334593096498,0.031878810783572686,0.108,-6.178,-7.041
1621785621884.799,-0.007,0.079,0.033,0.09428172509599475,-6.178,-7.064789919770237
1621785621889.641,-0.01,0.084,0.033,0.0698255861143196,-6.178,-7.107201198763775
1621785621894.48,-0.009,0.082,0.03,0.04538547747635252,-6.178,-7.149584678300503
1621785621897.724,-0.00296518140990059,0.07730625220770046,0.03469374779229954,0.029,-6.178,-7.178
1621785621899.318,0.0,0.075,0.037,0.008993371167706331,-6.184022403577068,-7.1700381783218425
1621785621904.152,0.01,0.07,0.031,-0.0516792051654863,-6.2022860872692025,-7.145892969372919
1621785621908.984,0.014,0.063,0.03,-0.1123242030548911,-6.220541469286932,-7.121758735518972
1621785621913.34,0.026626465830974527,0.056686767084512736,0.028196219167003638,-0.167,-6.237,-7.1
1621785621913.814,0.028,0.056,0.028,-0.167,-6.234628923134749,-7.0976289231347485
1621785621918.641,0.031,0.056,0.028,-0.167,-6.210475944371359,-7.073475944371358
1621785621923.465,0.037,0.052,0.026,-0.167,-6.186338846081563,-7.049338846081564
1621785621928.287,0.042,0.047,0.028,-0.167,-6.162211520390904,-7.025211520390904
1621785621928.929,0.043331948525686496,0.046600415442294055,0.027467220589725404,-0.167,-6.159,-7.022
1621785621933.106,0.052,0.044,0.024,-0.17209915294117648,-6.119280282352941,-6.993015341176471
1621785621937.923,0.051,0.042,0.023,-0.17797976470588237,-6.073473411764706,-6.959588705882353
1621785621942.738,0.042,0.035,0.019,-0.18385769411764707,-6.027687435294117,-6.926177317647059
1621785621944.493,0.03616380797726581,0.034270475997158226,0.018270475997158225,-0.186,-6.011,-6.914
1621785621947.549,0.026,0.033,0.017,-0.17832772818707568,-6.026541268544129,-6.898458731455871
1621785621952.358,0.017,0.028,0.021,-0.1662554532310787,-6.050995363967815,-6.8740046360321845
1621785621957.165,0.005,0.026,0.017,-0.15418746856927332,-6.075440768795574,-6.849559231204426
1621785621960.028,-0.003343649946638205,0.028383899984753772,0.019383899984753775,-0.147,-6.09,-6.835
1621785621961.969,-0.009,0.03,0.021,-0.1568874370277078,-6.0986358627204025,-6.844887437027707
1621785621966.77,-0.021,0.031,0.017,-0.18134485201511336,-6.119997402392947,-6.8693448520151135
1621785621971.57,-0.023,0.031,0.016,-0.20579729219143578,-6.1413545969773295,-6.893797292191436
1621785621975.536,-0.02961535328853594,0.031,0.016,-0.226,-6.159,-6.914
1621785621976.366,-0.031,0.031,0.016,-0.226,-6.163182239674504,-6.925045402217281
1621785621981.16,-0.023,0.035,0.012,-0.226,-6.18733590386526,-6.988835848669789
1621785621985.951,-0.017,0.028,0.009,-0.226,-6.211474807210106,-7.0525873113497655
1621785621990.74,-0.009,0.026,0.009,-0.226,-6.235603869991011,-7.116312784848055
1621785621991.017,-0.008768461852305181,0.025826346389228885,0.008768461852305181,-0.226,-6.237,-7.12
1621785621995.527,-0.005,0.023,0.005,-0.23154420522217134,-6.219783783783784,-7.136924415941365
1621785622000.31,0.002,0.017,0.009,-0.23742394995814048,-6.201525629077353,-7.154873110398534
1621785622005.092,0.014,0.01,0.003,-0.24330249419495475,-6.183271202236719,-7.172818140174073
1621785622006.473,0.014577879948914432,0.00797742017879949,0.0027110600255427844,-0.245,-6.178,-7.178
1621785622009.871,0.016,0.003,0.002,-0.23640979222382225,-6.1672071748453146,-7.165224819204659
1621785622014.648,0.023,0.005,0.0,-0.22433449907426456,-6.15203565268305,-7.147266690930958
1621785622019.421,0.026,-0.003,-0.003,-0.21226908043612425,-6.136876536958207,-7.129323247828082
1621785622021.901,0.023400982499232423,-0.004039607000307031,-0.003,-0.206,-6.129,-7.12
1621785622024.192,0.021,-0.005,-0.003,-0.1972233723824168,-6.120223372382417,-7.102446744764833
1621785622028.96,0.023,0.0,-0.002,-0.17895743702740832,-6.101957437027409,-7.065914874054816
1621785622033.727,0.021,0.0,-0.005,-0.16069524277539116,-6.083695242775391,-7.029390485550782
1621785622037.302,0.021,0.0,-0.008002306627710287,-0.147,-6.07,-7.002
1621785622038.49,0.021,0.0,-0.009,-0.14097389813285913,-6.0730903086498165,-7.000454845675092
1621785622043.251,0.014,-0.002,-0.005,-0.11682366950336592,-6.085475041280326,-6.994262479359837
1621785622048.01,0.005,-0.005,-0.009,-0.0926833481519116,-6.09785469325543,-6.988072653372285
1621785622052.679,0.0020549766439094505,-0.008926697808120733,-0.0070366510959396335,-0.069,-6.11,-6.982
1621785622052.766,0.002,-0.009,-0.007,-0.06877287909151637,-6.110278223112893,-6.982227120908484
1621785622057.519,0.0,0.0,-0.005,-0.05638747335941725,-6.125450345134714,-6.994612526640583
1621785622062.271,-0.005,0.0,-0.005,-0.04400461239940198,-6.140619349810732,-7.006995387600599
1621785622067.019,-0.002,0.0,-0.005,-0.03163193052772211,-6.15577588510354,-7.019368069472278
1621785622068.029,-0.002,0.0,-0.005,-0.029,-6.159,-7.022
1621785622071.765,-0.002,0.0,-0.005,-0.033875810537384296,-6.173139850558414,-7.041015661095799
1621785622076.509,-0.003,0.003,-0.003,-0.040067599216148615,-6.1910960377268305,-7.065163636942979
1621785622081.249,0.002,-0.002,0.0,-0.046253971035735336,-6.209036516003632,-7.089290487039367
1621785622083.353,-0.00022033286958314004,-0.005552532591333025,-0.00222033286958314,-0.049,-6.217,-7.1
1621785622085.987,-0.003,-0.01,-0.005,-0.045555896060780185,-6.2137281012577406,-7.09655589606078
1621785622090.724,0.002,0.002,0.0,-0.039361999616931626,-6.207843899636085,-7.090361999616931
1621785622095.457,0.005,-0.003,-0.002,-0.033173529975100556,-6.201964853476346,-7.084173529975101
1621785622098.649,0.00837410963146485,-0.00434964385258594,-0.0006503561474140601,-0.029,-6.198,-7.08
1621785622100.187,0.01,-0.005,0.0,-0.033029292315563945,-6.194071439992325,-7.076071439992325
1621785622104.916,0.005,-0.003,-0.002,-0.04541776726040102,-6.1819926769211095,-7.063992676921109
1621785622109.641,0.003,-0.007,0.0,-0.05779600908189697,-6.16992389114515,-7.051923891145151
1621785622113.918,0.003,0.002055569914706643,-0.0018111139829413286,-0.069,-6.159,-7.041
1621785622114.364,0.003,0.003,-0.002,-0.06841483569278074,-6.15841483569278,-7.041
1621785622119.085,0.0,-0.003,-0.005,-0.06222144641598873,-6.152221446415989,-7.041
1621785622123.803,0.0,-0.003,0.0,-0.0560319005829223,-6.146031900582923,-7.041
1621785622128.518,0.0,-0.002,0.0,-0.04984619819358145,-6.139846198193582,-7.041
1621785622129.163,0.0,-0.002410588479071695,-0.000410588479071695,-0.049,-6.139,-7.041
1621785622133.231,0.0,-0.005,-0.003,-0.038573551119953794,-6.149426448880046,-7.041
1621785622137.942,0.0,0.0,0.0,-0.02649884474680701,-6.161501155253193,-7.041
1621785622142.65,-0.003,0.003,0.0,-0.014431647519414677,-6.1735683524805856,-7.041
1621785622144.379,-0.0007956007470429549,0.003,0.0,-0.01,-6.178,-7.041
1621785622147.356,0.003,0.003,0.0,-0.008040526425736369,-6.181918947148527,-7.037277000208899
1621785622152.058,0.002,0.003,0.002,-0.004945605887740836,-6.188108788224518,-7.031396651186708
1621785622156.758,0.003,0.01,0.002,-0.0018521315742957688,-6.194295736851409,-7.025519049991162
1621785622159.572,0.0012030868367718132,0.005208231564724835,0.0008020578911812088,0.0,-6.198,-7.022
1621785622161.456,0.0,0.002,0.0,0.0,-6.198,-7.017029947832808
1621785622166.152,0.005,0.009,0.005,0.0,-6.198,-7.0046418496812
1621785622170.844,0.0,0.007,0.002,0.0,-6.198,-6.9922647001996525
1621785622174.735,0.0,0.0036813118167621033,0.002,0.0,-6.198,-6.982
1621785622175.534,0.0,0.003,0.002,0.0005275972717158199,-6.198,-6.983055194543432
1621785622180.222,0.003,0.005,0.005,0.0036238450747375717,-6.198,-6.989247690149475
1621785622184.907,0.0,0.003,0.007,0.006718157924440073,-6.198,-6.99543631584888
1621785622189.589,-0.003,-0.002,0.007,0.009810535820823323,-6.198,-7.0016210716416465
1621785622189.876,-0.0031225681948573517,-0.0016935795128566213,0.007,0.01,-6.198,-7.002
1621785622194.27,-0.005,0.003,0.007,0.004183592676975778,-6.192183592676976,-7.019158401602922
1621785622198.947,-0.005,0.002,0.005,-0.002007368267972272,-6.185992631732028,-7.0374217363905185
1621785622203.622,-0.003,0.009,0.009,-0.008195743855737068,-6.179804256144263,-7.055677444374425
1621785622204.985,-0.0047501567398119116,0.006958150470219435,0.00783322884012539,-0.01,-6.178,-7.061
1621785622208.295,-0.009,0.002,0.005,-0.005612905313571937,-6.182387094686428,-7.04367097598861
1621785622212.965,-0.007,0.005,0.009,0.0005773089120445288,-6.188577308912045,-7.0192196297974245
1621785622217.632,-0.01,0.007,0.003,0.006763316290207754,-6.194763316290208,-6.99478490065368
1621785622220.074,-0.007382771613983672,0.008570337031609797,0.00666411974042286,0.01,-6.198,-6.982
1621785622222.297,-0.005,0.01,0.01,0.02151499627119743,-6.198,-6.982
1621785622226.959,-0.003,0.012,0.009,0.04566158684867546,-6.198,-6.982
1621785622231.619,-0.007,0.016,0.012,0.06979806102266463,-6.198,-6.982
1621785622235.133,-0.010772012578616352,0.021280817610062893,0.012,0.088,-6.198,-6.982
1621785622236.277,-0.012,0.023,0.012,0.08952214516574361,-6.1950318169268,-6.982
1621785622240.931,-0.005,0.026,0.012,0.09571402121128453,-6.182957658637996,-6.982
1621785622245.583,-0.019,0.021,0.017,0.101903623459096,-6.170887934254763,-6.982
1621785622250.165,-0.020970807518639084,0.023956211277958626,0.017,0.108,-6.159,-6.982
1621785622250.233,-0.021,0.024,0.017,0.10808592949291512,-6.159085929492915,-6.982090452097806
1621785622254.881,-0.028,0.026,0.021,0.11397086336201988,-6.1649708633620195,-6.988285119328442
1621785622259.525,-0.031,0.026,0.019,0.11985023345100783,-6.170850233451008,-6.9944739299484295
1621785622264.168,-0.033,0.024,0.023,0.12572867624330963,-6.176728676243309,-7.000661764466641
1621785622265.172,-0.033,0.02551523604020841,0.023,0.127,-6.178,-7.002
1621785622268.807,-0.033,0.031,0.023,0.13185283092669253,-6.18746302030705,-7.002
1621785622273.444,-0.038,0.042,0.026,0.13804403663743928,-6.199535871443007,-7.002
1621785622278.079,-0.044,0.042,0.031,0.14423230874539586,-6.211603002053522,-7.002
1621785622280.152,-0.04444764867144665,0.040209405314213416,0.031,0.147,-6.217,-7.002
1621785622282.71,-0.045,0.038,0.031,0.13690737505510472,-6.223842457589759,-7.002
1621785622287.34,-0.047,0.044,0.038,0.11863815370548761,-6.236228370369161,-7.002
1621785622291.966,-0.049,0.049,0.037,0.10038530866817966,-6.248603180563945,-7.002
1621785622295.105,-0.04424920819256757,0.0456065772804054,0.03767868454391892,0.088,-6.257,-7.002
1621785622296.591,-0.042,0.044,0.038,0.088,-6.257,-7.005882713727286
1621785622301.213,-0.04,0.052,0.04,0.088,-6.257,-7.017958227703178
1621785622305.833,-0.037,0.054,0.044,0.088,-6.257,-7.030029276590177
1621785622310.032,-0.031542021473528324,0.04126471677156609,0.04490966308774528,0.088,-6.257,-7.041
1621785622310.449,-0.031,0.04,0.045,0.08855976141316815,-6.255880477173664,-7.040468226657491
1621785622315.063,-0.026,0.049,0.042,0.09475351489529053,-6.243492970209418,-7.034584160849474
1621785622319.675,-0.031,0.047,0.047,0.10094464654409596,-6.2311107069118075,-7.028702585783109
1621785622324.284,-0.024,0.051,0.047,0.10713151771376134,-6.218736964572477,-7.022825058171927
1621785622324.931,-0.024982989772667056,0.05071914577923798,0.047,0.108,-6.217,-7.022
1621785622328.891,-0.031,0.049,0.047,0.09761625960212725,-6.211941254677959,-7.011350009848336
1621785622333.495,-0.028,0.052,0.047,0.08554446523537523,-6.206060124089029,-6.998968682292693
1621785622338.097,-0.026,0.049,0.051,0.0734784321449675,-6.200181800275754,-6.9865932637384285
1621785622339.805,-0.02674275400785646,0.05011413101178469,0.05025724599214354,0.069,-6.198,-6.982
1621785622342.696,-0.028,0.052,0.049,0.069,-6.198,-6.976352977932713
1621785622347.292,-0.035,0.051,0.049,0.069,-6.198,-6.967376015391193
1621785622351.886,-0.042,0.051,0.051,0.069,-6.198,-6.9584028677607135
1621785622354.652,-0.042,0.051,0.05160237120527407,0.069,-6.198,-6.953
1621785622356.478,-0.042,0.051,0.052,0.06407166155975091,-6.200340960759118,-6.954232084610062
1621785622361.066,-0.044,0.044,0.051,0.05168854403479292,-6.206222941583474,-6.957327863991302
1621785622365.653,-0.047,0.038,0.052,0.03930740338044875,-6.212103983394287,-6.960423149154888
1621785622369.472,-0.05033233915636983,0.04299850873455475,0.05116691521090754,0.029,-6.217,-6.963
1621785622370.237,-0.051,0.044,0.051,0.026982270206022188,-6.218034733227681,-6.967035459587955
1621785622374.818,-0.052,0.044,0.051,0.014901644215530904,-6.224229926043317,-6.991196711568938
1621785622379.397,-0.052,0.047,0.054,0.0028268125990491277,-6.230422147385103,-7.015346374801902
1621785622383.973,-0.051,0.047,0.054,-0.009240293185419971,-6.236610406761754,-7.03948058637084
1621785622384.261,-0.05074807856532878,0.04681105892399658,0.053685098206660974,-0.01,-6.237,-7.041
1621785622388.547,-0.047,0.044,0.049,-0.02131821337653321,-6.237,-7.052318213376534
1621785622393.119,-0.042,0.035,0.049,-0.03339071643468774,-6.237,-7.064390716434688
1621785622397.687,-0.037,0.03,0.044,-0.045453549112308665,-6.237,-7.076453549112308
1621785622399.03,-0.037,0.03088241899262111,0.04429413966420703,-0.049,-6.237,-7.08
1621785622402.253,-0.037,0.033,0.045,-0.049,-6.232626997929606,-7.071472645962733
1621785622406.817,-0.037,0.028,0.04,-0.049,-6.226434368530021,-7.059397018633541
1621785622411.378,-0.037,0.03,0.045,-0.049,-6.220245714285714,-7.047329142857143
1621785622413.77,-0.03752479914301018,0.026326405998928763,0.043425602570969474,-0.049,-6.217,-7.041
1621785622415.936,-0.038,0.023,0.042,-0.043259320093574236,-6.217,-7.043943938413552
1621785622420.493,-0.038,0.021,0.04,-0.031182021800806335,-6.217,-7.050137424717535
1621785622425.046,-0.037,0.023,0.038,-0.019115076402369223,-6.217,-7.0563256018449385
1621785622428.485,-0.037,0.01619870178638485,0.03951139960302559,-0.01,-6.217,-7.061
1621785622429.597,-0.037,0.014,0.04,-0.014465744772795268,-6.217,-7.062438121198019
1621785622434.146,-0.038,0.01,0.037,-0.03273764252235482,-6.217,-7.068322291659741
1621785622438.691,-0.04,0.005,0.033,-0.05099286972708839,-6.217,-7.0742010936409265
1621785622443.174,-0.037040294417879975,6.715736313329338e-05,0.033,-0.069,-6.217,-7.08
1621785622443.235,-0.037,0.0,0.033,-0.06916234036530745,-6.216920911104081,-7.080245591834696
1621785622447.776,-0.035,0.002,0.03,-0.08123981418272033,-6.21103701360329,-7.098516641968731
1621785622452.314,-0.031,-0.005,0.03,-0.09331014502405968,-6.20515659601392,-7.1167768860620395
1621785622456.849,-0.028,-0.012,0.024,-0.10537268352786426,-6.199279974691554,-7.135025341747282
1621785622457.837,-0.026474934036939315,-0.013089332830757633,0.022474934036939315,-0.108,-6.198,-7.139
1621785622461.383,-0.021,-0.017,0.017,-0.10315389106681125,-6.207449912419718,-7.134396196513471
1621785622465.914,-0.016,-0.021,0.017,-0.0969618817249145,-6.219524330636417,-7.128513787638669
1621785622470.442,-0.012,-0.017,0.01,-0.09077420969221786,-6.231590291100176,-7.1226354992076075
1621785622472.472,-0.007963374507794378,-0.017,0.009551486056421598,-0.088,-6.237,-7.12
1621785622474.968,-0.003,-0.017,0.009,-0.08475347204813236,-6.237,-7.12
1621785622479.491,0.0,-0.024,0.005,-0.07887072783487925,-6.237,-7.12
1621785622484.011,0.009,-0.028,0.0,-0.07299179410044289,-6.237,-7.12
1621785622487.08,0.01103743922204214,-0.02664170718530524,-0.0013582928146947597,-0.069,-6.237,-7.12
1621785622488.53,0.012,-0.026,-0.002,-0.06502230296535673,-6.231132896873901,-7.114132896873901
1621785622493.045,0.017,-0.03,-0.005,-0.05263645496709811,-6.21286377107647,-7.09586377107647
1621785622497.558,0.024,-0.03,-0.005,-0.040255295279875425,-6.194601560537817,-7.077601560537817
1621785622501.661,0.025819018238891593,-0.032728527358337395,-0.005,-0.029,-6.178,-7.061
1621785622502.069,0.026,-0.033,-0.005,-0.029,-6.176906309751434,-7.057410452517527
1621785622506.576,0.028,-0.03,-0.009,-0.029,-6.164831236791788,-7.0177794438294585
1621785622511.082,0.031,-0.033,-0.012,-0.029,-6.152758126195029,-6.978154875717017
1621785622515.585,0.031,-0.028,-0.016,-0.029,-6.140693519170776,-6.938558216765624
1621785622516.217,0.029876302083333334,-0.029685546875,-0.016,-0.029,-6.139,-6.933
1621785622520.085,0.023,-0.04,-0.016,-0.034324751709882875,-6.1363376241450585,-6.912233468331457
1621785622524.583,0.017,-0.044,-0.016,-0.04051696439074395,-6.133241517804628,-6.888083838876099
1621785622529.078,0.007,-0.042,-0.017,-0.04670480783773338,-6.130147596081133,-6.86395124943284
1621785622530.745,0.005515757444033906,-0.04274212127798305,-0.019226363833949142,-0.049,-6.129,-6.855
1621785622533.571,0.003,-0.044,-0.023,-0.049,-6.1385464720931795,-6.858701693260621
1621785622538.061,0.002,-0.044,-0.017,-0.049,-6.153714434794318,-6.8645831481855515
1621785622542.549,-0.002,-0.051,-0.024,-0.049,-6.168875799501784,-6.870462044704773
1621785622545.25,-0.006215623298856832,-0.04557991290146979,-0.024,-0.049,-6.178,-6.874
1621785622547.034,-0.009,-0.042,-0.024,-0.046535498667745964,-6.185270278930149,-6.887308307194171
1621785622551.516,-0.007,-0.044,-0.024,-0.04034338426253837,-6.2035370164255115,-6.920745724982293
1621785622555.997,0.002,-0.042,-0.026,-0.0341529562548484,-6.221798779048197,-6.954174036223819
1621785622559.727,-0.0013325335369178755,-0.03783433307885266,-0.030165666921147343,-0.029,-6.237,-6.982
1621785622560.474,-0.002,-0.037,-0.031,-0.026983678848395764,-6.232967357696792,-6.982
1621785622564.949,0.0,-0.042,-0.031,-0.014906178721678749,-6.208812357443358,-6.982
1621785622569.422,0.007,-0.049,-0.035,-0.0028332910943281477,-6.184666582188656,-6.982
1621785622573.892,0.003,-0.047,-0.038,0.009231030462770542,-6.160537939074459,-6.982
1621785622574.177,0.002681077831219939,-0.04655350896370791,-0.037936215566243985,0.01,-6.159,-6.982
1621785622578.359,-0.002,-0.04,-0.037,0.021305505254785154,-6.159,-6.956490141989203
1621785622582.824,-0.009,-0.042,-0.037,0.03337663524513869,-6.159,-6.929252720472507
1621785622587.286,-0.016,-0.047,-0.038,0.045439184958283266,-6.159,-6.90203465958131
1621785622588.603,-0.01836247194701407,-0.044342219059609174,-0.03770469100662324,0.049,-6.159,-6.894
1621785622591.746,-0.024,-0.038,-0.037,0.03830186887358817,-6.154633415866771,-6.909064715259642
1621785622596.204,-0.031,-0.037,-0.037,0.023128039887392735,-6.148440016280569,-6.930431943832039
1621785622600.658,-0.038,-0.035,-0.031,0.007968337686124205,-6.142252382729031,-6.951779279584845
1621785622602.999,-0.036422515902610225,-0.0376291401623163,-0.03310331212985304,0.0,-6.139,-6.963
1621785622605.11,-0.035,-0.04,-0.035,-0.004260040092416418,-6.139,-6.983125016988312
1621785622609.561,-0.04,-0.028,-0.037,-0.013241743680347922,-6.139,-7.0255558235933675
1621785622614.007,-0.031,-0.03,-0.031,-0.022213594047295462,-6.139,-7.06794008222343
1621785622617.37,-0.023433813028671868,-0.03378309348566407,-0.035539712182796876,-0.029,-6.139,-7.1
1621785622618.452,-0.021,-0.035,-0.037,-0.029,-6.1368131924235465,-7.1
1621785622622.895,-0.019,-0.031,-0.037,-0.029,-6.1278315379248145,-7.1
1621785622627.334,-0.014,-0.035,-0.037,-0.029,-6.118858273344566,-7.1
1621785622631.716,-0.009061901617695609,-0.036975239352921754,-0.037,-0.029,-6.11,-7.1
1621785622631.771,-0.009,-0.037,-0.037,-0.02885040658722447,-6.109923285429346,-7.09977369201657
1621785622636.206,-0.017,-0.038,-0.04,-0.016772566869534086,-6.103729521471556,-7.0815020883410895
1621785622640.637,-0.016,-0.028,-0.035,-0.004706029765253413,-6.097541553725771,-7.063247583491025
1621785622645.066,-0.017,-0.033,-0.04,0.007355188462128574,-6.091356313609165,-7.045001125147037
1621785622646.037,-0.018535314550366656,-0.03256133869989524,-0.039342008049842864,0.01,-6.09,-7.041
1621785622649.494,-0.024,-0.031,-0.037,0.01,-6.085558518146742,-7.036780592239405
1621785622654.281,-0.026,-0.031,-0.04,0.01,-6.079407760594749,-7.0309373725650115
1621785622659.328,-0.037,-0.035,-0.033,0.01,-6.072923241005051,-7.0247770789547985
1621785622661.603,-0.04017173141440171,-0.03409379102445666,-0.03390620897554335,0.01,-6.07,-7.022
1621785622664.349,-0.044,-0.033,-0.035,0.008299416407124068,-6.07,-7.0318633848386805
1621785622669.347,-0.047,-0.03,-0.035,0.005204408696440991,-6.07,-7.049814429560643
1621785622674.344,-0.047,-0.03,-0.038,0.0021098545553506105,-6.07,-7.067762843578967
1621785622677.751,-0.049726118382496576,-0.032044588786872434,-0.03731847040437585,0.0,-6.07,-7.08
1621785622679.343,-0.051,-0.033,-0.037,-0.00867600012095189,-6.07,-7.08
1621785622684.339,-0.049,-0.04,-0.035,-0.03590275467932629,-6.07,-7.08
1621785622689.336,-0.051,-0.03,-0.04,-0.06313350065011641,-6.07,-7.08
1621785622693.899,-0.0555656634746922,-0.032739398084815324,-0.037260601915184675,-0.088,-6.07,-7.08
1621785622694.333,-0.056,-0.033,-0.037,-0.089048570996522,-6.0694891577196435,-7.078440586723121
1621785622699.33,-0.049,-0.04,-0.044,-0.10111952215333433,-6.063608437925299,-7.060488915771964
1621785622704.325,-0.054,-0.037,-0.042,-0.11318516558294268,-6.057730303946772,-7.042545138363829
1621785622709.322,-0.063,-0.037,-0.042,-0.12525611673975504,-6.051849584152428,-7.024593467412672
1621785622710.044,-0.06328899530883503,-0.0359885164190774,-0.04228899530883503,-0.127,-6.051,-7.022
1621785622714.318,-0.065,-0.03,-0.044,-0.14262037625139884,-6.040409914405831,-7.016704957202916
1621785622719.313,-0.072,-0.035,-0.044,-0.1608746332758673,-6.028034146931615,-7.010517073465808
1621785622724.309,-0.077,-0.035,-0.047,-0.1791333514805069,-6.01565535492847,-7.004327677464235
1621785622726.188,-0.07775248105597653,-0.03688120263994134,-0.048504962111953064,-0.186,-6.011,-7.002
1621785622729.303,-0.079,-0.04,-0.051,-0.19738696697877747,-6.014859988806365,-7.005859988806365
1621785622734.298,-0.082,-0.038,-0.047,-0.21564681057042157,-6.021049766295058,-7.012049766295058
1621785622739.293,-0.087,-0.04,-0.054,-0.233905761696592,-6.027239241253082,-7.018239241253082
1621785622742.328,-0.08821538912788424,-0.04546925107547908,-0.054,-0.245,-6.031,-7.022
1621785622744.287,-0.089,-0.049,-0.054,-0.2521636608466729,-6.028571640390958,-7.031470602475262
1621785622749.281,-0.091,-0.044,-0.059,-0.27042318516052893,-6.022381971132024,-7.055610312585106
1621785622754.275,-0.093,-0.047,-0.056,-0.28868270947438496,-6.01619230187309,-7.07975002269495
1621785622758.464,-0.093,-0.051194123973406336,-0.057677649589362535,-0.304,-6.011,-7.1
1621785622759.269,-0.093,-0.052,-0.058,-0.3059461042499092,-6.0129960043588815,-7.09805389575009
1621785622764.262,-0.086,-0.063,-0.059,-0.3180176171449328,-6.025377043225572,-7.085982382855067
1621785622769.255,-0.091,-0.065,-0.068,-0.33008913003995644,-6.037758082092263,-7.073910869960043
1621785622774.248,-0.094,-0.063,-0.068,-0.3421612332001453,-6.050139726359124,-7.061838766799855
1621785622774.595,-0.09448647723382403,-0.0631389934953783,-0.06786100650462171,-0.343,-6.051,-7.061
1621785622779.24,-0.101,-0.065,-0.066,-0.3205368500718989,-6.06223157496405,-7.061
1621785622784.233,-0.096,-0.066,-0.059,-0.2963912661772497,-6.074304366911375,-7.061
1621785622789.225,-0.099,-0.068,-0.056,-0.27224922424884584,-6.086375387875577,-7.061
1621785622790.724,-0.10020115420355065,-0.0695014427544383,-0.05479884579644936,-0.265,-6.09,-7.061
1621785622794.217,-0.103,-0.073,-0.052,-0.27344645776566756,-6.100612216167121,-7.082224432334241
1621785622799.209,-0.105,-0.079,-0.051,-0.2855178019981835,-6.115778776869512,-7.112557553739025
1621785622804.2,-0.103,-0.077,-0.051,-0.2975867847411444,-6.130942370572207,-7.142884741144414
1621785622806.852,-0.10406255196361323,-0.07965637990903311,-0.04887489607277351,-0.304,-6.139,-7.159
1621785622809.192,-0.105,-0.082,-0.047,-0.304,-6.150317628535094,-7.164658814267547
1621785622814.182,-0.099,-0.087,-0.042,-0.304,-6.1744537939805,-7.1767268969902505
1621785622819.173,-0.096,-0.093,-0.044,-0.304,-6.198595863864834,-7.188797931932418
1621785622822.978,-0.08837487156905914,-0.09376251284309409,-0.044,-0.304,-6.217,-7.198
1621785622824.163,-0.086,-0.094,-0.044,-0.304,-6.219940036341611,-7.198
1621785622829.154,-0.079,-0.094,-0.045,-0.304,-6.23232222895215,-7.198
1621785622834.143,-0.075,-0.094,-0.045,-0.304,-6.244699576014536,-7.198
1621785622839.101,-0.0680448652086697,-0.10294231616028181,-0.04400640931552424,-0.304,-6.257,-7.198
1621785622839.133,-0.068,-0.103,-0.044,-0.3040396807366683,-6.257077377436503,-7.197805564390325
1621785622844.123,-0.056,-0.101,-0.042,-0.3102307843760886,-6.269150029533373,-7.167469156557166
1621785622849.112,-0.049,-0.108,-0.044,-0.3164206763899617,-6.281220318960425,-7.137138685689187
1621785622854.1,-0.049,-0.105,-0.045,-0.32260935677828767,-6.293288245717661,-7.1068141517863905
1621785622855.221,-0.0481015216008611,-0.105,-0.045,-0.324,-6.296,-7.1
1621785622859.09,-0.045,-0.105,-0.045,-0.324,-6.286638676844784,-7.090638676844783
1621785622864.078,-0.045,-0.098,-0.045,-0.324,-6.274570792439113,-7.078570792439113
1621785622869.067,-0.042,-0.094,-0.045,-0.324,-6.262499954561977,-7.066499954561977
1621785622871.34,-0.04336745483918344,-0.09491163655945563,-0.04682327311891125,-0.324,-6.257,-7.061
1621785622874.054,-0.045,-0.096,-0.049,-0.33713331010769626,-6.2536324845877695,-7.044499174480074
1621785622879.042,-0.044,-0.099,-0.047,-0.3612720883382057,-6.247443054272255,-7.014170965934049
1621785622884.029,-0.049,-0.099,-0.044,-0.3854061406564777,-6.241254835729109,-6.983848695072631
1621785622887.458,-0.049,-0.10174974303754099,-0.04468743575938525,-0.402,-6.237,-6.963
1621785622889.017,-0.049,-0.103,-0.045,-0.396291908433954,-6.235065053706425,-6.956324435287167
1621785622894.003,-0.049,-0.099,-0.044,-0.3780378141712243,-6.228877225142788,-6.934976426742618
1621785622898.99,-0.051,-0.098,-0.044,-0.3597792506855334,-6.222687881588316,-6.913623191479692
1621785622903.573,-0.04916204043667695,-0.098,-0.040324080873353894,-0.343,-6.217,-6.894
1621785622903.977,-0.049,-0.098,-0.04,-0.3439780286385333,-6.217,-6.892043942722934
1621785622908.963,-0.056,-0.094,-0.042,-0.3560464883703311,-6.217,-6.867907023259338
1621785622913.949,-0.058,-0.08,-0.037,-0.3681155390559891,-6.217,-6.843768921888022
1621785622918.935,-0.059,-0.077,-0.042,-0.3801845897416471,-6.217,-6.819630820516705
1621785622919.685,-0.05960182192183367,-0.07805318836320893,-0.041247722597707905,-0.382,-6.217,-6.816
1621785622923.92,-0.063,-0.084,-0.037,-0.3872577975811585,-6.222257797581158,-6.805484404837683
1621785622928.905,-0.058,-0.075,-0.035,-0.3934470613197539,-6.228447061319754,-6.793105877360492
1621785622933.891,-0.066,-0.073,-0.035,-0.39963753751023007,-6.23463753751023,-6.780724924979539
1621785622935.794,-0.0667635936122269,-0.0737635936122269,-0.0342364063877731,-0.402,-6.237,-6.776
1621785622938.875,-0.068,-0.075,-0.033,-0.422656229634906,-6.233174772289832,-6.776
1621785622943.86,-0.075,-0.061,-0.031,-0.4560777472985466,-6.226985602352121,-6.776
1621785622948.845,-0.084,-0.056,-0.026,-0.4894976281769547,-6.220796735522786,-6.776
1621785622951.903,-0.08706784227283859,-0.056,-0.026,-0.51,-6.217,-6.776
1621785622953.829,-0.089,-0.056,-0.026,-0.51,-6.2123359154716065,-6.785447760967771
1621785622958.812,-0.101,-0.047,-0.031,-0.51,-6.2002692447624534,-6.809890504199133
1621785622963.796,-0.113,-0.047,-0.03,-0.51,-6.188200209198678,-6.834338037777037
1621785622968.008,-0.11807068332108743,-0.04530977222630419,-0.030845113886847905,-0.51,-6.178,-6.855
1621785622968.78,-0.119,-0.045,-0.031,-0.5090412080414809,-6.180828436277631,-6.859698080596744
1621785622973.762,-0.127,-0.042,-0.037,-0.5028536341308105,-6.199081779314109,-6.890017192759029
1621785622978.746,-0.134,-0.038,-0.037,-0.4966633312107705,-6.217343172928227,-6.920349677067225
1621785622983.728,-0.136,-0.033,-0.035,-0.49047575730010007,-6.235596515964705,-6.95066878922951
1621785622984.111,-0.13630755660099972,-0.03284622169950015,-0.03576889150249927,-0.49,-6.237,-6.953
1621785622988.71,-0.14,-0.031,-0.045,-0.49571328915242413,-6.237,-7.006133589117545
1621785622993.693,-0.141,-0.023,-0.047,-0.5019039747653206,-6.237,-7.063706965317481
1621785622998.675,-0.141,-0.021,-0.052,-0.5080931438710362,-6.237,-7.121266238000637
1621785623000.21,-0.141,-0.019459219684344675,-0.05415709244191746,-0.51,-6.237,-7.139
1621785623003.656,-0.141,-0.016,-0.059,-0.49737094719602076,-6.245348017955172,-7.1809541415183045
1621785623008.638,-0.138,-0.005,-0.066,-0.4791131752145825,-6.257416714688666,-7.241607078948166
1621785623013.619,-0.133,-0.002,-0.072,-0.46085898213581633,-6.269483045706833,-7.302248127142034
1621785623016.309,-0.12921878523457034,0.00016069415167410195,-0.07578121476542968,-0.451,-6.276,-7.335
1621785623018.599,-0.126,0.002,-0.079,-0.43563531160420427,-6.276,-7.355913048094277
1621785623023.581,-0.11,0.002,-0.086,-0.4022097432241821,-6.276,-7.40140896061153
1621785623028.561,-0.096,0.005,-0.093,-0.36879727905601145,-6.276,-7.446887036840429
1621785623032.406,-0.08519080301990392,0.011948769487204629,-0.09763251299146976,-0.343,-6.276,-7.482
1621785623033.541,-0.082,0.014,-0.099,-0.3374988091084243,-6.266337651895565,-7.488982280747
1621785623038.521,-0.07,0.012,-0.105,-0.3133617276271675,-6.223943034422076,-7.519617807242441
1621785623043.501,-0.059,0.023,-0.113,-0.2892246461459108,-6.181548416948587,-7.550253333737883
1621785623048.48,-0.042,0.016,-0.122,-0.2650922978897705,-6.139162112960238,-7.580882852678369
1621785623048.499,-0.04194646533973919,0.016026767330130406,-0.12201529561721737,-0.265,-6.139,-7.581
1621785623053.46,-0.028,0.023,-0.126,-0.18638251225174104,-6.1177270327269415,-7.538454065453884
1621785623058.438,-0.012,0.024,-0.129,-0.10749419654371939,-6.096380782594183,-7.495761565188365
1621785623063.418,-0.002,0.028,-0.131,-0.028574929068867688,-6.075026157277459,-7.453052314554916
1621785623064.59,0.0008255026974006868,0.028,-0.131,-0.01,-6.07,-7.443
1621785623068.396,0.01,0.028,-0.131,0.050321623672230656,-6.046817572078908,-7.3803128224582695
1621785623073.374,0.014,0.035,-0.127,0.12922071320182094,-6.0164955690440065,-7.298319650986342
1621785623078.353,0.023,0.047,-0.122,0.20813528072837634,-5.986167617602428,-7.216310394537177
1621785623080.679,0.01785936426959678,0.04886932208378299,-0.11779402531148828,0.245,-5.972,-7.178
1621785623083.33,0.012,0.051,-0.113,0.2886826006436335,-5.933262599429231,-7.15871371971583
1621785623088.307,0.012,0.066,-0.105,0.3706855303904305,-5.860543020219807,-7.122508652620074
1621785623093.285,0.014,0.086,-0.093,0.45270857368389095,-5.7878056044690025,-7.086294705203716
1621785623096.762,0.00771244972039635,0.08809585009320121,-0.0839179829294614,0.51,-5.737,-7.061
1621785623098.262,0.005,0.089,-0.08,0.5419922273500122,-5.723289045421423,-7.045423609424338
1621785623103.239,0.007,0.105,-0.063,0.6481435207675492,-5.677795633956765,-6.9937406181685695
1621785623108.215,-0.002,0.122,-0.042,0.754273985912072,-5.632311148894826,-6.942067767792082
1621785623112.844,-0.013161147902869758,0.13874172185430464,-0.025258278145695364,0.853,-5.59,-6.894
1621785623113.192,-0.014,0.14,-0.024,0.8602258152668975,-5.588290899981781,-6.893567316451084
1621785623118.167,-0.024,0.157,0.0,0.9635575089573085,-5.5638501700370435,-6.887379789882796
1621785623123.144,-0.033,0.166,0.028,1.0669297686281654,-5.539399845144835,-6.881189834213882
1621785623128.119,-0.045,0.187,0.051,1.170256391571021,-5.5149603145685315,-6.875002611283172
1621785623128.925,-0.04597222494847384,0.19007871233683385,0.055537049759544606,1.187,-5.511,-6.874
1621785623133.094,-0.051,0.206,0.079,1.2606403310302938,-5.546782977754157,-6.894484458279553
1621785623138.07,-0.056,0.225,0.099,1.3485378027484627,-5.58949372105383,-6.918934811327917
1621785623143.044,-0.059,0.251,0.12,1.4363964619239238,-5.632185604737681,-6.943374367929542
1621785623145.003,-0.059,0.2647815291000098,0.12905643340857786,1.471,-5.649,-6.953
1621785623148.019,-0.059,0.286,0.143,1.482072751302657,-5.716937897823081,-6.958442538775882
1621785623152.994,-0.056,0.3,0.173,1.5003364273018671,-5.828996384462303,-6.96741959986024
1621785623157.968,-0.052,0.326,0.187,1.5185974144348064,-5.941038373311863,-6.976395339298464
1621785623161.074,-0.0588703421866562,0.3447372968726987,0.19137203593696303,1.53,-6.011,-6.982
1621785623162.941,-0.063,0.356,0.194,1.5094394889945466,-6.0509594112196385,-7.007090793091401
1621785623167.916,-0.075,0.379,0.199,1.4546491014871412,-6.1574446841153865,-7.07395363886315
1621785623172.888,-0.082,0.4,0.199,1.3998936671173157,-6.263862025489511,-7.140773829958531
1621785623177.146,-0.087993470790378,0.42483009327442317,0.20156863033873346,1.353,-6.355,-7.198
1621785623177.861,-0.089,0.429,0.202,1.3285675605864924,-6.370264711691864,-7.2054320899491
1621785623182.835,-0.087,0.449,0.209,1.158624887943478,-6.476440188406898,-7.257126855580036
1621785623187.807,-0.087,0.475,0.201,0.9887489478082505,-6.582573972498671,-7.308801321887108
1621785623192.779,-0.087,0.492,0.185,0.8188646661095496,-6.6887129681683515,-7.360478325609663
1621785623193.214,-0.08656257057292945,0.4929623447395552,0.18360022583337424,0.804,-6.698,-7.365
1621785623197.752,-0.082,0.503,0.169,0.6461000425518981,-6.817201756785509,-7.351159037719218
1621785623202.724,-0.058,0.503,0.147,0.4730871554056108,-6.947812558888788,-7.335993328470259
1621785623207.695,-0.035,0.496,0.131,0.3001167441719097,-7.078391295097414,-7.320831342512386
1621785623209.279,-0.026079597348391853,0.49408848514608394,0.1252654554382519,0.245,-7.12,-7.316
1621785623212.667,-0.007,0.49,0.113,0.12097391700866392,-7.157123453412373,-7.249768384252926
1621785623217.638,0.01,0.464,0.098,-0.06100310077519383,-7.2115927648578815,-7.152590180878553
1621785623222.61,0.037,0.435,0.077,-0.24302480620155043,-7.266075452196382,-7.0553881136950904
1621785623225.341,0.03974745787689738,0.42236169376627203,0.05886677801247728,-0.343,-7.296,-7.002
1621785623227.58,0.042,0.412,0.044,-0.4072625170998632,-7.313842954856361,-6.94596196990424
1621785623232.55,0.037,0.393,0.007,-0.5499069463444293,-7.353449217206263,-6.821573552211582
1621785623237.52,0.044,0.354,-0.028,-0.6925513755889954,-7.393055479556164,-6.697185134518923
1621785623241.403,0.053373802858405775,0.32665974166298317,-0.05221565738421492,-0.804,-7.424,-6.6
1621785623242.491,0.056,0.319,-0.059,-0.8205993097051802,-7.412685368486674,-6.590040414176891
1621785623247.46,0.066,0.293,-0.098,-0.8964174763186303,-7.361005230427709,-6.544549514208821
1621785623252.429,0.079,0.265,-0.138,-0.9722356429320804,-7.309325092368745,-6.499058614240752
1621785623257.399,0.079,0.25,-0.187,-1.0480687101826087,-7.257634797548997,-6.453558773890435
1621785623257.46,0.07884031838058271,0.2496683535596718,-0.18751589446273276,-1.049,-7.257,-6.453
1621785623262.368,0.066,0.223,-0.229,-0.9022560792006934,-7.127987636297276,-6.342024909895525
1621785623267.336,0.04,0.204,-0.265,-0.7537164560427025,-6.997396550937543,-6.229691819882294
1621785623272.306,0.009,0.195,-0.29,-0.6051184360600392,-6.866754125036118,-6.117314567270404
1621785623273.514,0.0017052926433731384,0.19256843088112438,-0.29583576588530147,-0.569,-6.835,-6.09
1621785623277.274,-0.021,0.185,-0.314,-0.4059793621583806,-6.759345307438444,-6.030272611135613
1621785623282.241,-0.052,0.187,-0.325,-0.19062614633552838,-6.659404088026402,-5.951371648441896
1621785623287.21,-0.08,0.18,-0.335,0.024811750034218982,-6.5594235700272225,-5.8724396605478075
1621785623289.567,-0.0923373801916933,0.18237257311378716,-0.3359490292455149,0.127,-6.512,-5.835
1621785623292.177,-0.106,0.185,-0.337,0.21156397073363653,-6.470531129736389,-5.8572793538279
1621785623297.144,-0.138,0.183,-0.346,0.3724894206051018,-6.391615764895574,-5.899677020428652
1621785623302.112,-0.162,0.18,-0.347,0.533446509788412,-6.31268488462299,-5.942083022771178
1621785623305.617,-0.17964503441494592,0.1785883972468043,-0.351234808259587,0.647,-6.257,-5.972
1621785623307.078,-0.187,0.178,-0.353,0.6782268861537526,-6.260550578892118,-5.989024570585283
1621785623312.044,-0.201,0.183,-0.353,0.7843742944514598,-6.272619817736463,-6.0468950235056065
1621785623317.011,-0.211,0.185,-0.358,0.8905425763361682,-6.284691429962422,-6.104776856486482
1621785623321.664,-0.2175588220834767,0.18781092375006145,-0.36455882208347673,0.99,-6.296,-6.159
1621785623321.977,-0.218,0.188,-0.365,0.9963210372534697,-6.299823837350865,-6.159760865595325
1621785623326.943,-0.222,0.187,-0.356,1.09661449963477,-6.360495191137083,-6.171833226807889
1621785623331.909,-0.216,0.183,-0.358,1.1969030314097882,-6.421163562210859,-6.183904994521549
1621785623336.874,-0.216,0.182,-0.356,1.2971767713659605,-6.48182298514731,-6.1959749817384955
1621785623337.707,-0.21700644019468068,0.1821677400324468,-0.35449033970797894,1.314,-6.492,-6.198
1621785623341.84,-0.222,0.183,-0.347,1.4075289632290273,-6.550230153415317,-6.198
1621785623346.804,-0.222,0.18,-0.333,1.5198587452818701,-6.620165499817363,-6.198
1621785623351.769,-0.232,0.183,-0.323,1.63221615122367,-6.690118044563497,-6.198
1621785623353.748,-0.23558743115656963,0.17981117230527144,-0.31582513768686077,1.677,-6.718,-6.198
1621785623356.734,-0.241,0.175,-0.305,1.677,-6.763606544901066,-6.24546803652968
1621785623361.698,-0.251,0.162,-0.284,1.677,-6.839429756468798,-6.324386073059361
1621785623366.661,-0.255,0.154,-0.271,1.677,-6.9152343226788435,-6.403284703196348
1621785623369.788,-0.2537400777061919,0.14518054394334334,-0.2609206216495352,1.677,-6.963,-6.453
1621785623371.625,-0.253,0.14,-0.255,1.6646285796933757,-6.976402371998843,-6.489999710731849
1621785623376.589,-0.244,0.129,-0.241,1.6311958193139777,-7.012621195743191,-6.589988429273937
1621785623381.552,-0.237,0.112,-0.23,1.5977712802399402,-7.0488311130733985,-6.6899525600231415
1621785623385.824,-0.2387215663124754,0.09822746950019677,-0.21794903581267216,1.569,-7.08,-6.776
1621785623386.515,-0.239,0.096,-0.216,1.5664581354280842,-7.08594537815126,-6.786598282791378
1621785623391.478,-0.229,0.077,-0.206,1.5481989252222628,-7.128653361344538,-6.86272990500548
1621785623396.44,-0.229,0.058,-0.194,1.5299442059432469,-7.171350840336134,-6.938842802338327
1621785623401.403,-0.215,0.045,-0.185,1.5116849957374254,-7.214058823529411,-7.01497442455243
1621785623401.861,-0.21287657480314962,0.04453838582677165,-0.18435374015748032,1.51,-7.218,-7.022
1621785623406.364,-0.192,0.04,-0.178,1.4383777239709443,-7.184857142857143,-7.098958837772397
1621785623411.325,-0.175,0.023,-0.185,1.3594705103019782,-7.148343216531895,-7.183745412459835
1621785623416.288,-0.141,0.009,-0.187,1.2805283475718396,-7.11181311769991,-7.268569540256141
1621785623417.893,-0.1338824803149606,0.0009119094488188959,-0.18732352362204724,1.255,-7.1,-7.296
1621785623421.249,-0.119,-0.016,-0.188,1.2160600831569166,-7.069224904430467,-7.275483269620311
1621785623426.21,-0.084,-0.033,-0.202,1.1584972204876711,-7.023731674256386,-7.245154449504257
1621785623431.171,-0.054,-0.054,-0.213,1.1009343578184254,-6.978238444082304,-7.214825629388203
1621785623433.923,-0.039573755967908644,-0.06065826647634986,-0.21799369985726239,1.069,-6.953,-7.198
1621785623436.131,-0.028,-0.066,-0.222,1.082500563594821,-6.944872109672506,-7.156120700685453
1621785623441.092,0.0,-0.077,-0.222,1.1128335415079968,-6.926610418888043,-7.0620265651180505
1621785623446.052,0.021,-0.094,-0.225,1.1431605483625287,-6.908352322924601,-6.9679509520182785
1621785623449.951,0.03200728633320205,-0.10657975580937377,-0.22657246947617174,1.167,-6.894,-6.894
1621785623451.011,0.035,-0.11,-0.227,1.1579369391330845,-6.883613864553973,-6.867406200959854
1621785623455.971,0.044,-0.131,-0.234,1.115531332368401,-6.835017658261599,-6.7429751504532645
1621785623460.93,0.047,-0.136,-0.234,1.0731340748076483,-6.786431020035042,-6.618568599070618
1621785623465.889,0.054,-0.159,-0.241,1.0307368172468958,-6.737844381808486,-6.494162047687971
1621785623465.975,0.05420854667191808,-0.15939971445450965,-0.24108689444663253,1.03,-6.737,-6.492
1621785623470.848,0.066,-0.182,-0.246,0.9761718269084261,-6.737,-6.432393661435319
1621785623475.806,0.072,-0.201,-0.248,0.9214024226725583,-6.737,-6.37174505561481
1621785623480.764,0.089,-0.22,-0.253,0.8666330184366905,-6.737,-6.311096449794301
1621785623481.998,0.09596829460417487,-0.2257239562820008,-0.2507601910200867,0.853,-6.737,-6.296
1621785623485.723,0.117,-0.243,-0.244,0.8439309099222679,-6.746069090077732,-6.264141914342326
1621785623490.681,0.138,-0.265,-0.246,0.8318593964334705,-6.758140603566529,-6.221736854138089
1621785623495.639,0.164,-0.269,-0.239,0.819787882944673,-6.770212117055327,-6.1793317939338515
1621785623498.016,0.1774276989755713,-0.28722330575256105,-0.23564307525610717,0.814,-6.776,-6.159
1621785623500.596,0.192,-0.307,-0.232,0.8583023645815864,-6.769717119204793,-6.100520878752306
1621785623505.553,0.22,-0.33,-0.222,0.9434273016937782,-6.757644855396155,-5.988155961764213
1621785623510.509,0.244,-0.353,-0.204,1.0285354687237966,-6.74557496989008,-5.875813181284588
1621785623514.03,0.25820326964742957,-0.3650727792003151,-0.19192722079968486,1.089,-6.737,-5.796
1621785623515.467,0.264,-0.37,-0.187,1.1285780437600061,-6.716807120530609,-5.750229473202714
1621785623520.423,0.283,-0.377,-0.166,1.2650772432720896,-6.647164671799954,-5.592373256079896
1621785623525.379,0.288,-0.389,-0.138,1.401569718685675,-6.577525653731798,-5.4345248151254095
1621785623530.042,0.283295566502463,-0.3908817733990148,-0.10789162561576354,1.53,-6.512,-5.286
1621785623530.335,0.283,-0.391,-0.106,1.5314273297040122,-6.507333729813806,-5.276850450615306
1621785623535.29,0.265,-0.398,-0.08,1.5555682327645364,-6.428411546731323,-5.122101072022202
1621785623540.245,0.241,-0.401,-0.058,1.5797091358250608,-6.34948936364884,-4.967351693429098
1621785623545.201,0.202,-0.415,-0.031,1.603853607209845,-6.270555514890892,-4.812579440962532
1621785623546.052,0.19547319668900276,-0.4186069176192353,-0.02773659834450138,1.608,-6.257,-4.786
1621785623550.156,0.164,-0.436,-0.012,1.5677472736978573,-6.266999084877602,-4.765745443453062
1621785623555.111,0.129,-0.459,0.007,1.5191470754213376,-6.2790717455959735,-4.7412905666132845
1621785623560.065,0.089,-0.482,0.024,1.470558849996187,-6.291141432166553,-4.716841714329291
1621785623562.059,0.07772935146855903,-0.49528326434062686,0.03205046323674354,1.451,-6.296,-4.707
1621785623565.019,0.061,-0.515,0.044,1.4800322127997072,-6.310423647123422,-4.895616923921664
1621785623569.974,0.028,-0.538,0.052,1.5286331523396988,-6.334569336831188,-5.21136825086938
1621785623574.927,0.0,-0.56,0.066,1.5772125404185224,-6.358704319443597,-5.5269795619547315
1621785623578.066,-0.019012668211169714,-0.5701400897126239,0.07487257849854587,1.608,-6.374,-5.727
1621785623579.88,-0.03,-0.576,0.08,1.6135541655860501,-6.3951965094814565,-6.023751132740393
1621785623584.834,-0.063,-0.574,0.099,1.6287230926482479,-6.453086088269844,-6.834205235777816
1621785623589.787,-0.096,-0.55,0.099,1.6438890295809243,-6.510964255747608,-7.644499580466522
1621785623594.069,-0.13231800029581425,-0.5162761425824582,0.10418828575654489,1.657,-6.561,-8.345
1621785623594.739,-0.138,-0.511,0.105,1.6171863786158915,-6.5810952032222625,-8.435763334553888
1621785623599.692,-0.202,-0.473,0.106,1.322835454046137,-6.7296634932259245,-9.106796777737094
1621785623604.644,-0.278,-0.401,0.099,1.0285280574880997,-6.878209813255218,-9.7777309898694
1621785623609.596,-0.332,-0.342,0.091,0.7342351702673013,-7.026748809959722,-10.448632124984742
1621785623610.071,-0.3306568724117531,-0.33777874186550977,0.0896568724117531,0.706,-7.041,-10.513
1621785623614.548,-0.318,-0.298,0.077,0.4451799536076181,-7.438946465633012,-10.806562477109022
1621785623619.499,-0.244,-0.26,0.04,0.15675320473690635,-7.879013887193261,-11.131197304968868
1621785623624.451,-0.077,-0.257,0.002,-0.13173043584421917,-8.319168111341716,-11.455896166524234
1621785623626.069,-0.0034644970414201143,-0.2658242603550296,-0.009438856015779094,-0.226,-8.463,-11.562
1621785623629.402,0.148,-0.284,-0.033,-0.20141569124177822,-8.30361867627085,-11.457829200177025
1621785623634.352,0.408,-0.316,-0.072,-0.16490478733956995,-8.066916629786196,-11.303121980252415
1621785623639.303,0.642,-0.361,-0.105,-0.12838668029972378,-7.830167884993972,-11.148384238558151
1621785623642.067,0.738598421701603,-0.3905937361282367,-0.12230954377311962,-0.108,-7.698,-11.062
1621785623644.253,0.815,-0.414,-0.136,-0.13746516552659244,-7.418490165907464,-10.644576821706607
1621785623649.203,0.92,-0.45,-0.161,-0.20418464632307015,-6.785581757796432,-9.69938417708984
1621785623654.153,0.965,-0.478,-0.175,-0.2709074178460976,-6.1526421334877135,-8.75414491384695
1621785623658.092,0.9570822495951318,-0.4922519507287628,-0.18687662560730234,-0.324,-5.649,-8.002
1621785623659.128,0.955,-0.496,-0.19,-0.37112999846790257,-5.5641660027577755,-7.863665328634902
1621785623664.06,0.899,-0.508,-0.197,-0.5955278841734334,-5.16024980848782,-7.20501884479853
1621785623668.991,0.826,-0.517,-0.211,-0.8198702313467137,-4.756433583575916,-6.546535376129922
1621785623673.922,0.728,-0.527,-0.22,-1.044223686226444,-4.352597364792401,-5.888019304427761
1621785623674.027,0.7257640766602288,-0.5270851780319913,-0.22025553409597384,-1.049,-4.344,-5.874
1621785623678.852,0.623,-0.531,-0.232,-1.3164482214286808,-4.2640381308525805,-5.701657941117872
1621785623683.782,0.52,-0.56,-0.234,-1.5897155358702815,-4.182336464926665,-5.525566092966942
1621785623688.711,0.41,-0.588,-0.243,-1.8629287192140875,-4.1006509831568305,-5.349509126576653
1621785623689.957,0.3857301500817277,-0.592550596859676,-0.24653935311308137,-1.932,-4.08,-5.305
1621785623693.64,0.314,-0.606,-0.257,-1.9932882330394788,-4.127642928325029,-5.4025986201609815
1621785623698.57,0.232,-0.654,-0.269,-2.075333614411652,-4.191421602146416,-5.533252019931008
1621785623703.498,0.162,-0.674,-0.283,-2.1573424300498276,-4.255171851284016,-5.663847190494443
1621785623705.881,0.14023472573212428,-0.6788367276150835,-0.2863857093305584,-2.197,-4.286,-5.727
1621785623708.425,0.117,-0.684,-0.29,-2.068531619947249,-4.36269754033,-5.866493651475189
1621785623713.353,0.086,-0.684,-0.288,-1.8196703674170398,-4.511271422437588,-6.1367123995583635
1621785623718.28,0.066,-0.677,-0.281,-1.5708584309636264,-4.659815862111268,-6.4068775992148685
1621785623721.802,0.0488406601576052,-0.6669903850919364,-0.268845467611637,-1.393,-4.766,-6.6
1621785623723.206,0.042,-0.663,-0.264,-1.316864622323127,-4.813551527888569,-6.620732113272381
1621785623728.133,0.002,-0.649,-0.248,-1.0496957722280174,-4.980415966128735,-6.6934837700190215
1621785623733.058,-0.037,-0.614,-0.237,-0.7826328311959256,-5.147214257225256,-6.76620658710192
1621785623737.717,-0.07767861392028555,-0.5875116002379536,-0.2171337001784652,-0.53,-5.305,-6.835
1621785623737.983,-0.08,-0.586,-0.216,-0.5157297571005509,-5.31811726074481,-6.8384422365776185
1621785623742.909,-0.127,-0.559,-0.199,-0.2513305918276534,-5.561153964186524,-6.902220021175062
1621785623747.833,-0.162,-0.527,-0.171,0.012963741541483165,-5.80409430574949,-6.9659725184514585
1621785623752.757,-0.187,-0.496,-0.143,0.2772580749106198,-6.047034647312454,-7.029725015727855
1621785623753.628,-0.1894761007536692,-0.49104779849266167,-0.13769406981356602,0.324,-6.09,-7.041
1621785623757.681,-0.201,-0.468,-0.113,0.503883447164454,-6.3098858568030085,-7.183428961706699
1621785623762.604,-0.215,-0.459,-0.084,0.7223853272964469,-6.576978098380784,-7.356435407873533
1621785623767.527,-0.251,-0.449,-0.033,0.9408872074284398,-6.84407033995856,-7.529441854040365
1621785623769.535,-0.24814501091053362,-0.43798789922634396,-0.008936520531640547,1.03,-6.953,-7.6
1621785623772.45,-0.244,-0.422,0.026,0.9742767005941142,-7.0050572928660255,-7.758188182194998
1621785623777.372,-0.218,-0.394,0.086,0.8801864627949462,-7.092957383441564,-8.02529303489461
1621785623782.294,-0.202,-0.377,0.124,0.7861008919387771,-7.180853114109826,-8.292384639002748
1621785623785.438,-0.18538899637842932,-0.3591112268690777,0.13933323411221907,0.726,-7.237,-8.463
1621785623787.215,-0.176,-0.349,0.148,0.6525639415251374,-7.205255950370074,-8.546272242867234
1621785623792.135,-0.103,-0.34,0.171,0.4492553207825312,-7.117372163017107,-8.77681245969104
1621785623797.056,-0.007,-0.333,0.185,0.24590634501397374,-7.029470931482448,-9.007398436780196
1621785623801.337,0.06173740882250781,-0.3408308440430705,0.2032719694338312,0.069,-6.953,-9.208
1621785623801.976,0.072,-0.342,0.206,0.05162656302805002,-6.9320875295708015,-9.185519094288612
1621785623806.896,0.15,-0.344,0.227,-0.08210510307536328,-6.771114227779655,-9.012472794863129
1621785623811.815,0.216,-0.34,0.236,-0.21581022458447263,-6.610172877814986,-8.83946084365111
1621785623816.734,0.274,-0.342,0.246,-0.349515346093582,-6.449231527850317,-8.66644889243909
1621785623817.23,0.2770254603206115,-0.3424033947094149,0.24761357883765944,-0.363,-6.433,-8.649
1621785623821.653,0.304,-0.346,0.262,-0.3738551697649409,-6.220071669995391,-8.340601843601167
1621785623826.57,0.314,-0.337,0.281,-0.3859224612075588,-5.983367107082501,-7.9977669995391
1621785623831.487,0.323,-0.326,0.3,-0.3979897526501767,-5.746662544169611,-7.654932155477032
1621785623833.121,0.3193451648133439,-0.3243387112787927,0.30299031969817314,-0.402,-5.668,-7.541
1621785623836.405,0.312,-0.321,0.309,-0.41212860940789575,-5.556585296513147,-7.299773731040524
1621785623841.321,0.286,-0.318,0.314,-0.4272910270004457,-5.389798702995098,-6.938660642662856
1621785623846.237,0.244,-0.304,0.319,-0.44245344459299557,-5.2230121094770485,-6.577547554285188
1621785623849.008,0.2051146971201589,-0.2893475670307845,0.3201271102284012,-0.451,-5.129,-6.374
1621785623851.154,0.175,-0.278,0.321,-0.4669444751890795,-5.099813503043719,-6.309141117874931
1621785623856.069,0.108,-0.253,0.33,-0.5034625837791306,-5.032966795794134,-6.16059287954252
1621785623860.984,0.042,-0.237,0.333,-0.5399788784357129,-4.966123408965136,-6.012052019922524
1621785623864.89,-0.00409288694615538,-0.22031119610570235,0.33617881978939007,-0.569,-4.913,-5.894
1621785623865.899,-0.016,-0.216,0.337,-0.5920695031753109,-4.916749588670368,-5.90022813033383
1621785623870.813,-0.061,-0.199,0.333,-0.7044196023557271,-4.935010348592254,-5.930559562068488
1621785623875.726,-0.113,-0.182,0.337,-0.816747374409915,-4.953267479587287,-5.960884966094137
1621785623880.64,-0.157,-0.164,0.34,-0.929091891808774,-4.97152733227746,-5.991214890901542
1621785623880.767,-0.15826858477439873,-0.1637411051480819,0.33981877360365736,-0.932,-4.972,-5.992
1621785623885.553,-0.206,-0.154,0.333,-1.0945166038606475,-5.05491663462278,-6.07190148427286
1621785623890.465,-0.239,-0.147,0.333,-1.2613193416903792,-5.140020072291009,-6.153910251480427
1621785623895.378,-0.271,-0.134,0.325,-1.428146950703684,-5.225136199338614,-6.235931246635391
1621785623896.64,-0.2779379101212965,-0.13220128256114536,0.3232012825611454,-1.471,-5.247,-6.257
1621785623900.289,-0.298,-0.127,0.318,-1.54550963136193,-5.334847775247708,-6.331279663363899
1621785623905.2,-0.323,-0.12,0.309,-1.6457813403901778,-5.4530693581143455,-6.431241891808726
1621785623910.112,-0.344,-0.105,0.309,-1.746077974029171,-5.571320327404763,-6.531228967936489
1621785623912.508,-0.3508318830490776,-0.09914410024364775,0.30314410024364774,-1.795,-5.629,-6.58
1621785623915.022,-0.358,-0.093,0.297,-1.8228884015819522,-5.680340012003139,-6.643699644522414
1621785623919.931,-0.363,-0.079,0.295,-1.877346213625102,-5.7805918932643925,-6.768086237939153
1621785623924.842,-0.358,-0.068,0.281,-1.9318284012741795,-5.8808886478001945,-6.892528507455796
1621785623928.373,-0.3450499925384271,-0.06656111028204746,0.27452499626921356,-1.971,-5.953,-6.982
1621785623929.75,-0.34,-0.066,0.272,-1.9607533487297921,-5.975924711316398,-7.00761662817552
1621785623934.659,-0.323,-0.063,0.262,-1.9242233102386452,-6.0576529330254045,-7.098941724403387
1621785623939.568,-0.297,-0.051,0.253,-1.887691454965358,-6.1393852193995375,-7.190271362586605
1621785623944.23,-0.2723036860170124,-0.04910028353977019,0.2416017012386211,-1.853,-6.217,-7.277
1621785623944.476,-0.271,-0.049,0.241,-1.8467611085450346,-6.2235492840646645,-7.2692246651270205
1621785623949.383,-0.241,-0.045,0.239,-1.722360831408776,-6.354138629715165,-7.114188498845266
1621785623954.291,-0.216,-0.019,0.229,-1.5979357967667438,-6.484753964588145,-6.959121478060046
1621785623959.197,-0.199,-0.007,0.236,-1.4735602771362588,-6.615317321016167,-6.804116166281755
1621785623960.087,-0.19773053385740585,-0.004461067714811683,0.23817622767301855,-1.451,-6.639,-6.776
1621785623964.104,-0.192,0.007,0.248,-1.4312326956843175,-6.693740227335736,-6.694143085974802
1621785623969.01,-0.19,0.031,0.26,-1.40709121153313,-6.760593568062101,-6.59417258109232
1621785623973.915,-0.182,0.051,0.267,-1.3829545328527864,-6.827433601330746,-6.49422197578782
1621785623975.938,-0.17540122442884873,0.0617230103031208,0.26493788263401524,-1.373,-6.855,-6.453
1621785623978.82,-0.166,0.077,0.262,-1.390823260256667,-6.830083809641191,-6.469004560230477
1621785623983.725,-0.138,0.101,0.251,-1.4211567733288142,-6.787678796468903,-6.49624281686669
1621785623988.629,-0.098,0.136,0.232,-1.4514827373707806,-6.745284336532684,-6.523474294781926
1621785623991.785,-0.06839667446607259,0.1482274605466222,0.22105964056354857,-1.471,-6.718,-6.541
1621785623993.533,-0.052,0.155,0.215,-1.4450663676577118,-6.7396297529322915,-6.509658929424639
1621785623998.437,-0.016,0.188,0.199,-1.3723109384873846,-6.800310876836053,-6.421733219278371
1621785624003.339,0.017,0.216,0.194,-1.2995844854425795,-6.860967833418104,-6.333842527088053
1621785624007.625,0.04322497759187332,0.231734986555124,0.178265013444876,-1.236,-6.914,-6.257
1621785624008.242,0.047,0.234,0.176,-1.236,-6.9109226630903935,-6.240561567394253
1621785624013.144,0.077,0.253,0.168,-1.236,-6.8864708040448885,-6.109945307682821
1621785624018.046,0.094,0.264,0.162,-1.236,-6.862020162782094,-5.97933555308916
1621785624022.948,0.106,0.262,0.159,-1.236,-6.837568303736589,-5.848719293377728
1621785624023.463,0.10736606875934229,0.2622101644245142,0.1577390134529148,-1.236,-6.835,-5.835
1621785624027.848,0.119,0.264,0.147,-1.290278736296776,-6.729211850686895,-5.7887523012165225
1621785624032.75,0.122,0.246,0.134,-1.3509581386743141,-6.610948933808224,-5.737050973680559
1621785624037.649,0.131,0.241,0.11,-1.411598254621706,-6.492762585380144,-5.685383119786607
1621785624039.297,0.1343635593642569,0.23965457625429723,0.09755483035224952,-1.432,-6.453,-5.668
1621785624042.549,0.141,0.237,0.073,-1.4198795169573868,-6.38849437838338,-5.6942952852449915
1621785624047.448,0.161,0.23,0.047,-1.401620537022471,-6.291319468221287,-5.733907987476673
1621785624052.347,0.176,0.234,0.017,-1.3833615570875553,-6.194144558059193,-5.773520689708355
1621785624055.127,0.18791880576185016,0.23172975128345713,0.006216318596421274,-1.373,-6.139,-5.796
1621785624057.245,0.197,0.23,-0.002,-1.3808971289282463,-6.09308957250189,-5.811660408213641
1621785624062.143,0.213,0.234,-0.014,-1.3991581017911414,-5.986928323485398,-5.847872845924806
1621785624067.041,0.216,0.229,-0.037,-1.4174190746540365,-5.880767074468906,-5.884085283635971
1621785624070.952,0.22638224149965103,0.23139590188453485,-0.043389071692092926,-1.432,-5.796,-5.913
1621785624071.938,0.229,0.232,-0.045,-1.4069474934810449,-5.794753606640848,-5.895301214300042
1621785624076.835,0.23,0.227,-0.044,-1.282534724043758,-5.7885639166190925,-5.807407615991113
1621785624081.732,0.223,0.239,-0.028,-1.1581219546064712,-5.782374226597337,-5.719514017682183
1621785624086.627,0.206,0.265,-0.009,-1.033758806375461,-5.776187005292312,-5.631655475150823
1621785624086.775,0.20527475815298693,0.2656345866161364,-0.008002792460357035,-1.03,-5.776,-5.629
1621785624091.523,0.182,0.286,0.024,-0.8120935566015897,-5.876248969827919,-5.652411436067598
1621785624096.418,0.154,0.333,0.061,-0.5874419631144379,-5.979601080330273,-5.6765475576819195
1621785624101.313,0.119,0.384,0.108,-0.36279036962728606,-6.082953190832626,-5.700683679296242
1621785624102.594,0.1124576059850374,0.39996344139650875,0.1213464837905237,-0.304,-6.11,-5.707
1621785624106.208,0.094,0.445,0.159,0.014326885671061163,-6.248939516502516,-6.074686977060113
1621785624111.101,0.063,0.524,0.232,0.44531435055111307,-6.437051776837816,-6.5725037975855995
1621785624115.994,0.037,0.611,0.321,0.876280311216771,-6.625154651270493,-7.070295779431288
1621785624118.409,0.019728723934949618,0.6411013668562306,0.3599837374039709,1.089,-6.718,-7.316
1621785624120.888,0.002,0.672,0.4,1.344143752895753,-6.771788756756757,-7.780339675675675
1621785624125.781,-0.01,0.733,0.476,1.847747366795367,-6.877957189189189,-8.696854918918918
1621785624130.672,-0.005,0.78,0.555,2.351149961389962,-6.984083243243243,-9.613004324324324
1621785624134.217,0.010214809640237514,0.773479367297041,0.6194818122848161,2.716,-7.061,-10.277
1621785624135.565,0.016,0.771,0.644,2.716,-7.062620487232169,-10.425914247756166
1621785624140.456,0.065,0.728,0.707,2.716,-7.068500733783387,-10.96627795714705
1621785624145.348,0.168,0.644,0.761,2.716,-7.07438186087467,-11.506722583535446
1621785624150.021,0.32472111832251627,0.5943079380928606,0.7944465801298053,2.716,-7.08,-12.023
1621785624150.238,0.332,0.592,0.796,2.6975527108666433,-7.067349252947266,-11.99875616878602
1621785624155.128,0.522,0.541,0.826,2.2819388142952057,-6.782330341002147,-11.452547287588263
1621785624160.018,0.7,0.504,0.836,1.866304167117319,-6.497297198745384,-10.906311135489254
1621785624164.907,0.845,0.478,0.834,1.4507732729716785,-6.212335208046847,-10.360211337896509
1621785624165.822,0.8631551061173532,0.4740695131086142,0.8325026716604245,1.373,-6.159,-10.258
1621785624169.796,0.942,0.457,0.826,1.2200414837712519,-5.833208423493045,-9.42905540958269
1621785624174.685,0.972,0.429,0.817,1.031852797527048,-5.432378902627511,-8.409184157650696
1621785624179.573,0.929,0.429,0.812,0.8437110973724884,-5.031649459041731,-7.389567542503864
1621785624181.618,0.8879924564120498,0.4432271069590848,0.8149291102562821,0.765,-4.864,-6.963
1621785624184.46,0.831,0.463,0.819,0.7403429653679654,-4.8427625541125545,-6.604663095238095
1621785624189.348,0.698,0.508,0.827,0.6979360853432282,-4.806236920222634,-5.988370408163266
1621785624194.234,0.548,0.56,0.831,0.6555461502782931,-4.7697258812615955,-5.372323979591837
1621785624197.409,0.44732199580461496,0.5989721306562781,0.8277523224453102,0.628,-4.746,-4.972
1621785624199.122,0.393,0.62,0.826,0.502316556332364,-4.791801738538638,-5.032671023324879
1621785624204.007,0.251,0.653,0.819,0.1439297778877684,-4.922405555899276,-5.205674658169895
1621785624208.893,0.108,0.682,0.773,-0.2145286456722143,-5.05303548227433,-5.378712878178556
1621785624213.193,-0.014379755061234706,0.7022498875281179,0.7254567858035491,-0.53,-5.168,-5.531
1621785624213.777,-0.031,0.705,0.719,-0.5648200423866467,-5.214809089924663,-5.574922837739585
1621785624218.663,-0.157,0.721,0.649,-0.8561467598966632,-5.606443837693177,-5.942409356001423
1621785624223.547,-0.267,0.73,0.583,-1.1473570224154201,-5.997922033321474,-6.309748975140386
1621785624228.432,-0.347,0.737,0.51,-1.4386109555558995,-6.389458936002351,-6.677143681450428
1621785624228.975,-0.35144977751112444,0.7367775111244438,0.5016566671666417,-1.471,-6.433,-6.718
1621785624233.315,-0.387,0.735,0.435,-1.5978181621220093,-6.743305611439537,-7.203540251942184
1621785624238.198,-0.391,0.716,0.374,-1.7405099972143985,-7.092451793617878,-7.749854978488966
1621785624243.08,-0.353,0.693,0.295,-1.883173295366616,-7.441528150051069,-8.296060447553314
1621785624244.751,-0.3259662,0.682734,0.2700194,-1.932,-7.561,-8.483
1621785624247.963,-0.274,0.663,0.222,-1.888020429009193,-7.503175008512087,-8.810403472931563
1621785624252.844,-0.169,0.623,0.155,-1.821185253969728,-7.4152991302194575,-9.30795422044758
1621785624257.727,-0.042,0.585,0.091,-1.7543233355000463,-7.32738808926858,-9.805704057944098
1621785624260.526,0.027972383430058027,0.564925955573344,0.06060216129677806,-1.716,-7.277,-10.091
1621785624262.607,0.08,0.55,0.038,-1.6384011147236415,-7.170763430871652,-9.936989967487227
1621785624267.488,0.171,0.518,-0.002,-1.4563933116581513,-6.921586081436756,-9.575760195076636
1621785624272.369,0.222,0.487,-0.033,-1.2743946121690664,-6.67242119523146,-9.214548490478402
1621785624276.295,0.23970237678258693,0.4515952464348261,-0.04426514886164623,-1.128,-6.472,-8.924
1621785624277.248,0.244,0.443,-0.047,-1.0989180114604304,-6.433486015177327,-8.818434195446802
1621785624282.127,0.234,0.414,-0.066,-0.9500516029115688,-6.236338609261267,-8.278058417221619
1621785624287.007,0.206,0.38,-0.079,-0.8011479479634505,-6.0391418770326775,-7.737547436890196
1621785624291.885,0.154,0.358,-0.098,-0.6523113365339941,-5.842033932166641,-7.1972798203500075
1621785624292.059,0.1515738590872698,0.3573221076861489,-0.09792864291433147,-0.647,-5.835,-7.178
1621785624296.764,0.086,0.339,-0.096,-0.5678895791055412,-5.709020386349201,-7.046348318436014
1621785624301.641,0.007,0.318,-0.11,-0.48588091955447466,-5.578425464347125,-6.909873530277446
1621785624306.518,-0.037,0.298,-0.122,-0.4038763651573126,-5.447837079609004,-6.773405573714622
1621785624307.819,-0.04820434521425711,0.2939984481377653,-0.1257347817380857,-0.382,-5.413,-6.737
1621785624311.395,-0.079,0.283,-0.136,-0.2574074527424853,-5.484260582584444,-6.676859699411218
1621785624316.272,-0.117,0.255,-0.155,-0.08748455221568019,-5.581447815308336,-6.594838627207933
1621785624321.148,-0.154,0.232,-0.162,0.0824043229005268,-5.678615587232724,-6.512833978927797
1621785624323.576,-0.16794251952733827,0.22403284598437814,-0.16747741838574004,0.167,-5.727,-6.472
1621785624326.024,-0.182,0.216,-0.173,0.22030865211730424,-5.746893607787216,-6.485832274164549
1621785624330.899,-0.201,0.208,-0.176,0.3264687364374729,-5.786510199020398,-6.513378185256371
1621785624335.774,-0.215,0.204,-0.192,0.43262882075764153,-5.826126790253581,-6.540924096348193
1621785624339.327,-0.21354236778846153,0.20035591947115386,-0.20584750600961538,0.51,-5.855,-6.561
1621785624340.649,-0.213,0.199,-0.211,0.5486977584175606,-5.850047358467167,-6.562594918459726
1621785624345.522,-0.195,0.195,-0.222,0.6913399113288274,-5.831791638246419,-6.5684738792087805
1621785624350.396,-0.182,0.195,-0.237,0.83401064984188,-5.813532259564705,-6.574354018106281
1621785624355.076,-0.1627964335804448,0.1901991083951112,-0.24276106992586655,0.971,-5.796,-6.58
1621785624355.27,-0.162,0.19,-0.243,0.9762023632303685,-5.794668589505024,-6.57298543915147
1621785624360.142,-0.148,0.182,-0.25,1.1067914960922962,-5.761247673985858,-6.396906726832899
1621785624365.014,-0.134,0.176,-0.25,1.2373740851011041,-5.727828433196874,-6.220836837861308
1621785624369.887,-0.136,0.175,-0.246,1.3679893933755118,-5.694400818756978,-6.04472283215482
1621785624370.82,-0.13868183640737772,0.17461688051323174,-0.24465908179631113,1.393,-5.688,-6.011
1621785624374.758,-0.15,0.173,-0.239,1.4517946518589753,-5.663481379224767,-5.856632765119201
1621785624379.629,-0.178,0.164,-0.227,1.5245170386685487,-5.63315459664035,-5.665697817623427
1621785624384.5,-0.216,0.176,-0.204,1.5972430705278342,-5.602826293992647,-5.474753299933304
1621785624386.56,-0.23080499298175255,0.17261600160417084,-0.19680900340886304,1.628,-5.59,-5.394
1621785624389.37,-0.251,0.168,-0.187,1.596391876376951,-5.6075005430229306,-5.383463958792317
1621785624394.24,-0.295,0.157,-0.157,1.5416145312936358,-5.637829242560586,-5.365204843764546
1621785624399.11,-0.344,0.147,-0.143,1.4868344400657834,-5.668159462562447,-5.346944813355261
1621785624402.296,-0.3734500727218015,0.1378377551532173,-0.13187441697176389,1.451,-5.688,-5.335
1621785624403.978,-0.389,0.133,-0.126,1.4206296756169488,-5.748847586528014,-5.382159553003259
1621785624408.848,-0.422,0.11,-0.119,1.3327056029799784,-5.9250053236070155,-5.518689539034611
1621785624413.716,-0.436,0.077,-0.113,1.2448123855346889,-6.101101241657613,-5.655171612602825
1621785624418.026,-0.43511447203411086,0.04777757712565839,-0.1085723601705543,1.167,-6.257,-5.776
1621785624418.583,-0.435,0.044,-0.108,1.1662915023751126,-6.269823807010463,-5.7950940109907165
1621785624423.451,-0.408,0.005,-0.11,1.1601009966158526,-6.381871961253066,-5.96192814120277
1621785624428.318,-0.363,-0.028,-0.108,1.1539114222732776,-6.493903256853674,-6.128737169735167
1621785624433.185,-0.312,-0.072,-0.101,1.147722158402931,-6.605928932906951,-6.295537831041013
1621785624433.753,-0.30476443730871505,-0.07445075510511263,-0.10041648687973509,1.147,-6.619,-6.315
1621785624438.051,-0.25,-0.093,-0.096,1.2249079065867519,-6.6835132138753455,-6.299145057606907
1621785624442.916,-0.195,-0.119,-0.079,1.31309142573212,-6.756535356044844,-6.281198937921182
1621785624447.782,-0.141,-0.129,-0.056,1.401292646191112,-6.829572156144219,-6.263249215862861
1621785624449.476,-0.12950870677974607,-0.13770552516685905,-0.04868735885983841,1.432,-6.855,-6.257
1621785624452.647,-0.108,-0.154,-0.035,1.3468671813112563,-6.858832994206366,-6.187602631211071
1621785624457.511,-0.082,-0.171,-0.016,1.2162773178422206,-6.864712632609,-6.081150230658113
1621785624462.376,-0.061,-0.187,0.002,1.085661235457666,-6.870593451484133,-5.974676457339899
1621785624465.194,-0.04709207289522566,-0.1927949696269893,0.00895396355238717,1.01,-6.874,-5.913
1621785624467.239,-0.037,-0.197,0.014,0.9844935678329501,-6.851096264992853,-5.913
1621785624472.103,-0.007,-0.211,0.024,0.9238244360201354,-6.79661786091604,-5.913
1621785624476.966,0.031,-0.215,0.035,0.8631674849294636,-6.7421503946305394,-5.913
1621785624480.908,0.0650530280204881,-0.21905393190720096,0.05202651401024405,0.814,-6.698,-5.913
1621785624481.828,0.073,-0.22,0.056,0.8312177805408766,-6.688219832141748,-5.910716008703761
1621785624486.69,0.113,-0.218,0.063,0.9222188685110351,-6.636528737954616,-5.898644435809761
1621785624491.552,0.15,-0.211,0.084,1.0132199564811937,-6.584837643767485,-5.88657286291576
1621785624496.412,0.176,-0.206,0.113,1.1041844886540255,-6.533167314267951,-5.87450613926018
1621785624496.616,0.17679667570553378,-0.20474209099126242,0.11484493321281511,1.108,-6.531,-5.874
1621785624501.274,0.195,-0.176,0.157,1.270807308505347,-6.301468384730167,-5.999145144242726
1621785624506.134,0.202,-0.14,0.204,1.4406802101467298,-6.061975441432479,-6.129721400149217
1621785624510.994,0.185,-0.098,0.244,1.610544578463069,-5.822494528724198,-6.260291096742105
1621785624512.323,0.17406113427437583,-0.08542030441553222,0.2532980358667805,1.657,-5.757,-6.296
1621785624515.854,0.145,-0.052,0.278,1.670269426345499,-5.589220473665386,-6.520905531279643
1621785624520.712,0.096,0.009,0.302,1.6885253238372184,-5.35839166809212,-6.830327522664718
1621785624525.571,0.023,0.072,0.321,1.7067858086988974,-5.127504859502076,-7.139827266083008
1621785624528.023,-0.012323585569289523,0.09268952869058386,0.3220092453019797,1.716,-5.011,-7.296
1621785624530.43,-0.047,0.113,0.323,1.2632837743245133,-5.023115373248091,-7.422367943752236
1621785624535.287,-0.12,0.117,0.3,0.34972364552708934,-5.047563628727425,-7.677372532549349
1621785624540.145,-0.173,0.098,0.257,-0.5639742405151897,-5.072015570799695,-7.932415573910744
1621785624543.718,-0.2038972554539057,0.06195320197044336,0.1952054890921886,-1.236,-5.09,-8.12
1621785624545.002,-0.215,0.049,0.173,-1.4478624311455512,-5.2151207637008685,-8.108789048641583
1621785624549.859,-0.237,-0.044,0.065,-2.249305900476146,-5.688433650764011,-8.06637971866928
1621785624554.715,-0.237,-0.157,-0.075,-3.0506285127439083,-6.161675162605421,-8.023976783991534
1621785624559.408,-0.20317546505781803,-0.258473604826546,-0.2083653092006033,-3.825,-6.619,-7.983
1621785624559.571,-0.202,-0.262,-0.213,-3.816223934497681,-6.627370536409202,-7.998701254630927
1621785624564.426,-0.12,-0.326,-0.326,-3.5549651941097724,-6.876556894243641,-8.466119143239625
1621785624569.281,-0.005,-0.351,-0.405,-3.293706453721864,-7.12574325207808,-8.933537031848324
1621785624574.136,0.126,-0.386,-0.454,-3.032447713333956,-7.374929609912519,-9.400954920457021
1621785624575.092,0.14865063876873555,-0.39387848304999495,-0.4646359521174932,-2.981,-7.424,-9.493
1621785624578.99,0.241,-0.426,-0.508,-3.1346411454197223,-7.077685897136451,-9.587969122249731
1621785624583.844,0.337,-0.49,-0.588,-3.3259660391460737,-6.646430918235469,-9.706231435200324
1621785624588.697,0.41,-0.553,-0.703,-3.517252440790396,-6.215262702231357,-9.824469955310569
1621785624590.771,0.4382055538786598,-0.5859064795251032,-0.755564895864775,-3.599,-6.031,-9.875
1621785624593.55,0.476,-0.63,-0.826,-3.503451793250588,-5.8136677152601495,-9.560346814507966
1621785624598.403,0.545,-0.709,-0.923,-3.3365970753585725,-5.434142883839721,-9.010871630355224
1621785624603.255,0.572,-0.766,-1.014,-3.169784327161167,-5.054713515954713,-8.46153465809104
1621785624606.448,0.5621265727226975,-0.7923291394061399,-1.0475696527428284,-3.06,-4.805,-8.1
1621785624608.106,0.557,-0.806,-1.065,-2.9344268533952302,-4.703335472715093,-7.953797734955525
1621785624612.958,0.517,-0.82,-1.091,-2.5669344788372563,-4.405812160204383,-7.52593382456031
1621785624617.808,0.454,-0.826,-1.098,-2.199590033181188,-4.1084086115308525,-7.098242144782141
1621785624622.12,0.36688560068448334,-0.8331113795359605,-1.0962221551160098,-1.873,-3.844,-6.718
1621785624622.659,0.356,-0.834,-1.096,-1.8413797408608534,-3.844672056517304,-6.71534537675665
1621785624627.509,0.239,-0.85,-1.103,-1.556754426833539,-3.8507214787070447,-6.6914501591071724
1621785624632.358,0.101,-0.857,-1.093,-1.2722007490978853,-3.8567693783401085,-6.667560955556571
1621785624637.557,-0.035,-0.874,-1.047,-0.9671017829138691,-3.8632539472281855,-6.641946908448667
1621785624638.155,-0.050226327379495964,-0.8738801076584292,-1.0416048446293125,-0.932,-3.864,-6.639
1621785624642.546,-0.162,-0.873,-1.002,-0.5607568717723495,-4.3553592100679985,-6.81277337917039
1621785624647.535,-0.276,-0.84,-0.949,-0.13894128515394288,-4.913653647529191,-7.0102189729066655
1621785624652.525,-0.384,-0.803,-0.894,0.28295686874346904,-5.4720573669942905,-7.207703215156518
1621785624654.276,-0.420851480303401,-0.7875574749204796,-0.8718891118179594,0.431,-5.668,-7.277
1621785624657.514,-0.489,-0.759,-0.831,0.781739094874591,-6.133040667030171,-7.592183069792803
1621785624662.502,-0.548,-0.689,-0.754,1.322035441657579,-6.849412971040834,-8.077707106506725
1621785624667.492,-0.55,-0.6,-0.654,1.8625433478735005,-7.566065779110627,-8.563421255906944
1621785624670.395,-0.5214872033276242,-0.5685777342794226,-0.596392512845608,2.177,-7.983,-8.846
1621785624672.481,-0.501,-0.546,-0.555,2.1872233464095845,-8.175820077851657,-9.017208699998486
1621785624677.47,-0.401,-0.513,-0.476,2.211674901170804,-8.636994971449344,-9.426694863911061
1621785624682.46,-0.284,-0.49,-0.405,2.2361312421428896,-9.098260136619057,-9.836261181709405
1621785624686.514,-0.17917763640812331,-0.4704981649131392,-0.3440567653535601,2.256,-9.473,-10.169
1621785624687.449,-0.155,-0.466,-0.33,2.2036176844783713,-9.427520780322308,-10.199744880649462
1621785624692.439,-0.023,-0.456,-0.251,1.9240766539440202,-9.184818490245972,-10.363816581849024
1621785624697.427,0.117,-0.447,-0.188,1.6446450381679387,-8.942211195928753,-10.527824063976736
1621785624702.417,0.264,-0.445,-0.148,1.3651040076335876,-8.699508905852417,-10.6918957651763
1621785624702.633,0.26919696598972354,-0.4452165402495718,-0.1463542941032542,1.353,-8.689,-10.699
1621785624707.406,0.384,-0.45,-0.11,1.001793529135552,-8.169001211772368,-10.46683653190748
1621785624712.395,0.463,-0.443,-0.065,0.6346884533240431,-7.625462836456172,-10.224163362062436
1621785624717.385,0.517,-0.438,-0.042,0.26751151941107865,-7.081818067526015,-9.981442690740543
1621785624718.751,0.5287731832640079,-0.438,-0.037619280645950576,0.167,-6.933,-9.915
1621785624722.374,0.56,-0.438,-0.026,0.06561637506627284,-6.657398394304325,-9.480691433765053
1621785624727.363,0.586,-0.445,-0.035,-0.07399106263727936,-6.277889040369613,-8.882639172915246
1621785624732.353,0.592,-0.449,-0.037,-0.21362582746345524,-5.898305400287813,-8.284469847761873
1621785624734.868,0.5819182774651334,-0.44194279422559335,-0.035991827746513334,-0.284,-5.707,-7.983
1621785624737.342,0.572,-0.435,-0.035,-0.23887404580152669,-5.645297164667394,-7.695513904034896
1621785624742.331,0.534,-0.417,-0.019,-0.14787849872773534,-5.520874681933842,-7.115804177268872
1621785624747.321,0.489,-0.38,0.005,-0.05686513994910941,-5.39642784442021,-6.535980976614565
1621785624750.987,0.4360931245412283,-0.34987247369708835,0.021900807438218744,0.01,-5.305,-6.11
1621785624752.31,0.417,-0.339,0.028,-0.006089131258047416,-5.272000863440127,-6.0592699840945246
1621785624757.299,0.335,-0.302,0.047,-0.06676109975005681,-5.147561417859577,-5.867967552828903
1621785624762.288,0.229,-0.269,0.073,-0.1274330682420662,-5.023121972279027,-5.676665121563281
1621785624767.104,0.12281649131392218,-0.23135311964766334,0.09327139711279667,-0.186,-4.903,-5.492
1621785624767.277,0.119,-0.23,0.094,-0.19506344758644714,-4.904793359889735,-5.495049785680748
1621785624772.267,0.01,-0.211,0.106,-0.4563438498704997,-4.956492207261106,-5.582968783605713
1621785624777.256,-0.08,-0.185,0.105,-0.7175731184587191,-5.008180936946216,-5.67087057540554
1621785624782.245,-0.143,-0.166,0.101,-0.9788023870469382,-5.059869666631326,-5.758772367205368
1621785624783.223,-0.15122985468956407,-0.16560810215763982,0.09962835755173932,-1.03,-5.07,-5.776
1621785624787.235,-0.185,-0.164,0.094,-1.1641540861452717,-5.214109862482584,-5.881033440358635
1621785624792.224,-0.208,-0.155,0.093,-1.3309691494517477,-5.393304522323863,-6.0116381838008115
1621785624797.213,-0.222,-0.15,0.094,-1.4977760495547343,-5.572490413158055,-6.142236536015024
1621785624799.343,-0.222,-0.1538426718864693,0.09101125519941276,-1.569,-5.649,-6.198
1621785624802.202,-0.222,-0.159,0.087,-1.643842412952277,-5.634989216532631,-6.218750147666864
1621785624807.192,-0.213,-0.164,0.077,-1.7744746997440441,-5.61053435715692,-6.254968103957473
1621785624812.181,-0.213,-0.175,0.066,-1.9050814212367668,-5.586084283702122,-6.29117897223863
1621785624815.463,-0.2051074416556583,-0.18026170556289445,0.05613430206957287,-1.991,-5.57,-6.315
1621785624817.171,-0.201,-0.183,0.051,-1.993013511875909,-5.514893359185653,-6.304614517692681
1621785624822.16,-0.199,-0.201,0.042,-1.9988948891177896,-5.353929350460494,-6.274278992971401
1621785624827.149,-0.194,-0.215,0.026,-2.0047762663596704,-5.192965341735337,-6.243943468250121
1621785624831.58,-0.20110406575664172,-0.2158880082195802,0.013567884925876999,-2.01,-5.05,-6.217
1621785624832.139,-0.202,-0.216,0.012,-1.9926651318479922,-5.047989155294367,-6.203756160731865
1621785624837.128,-0.215,-0.218,-0.002,-1.8379084561440708,-5.030037380912712,-6.08552206049407
1621785624842.118,-0.236,-0.211,-0.005,-1.6831214879663148,-5.012082092604093,-5.9672648168062645
1621785624847.107,-0.264,-0.194,-0.007,-1.5283648122623934,-4.994130318222438,-5.8490307165684685
1621785624847.699,-0.2676787374602398,-0.1909146072914118,-0.006762662099339369,-1.51,-4.992,-5.835
1621785624852.096,-0.295,-0.168,-0.005,-1.3790737262979342,-5.10683325255952,-5.78944856727449
1621785624857.085,-0.325,-0.143,0.002,-1.2305185678802932,-5.237128506088326,-5.737763751741685
1621785624862.075,-0.344,-0.113,0.012,-1.0819343308899256,-5.367449263948628,-5.686068819288787
1621785624863.819,-0.3481951553706875,-0.09901614876437484,0.01514636652801566,-1.03,-5.413,-5.668
1621785624867.064,-0.356,-0.073,0.021,-1.0181227905426897,-5.501978416612393,-5.733223997697772
1621785624872.054,-0.349,-0.031,0.03,-0.9998579282977145,-5.63881009648153,-5.833525953076958
1621785624877.043,-0.332,0.01,0.049,-0.9815966405646517,-5.775614997803796,-5.933808278933099
1621785624879.938,-0.3244563738683631,0.0297294837288965,0.05712390506483973,-0.971,-5.855,-5.992
1621785624882.032,-0.319,0.044,0.063,-1.0576429242139698,-5.852402011267947,-6.031489428727206
1621785624887.022,-0.295,0.066,0.059,-1.264113103531835,-5.846211001393349,-6.125592778821106
1621785624892.011,-0.269,0.084,0.033,-1.470542875749682,-5.840021203125946,-6.219677712485613
1621785624896.058,-0.24304139955957915,0.09616809395644728,0.011908637142158063,-1.638,-5.835,-6.296
1621785624897.0,-0.237,0.099,0.007,-1.625964745968047,-5.846451018399334,-6.286827500567881
1621785624901.99,-0.192,0.11,-0.012,-1.5622041038843038,-5.907116483682895,-6.238233224805028
1621785624906.979,-0.155,0.134,-0.03,-1.4984559400318012,-5.967770076474596,-6.189648459150451
1621785624911.968,-0.122,0.152,-0.035,-1.4347077761792988,-6.028423669266298,-6.141063693495874
1621785624912.18,-0.12161778952003523,0.15289182445325114,-0.03521233915553599,-1.432,-6.031,-6.139
1621785624916.958,-0.113,0.173,-0.04,-1.2488108869502,-6.121112443959772,-5.98189606809645
1621785624921.947,-0.105,0.197,-0.044,-1.0575345328971282,-6.215203077668726,-5.817856476432812
1621785624926.936,-0.101,0.225,-0.045,-0.8662581788440566,-6.309293711377681,-5.653816884769175
1621785624928.299,-0.10345838837516513,0.2288241596947013,-0.04363422868046382,-0.814,-6.335,-5.609
1621785624931.926,-0.11,0.239,-0.04,-0.712531659372113,-6.379097105904802,-5.540604488800715
1621785624936.915,-0.113,0.258,-0.026,-0.572958050006815,-6.43975437294604,-5.446523829716345
1621785624941.906,-0.099,0.278,-0.014,-0.4333297996395632,-6.500435386409413,-5.352406339446623
1621785624944.42,-0.08589885001223391,0.27598443846342063,-0.014,-0.363,-6.531,-5.305
1621785624946.895,-0.073,0.274,-0.014,-0.42471597310557874,-6.469284026894421,-5.330638227633412
1621785624951.884,-0.045,0.283,-0.024,-0.5491158459022352,-6.344884154097764,-5.3823167817554065
1621785624956.874,-0.04,0.293,-0.047,-0.6735400690532436,-6.220459930946756,-5.4340054515718705
1621785624960.542,-0.043676045999510645,0.28638311720088083,-0.07420274039637877,-0.765,-6.129,-5.472
1621785624961.863,-0.045,0.284,-0.084,-0.7899082980012114,-6.119331647486372,-5.5226359479103575
1621785624966.852,-0.072,0.284,-0.12,-0.8839761356753483,-6.082818473652332,-5.713865960024228
1621785624971.842,-0.094,0.274,-0.152,-0.9780623864324651,-6.046298152634766,-5.905133403997577
1621785624976.665,-0.09883361879128946,0.2517653535600685,-0.1839018840225104,-1.069,-6.011,-6.09
1621785624976.831,-0.099,0.251,-0.185,-1.0723366146204054,-6.015150171888961,-6.101410398146325
1621785624981.821,-0.094,0.223,-0.22,-1.1726264178946253,-6.139893353122019,-6.444376762429767
1621785624986.81,-0.08,0.192,-0.237,-1.2728965940240191,-6.264612121579258,-6.787276006724115
1621785624991.799,-0.061,0.145,-0.257,-1.373166770153413,-6.389330890036498,-7.1301752510184615
1621785624992.786,-0.05407842849454474,0.1343210039630119,-0.25976862860218214,-1.393,-6.414,-7.198
1621785624996.789,-0.026,0.091,-0.271,-1.431737763508602,-6.494207035982554,-7.368595150835959
1621785625001.779,0.024,0.045,-0.286,-1.4800247152895565,-6.594185788708505,-7.581243457717471
1621785625006.769,0.089,0.005,-0.29,-1.5283116670705112,-6.694164541434456,-7.793891764598982
