time,gyro_x,gyro_y,gyro_z,acc_x,acc_y,acc_z
1621787113070.942,,,,1.108,-4.325,-8.1
1621787113089.607,,,,0.49,-4.884,-8.846
1621787113107.33,0.058,1.967,1.625,0.7104176723361552,-5.561130561202171,-9.092568921596376
1621787113108.583,0.0582113586755076,1.9714385321856596,1.6209841851653557,0.726,-5.609,-9.11
1621787113113.258,0.059,1.988,1.606,0.7567920206637208,-5.735077564922321,-8.976891186264703
1621787113119.215,0.056,1.998,1.602,0.7960277668747389,-5.895727864369009,-8.807281543195026
1621787113125.202,0.047,1.998,1.587,0.835459691816812,-6.057181415312931,-8.636823851910002
1621787113127.865,0.04478670562454346,1.9873761869978086,1.5777041636230826,0.853,-6.129,-8.561
1621787113131.218,0.042,1.974,1.566,0.9218137900089739,-6.177785895901884,-8.465311172599462
1621787113137.262,0.049,1.95,1.543,1.0458529763685311,-6.265724125037391,-8.292828821417888
1621787113143.336,0.061,1.916,1.548,1.1705084504935686,-6.354099274603649,-8.119489492970386
1621787113147.453,0.07179145668346532,1.9065574754019678,1.5587914566834653,1.255,-6.414,-8.002
1621787113149.44,0.077,1.902,1.564,1.338828545039813,-6.453066835528065,-7.945051260163171
1621787113154.204,0.094,1.901,1.59,1.5398151807330076,-6.546733161673127,-7.808511426132468
1621787113159.813,0.103,1.888,1.623,1.7764384752095608,-6.657007332876194,-7.647761905428288
1621787113164.899,0.11205778512109223,1.896152006608983,1.6528906908996042,1.991,-6.757,-7.502
1621787113165.428,0.113,1.897,1.656,1.9847163109142167,-6.7524326889515365,-7.506567311048463
1621787113171.05,0.117,1.895,1.686,1.917941602899718,-6.7038973687743315,-7.555102631225668
1621787113176.679,0.127,1.906,1.721,1.8510857027788965,-6.65530303396429,-7.603696966035709
1621787113182.312,0.138,1.911,1.754,1.7841805074506645,-6.606672868841455,-7.652327131158545
1621787113183.085,0.14019242588184377,1.9083964942653107,1.7578367452932266,1.775,-6.6,-7.659
1621787113187.953,0.154,1.892,1.782,1.5239751819544043,-6.51890377822969,-7.7609038049876915
1621787113193.599,0.176,1.881,1.798,1.2328145938135502,-6.42484127154019,-7.879100770630418
1621787113199.251,0.208,1.848,1.806,0.9413644439687466,-6.330685218880445,-7.997415284169967
1621787113201.333,0.2168285381529569,1.8399071733597896,1.8015857309235217,0.834,-6.296,-8.041
1621787113204.911,0.232,1.826,1.794,0.6806314491401146,-6.251845487268365,-7.998994600719905
1621787113210.576,0.258,1.787,1.773,0.4377952939608052,-6.181933422210372,-7.932485335288628
1621787113216.247,0.283,1.747,1.759,0.19469750699906674,-6.111946033862152,-7.8659044127449675
1621787113219.646,0.29736924267836407,1.7242486990925903,1.7506179417709542,0.049,-6.07,-7.826
1621787113221.924,0.307,1.709,1.745,0.039330826867892445,-6.0287200685513875,-7.771208018918057
1621787113227.609,0.33,1.682,1.726,0.015201934318205976,-5.925708258050802,-7.634477627803167
1621787113233.299,0.342,1.653,1.695,-0.008949755553193744,-5.822599120522904,-7.497618051865236
1621787113238.023,0.3494655320243505,1.6264558861356426,1.6742624110434707,-0.029,-5.737,-7.384
1621787113238.994,0.351,1.621,1.67,-0.008364051517598316,-5.726155598501595,-7.3427281030351965
1621787113244.696,0.351,1.595,1.658,0.11282609501370008,-5.662468939865249,-7.1003478099726
1621787113250.404,0.342,1.573,1.644,0.23414077329344649,-5.598716838524362,-6.857718453413107
1621787113256.12,0.332,1.552,1.63,0.3556266827273088,-5.53487475346473,-6.614746634545382
1621787113256.467,0.33090827606812073,1.5513328353749627,1.6293934867045115,0.363,-5.531,-6.6
1621787113261.84,0.314,1.541,1.62,0.45676965795617935,-5.474099526441451,-6.412170375549077
1621787113267.567,0.293,1.517,1.604,0.5567130815602369,-5.413452743077999,-6.2119741059768625
1621787113273.3,0.265,1.491,1.595,0.6567672835679141,-5.352738738144548,-6.011555936630216
1621787113274.975,0.25595355365573563,1.4837044787546256,1.592957254051295,0.686,-5.335,-5.953
1621787113279.04,0.234,1.466,1.588,0.7612977677280257,-5.335,-5.8735433439381595
1621787113284.785,0.204,1.442,1.592,0.8677140903951832,-5.335,-5.761249375542293
1621787113290.537,0.155,1.415,1.599,0.9742660847159046,-5.335,-5.648812242000368
1621787113293.546,0.13513944020356233,1.4045470737913486,1.6031811704834606,1.03,-5.335,-5.59
1621787113296.294,0.117,1.395,1.607,1.063176137703372,-5.34945005108858,-5.6072515916057535
1621787113302.058,0.068,1.381,1.618,1.1327646781419476,-5.3797597264796035,-5.6434376326338125
1621787113307.829,0.017,1.361,1.632,1.2024357462862532,-5.410105347271346,-5.6796665880688515
1621787113312.183,-0.008630061712739875,1.349692619832615,1.641045904133908,1.255,-5.433,-5.707
1621787113313.605,-0.017,1.346,1.644,1.2714212669860456,-5.456111412795175,-5.760749239625621
1621787113319.387,-0.065,1.337,1.649,1.3381975145874399,-5.550092798308248,-5.979317790802407
1621787113325.176,-0.099,1.321,1.665,1.4050555301734828,-5.644189264688605,-6.198153980706723
1621787113330.886,-0.11476276326874474,1.2953855096882898,1.6787924178601517,1.471,-5.737,-6.414
1621787113330.972,-0.115,1.295,1.679,1.4717657058003675,-5.737806971382423,-6.418044027041461
1621787113336.765,-0.113,1.279,1.684,1.5233812377069467,-5.792204178661214,-6.690648213518125
1621787113342.565,-0.099,1.265,1.689,1.5750598533300335,-5.84666786937776,-6.963585572677183
1621787113348.371,-0.07,1.257,1.682,1.6267928514673509,-5.901188873402718,-7.23681014966589
1621787113349.629,-0.06242671146577069,1.2539706845863081,1.6832982780344392,1.638,-5.913,-7.296
1621787113354.184,-0.035,1.243,1.688,1.7043787475492422,-5.8752077203734245,-7.433844917355909
1621787113360.001,0.009,1.241,1.688,1.7891434618331017,-5.8269475180804235,-7.609870911616916
1621787113365.825,0.051,1.236,1.693,1.8740113481439162,-5.778628575509303,-7.786111157276965
1621787113368.432,0.06888909365052773,1.236,1.695236136706316,1.912,-5.757,-7.865
1621787113371.654,0.091,1.236,1.698,1.9087546041647792,-5.688163446231897,-7.848260589902546
1621787113377.491,0.124,1.234,1.703,1.9028756131336793,-5.563466952256461,-7.817937373005294
1621787113383.332,0.141,1.244,1.707,1.8969924417927446,-5.438681791709268,-7.787592594509946
1621787113387.296,0.14235565482403037,1.2467113096480609,1.7083556548240304,1.893,-5.354,-7.767
1621787113389.18,0.143,1.248,1.709,1.8646290424530128,-5.317963906554353,-7.746493272790599
1621787113395.033,0.129,1.248,1.719,1.776490473549103,-5.206012461139562,-7.68278609667058
1621787113400.893,0.103,1.267,1.719,1.688245288373473,-5.093925594355078,-7.619001857561177
1621787113406.222,0.07301660908296216,1.2897146900886651,1.7253601132248262,1.608,-4.992,-7.561
1621787113406.758,0.07,1.292,1.726,1.5949835294117647,-4.988385882352941,-7.556567058823529
1621787113412.63,0.038,1.295,1.716,1.452424725168756,-4.948803394406943,-7.508016663452266
1621787113418.507,0.003,1.311,1.712,1.3097355191256832,-4.909184699453552,-7.459421857923497
1621787113424.39,-0.037,1.318,1.707,1.1669099839279975,-4.869528151719704,-7.410780623593699
1621787113425.21,-0.04187295863383901,1.3209237751803034,1.7060254082732322,1.147,-4.864,-7.404
1621787113430.28,-0.072,1.339,1.7,1.0453275360461391,-4.908448433194489,-7.398676834347966
1621787113436.175,-0.112,1.349,1.695,0.9271119384812561,-4.960129074014739,-7.392487536046139
1621787113442.075,-0.154,1.351,1.688,0.8087984235821852,-5.0118525216276835,-7.386293111182313
1621787113444.259,-0.1662016119032858,1.3543277123372597,1.6846722876627402,0.765,-5.031,-7.384
1621787113447.982,-0.187,1.36,1.679,0.6942972755489136,-5.084367896693106,-7.449054297428823
1621787113453.896,-0.213,1.346,1.676,0.5819815304441124,-5.169146172612432,-7.552397159315886
1621787113459.815,-0.239,1.349,1.669,0.469573054374066,-5.2539944438058015,-7.655825343909262
1621787113463.373,-0.2498093452552639,1.34299480819152,1.663595327372368,0.402,-5.305,-7.718
1621787113465.74,-0.257,1.339,1.66,0.33670092053831757,-5.325614265160871,-7.780953743904457
1621787113471.67,-0.264,1.328,1.646,0.17310635209635733,-5.377259431379789,-7.938672514992169
1621787113477.608,-0.265,1.309,1.627,0.009289517576807016,-5.42897476477254,-8.096605569065838
1621787113482.548,-0.2591803278688525,1.2832271662763466,1.6103723653395785,-0.127,-5.472,-8.228
1621787113483.55,-0.258,1.278,1.607,-0.1540842957585603,-5.472,-8.243313044140416
1621787113489.499,-0.248,1.255,1.583,-0.31489400208137674,-5.472,-8.334232378099856
1621787113495.453,-0.236,1.223,1.567,-0.4758356981496053,-5.472,-8.425226337030738
1621787113501.415,-0.213,1.189,1.545,-0.6370017767850344,-5.472,-8.516347158413078
1621787113501.785,-0.2118840692392683,1.1860241846380488,1.5432641077055285,-0.647,-5.472,-8.522
1621787113507.381,-0.195,1.141,1.517,-0.8517099034824738,-5.395161296851479,-8.553315396000151
1621787113513.353,-0.166,1.086,1.482,-1.0701641809924987,-5.313163586454657,-8.586733330803385
1621787113519.331,-0.134,1.014,1.454,-1.2888417264366945,-5.231082071521637,-8.620185419908164
1621787113521.085,-0.12553115527113506,0.9949450993600539,1.4434139440889189,-1.353,-5.207,-8.63
1621787113525.13,-0.106,0.951,1.419,-1.5505949811794228,-5.101966122961104,-8.57638895859473
1621787113530.851,-0.07,0.881,1.388,-1.8300759558872084,-4.953404807501816,-8.500560787162385
1621787113536.572,-0.035,0.812,1.349,-2.1095450042924124,-4.804849831605362,-8.42473585154857
1621787113539.57,-0.020326676055135922,0.7726964537191141,1.3269900140827038,-2.256,-4.727,-8.385
1621787113542.293,-0.007,0.737,1.307,-2.338334420643934,-4.687968476796704,-8.319898365072238
1621787113548.016,0.005,0.642,1.262,-2.511389516917144,-4.605929835450728,-8.183064102902723
1621787113553.738,0.01,0.565,1.21,-2.684407701856792,-4.523908692321914,-8.046259026438815
1621787113558.057,0.00018773733839655242,0.5340536331441738,1.1684865810470624,-2.815,-4.462,-7.943
1621787113559.46,-0.003,0.524,1.155,-2.774021008569806,-4.450085737676777,-7.911051564088682
1621787113565.183,-0.009,0.508,1.105,-2.606867795222564,-4.4014874886110045,-7.78073396627537
1621787113570.907,-0.037,0.503,1.052,-2.439693190371182,-4.352883020163473,-7.650399691011607
1621787113576.546,-0.08824563724026112,0.5059564790715535,0.9889284464735247,-2.275,-4.305,-7.522
1621787113576.629,-0.089,0.506,0.988,-2.276454372623574,-4.306539659907055,-7.522085287283481
1621787113582.353,-0.155,0.51,0.894,-2.376746197718631,-4.412712795732995,-7.527966598014364
1621787113588.076,-0.227,0.504,0.771,-2.4770166349809886,-4.518863289501478,-7.533846654520491
1621787113593.8,-0.278,0.503,0.668,-2.5773084600760456,-4.625036425327418,-7.539727965251373
1621787113595.038,-0.2831910428662828,0.5075421625079974,0.650047643420772,-2.599,-4.648,-7.541
1621787113599.524,-0.302,0.524,0.585,-2.6870578007208588,-4.95025900743303,-7.595823864911609
1621787113605.248,-0.278,0.545,0.518,-2.7994232734378097,-5.335954266400855,-7.665781431947507
1621787113610.972,-0.225,0.541,0.433,-2.9117839536326793,-5.721633075003631,-7.735736015209326
1621787113613.53,-0.19462121599727125,0.5182159119979535,0.38832531764304595,-2.962,-5.894,-7.767
1621787113616.698,-0.157,0.49,0.333,-3.0207490331181774,-6.0082437466175636,-7.541938106363601
1621787113622.422,-0.086,0.428,0.229,-3.1269011470584354,-6.214667828244829,-7.13527957074407
1621787113628.147,-0.03,0.365,0.152,-3.2330668435433414,-6.421118322575536,-6.728569001702768
1621787113632.026,-0.011029253731343284,0.3284135607675906,0.11744614072494669,-3.305,-6.561,-6.453
1621787113633.872,-0.002,0.311,0.101,-3.148056701030928,-6.636394329896907,-6.29205618556701
1621787113639.428,-0.009,0.271,0.086,-2.6757532555615846,-6.863285200759631,-5.807713632664135
1621787113644.98,-0.051,0.23,0.101,-2.2037818773738467,-7.090016549104721,-5.3237116115029846
1621787113650.024,-0.112799146615053,0.20364448159063916,0.128264329388994,-1.775,-7.296,-4.884
1621787113650.53,-0.119,0.201,0.131,-1.715699588421282,-7.318177619385085,-4.8936903483427825
1621787113656.076,-0.213,0.183,0.182,-1.0658837903401657,-7.561200678696031,-4.999877494003489
1621787113661.62,-0.321,0.178,0.25,-0.41626823484518094,-7.804148849760139,-5.106031917793285
1621787113667.16,-0.428,0.178,0.326,0.23283241114260766,-8.046904451046663,-5.212102199629307
1621787113667.938,-0.441630467372134,0.18038884479717812,0.33906838624338625,0.324,-8.081,-5.227
1621787113672.697,-0.525,0.195,0.419,0.571814930631418,-8.30006733395237,-5.7463200103779775
1621787113678.231,-0.592,0.199,0.503,0.8599809919161021,-8.554804894035394,-6.350199694122788
1621787113683.763,-0.627,0.216,0.578,1.1480453490277474,-8.80945254806642,-6.953866246995849
1621787113685.817,-0.619197456167469,0.21228450293689,0.59657748531555,1.255,-8.904,-7.178
1621787113689.291,-0.606,0.206,0.628,1.1520138451856512,-8.97097020275262,-7.611554190494432
1621787113694.816,-0.529,0.194,0.66,0.9882347388294523,-9.077473062084438,-8.301036364133855
1621787113700.338,-0.391,0.18,0.674,0.8245424795468848,-9.183919446192574,-8.990152926368784
1621787113703.662,-0.27657983193277313,0.16916019460415746,0.6758066342326404,0.726,-9.248,-9.405
1621787113705.858,-0.201,0.162,0.677,0.6787929011922708,-9.183906811018225,-9.402534877346854
1621787113711.374,0.012,0.143,0.672,0.5602030423461697,-9.022897080992188,-9.396342195422775
1621787113716.887,0.206,0.134,0.665,0.44168141702069347,-8.861979991777442,-9.390153076606824
1621787113721.477,0.3442610198024188,0.1331671022903469,0.6575039206131219,0.343,-8.728,-9.385
1621787113722.398,0.372,0.133,0.656,0.3450197432553031,-8.641668922907943,-9.28748265257088
1621787113727.905,0.506,0.14,0.653,0.35709804352303154,-8.125399011464268,-8.704317539644402
1621787113733.408,0.602,0.162,0.658,0.3691672410242329,-7.60951818493856,-8.121591926958192
1621787113738.909,0.646,0.194,0.675,0.3812321548705979,-7.093820457197776,-7.539073137914464
1621787113739.259,0.6464456579648376,0.19610095897709112,0.675891315929675,0.382,-7.061,-7.502
1621787113744.408,0.653,0.227,0.689,0.3651771922103642,-6.605914044449334,-7.012688332049731
1621787113749.902,0.616,0.264,0.714,0.34722648256133787,-6.120316398943778,-6.490570277258224
1621787113755.394,0.538,0.311,0.737,0.3292829519199032,-5.634912957971174,-5.968661032566839
1621787113757.011,0.5100150780589779,0.32278312502779877,0.7446590312680692,0.324,-5.492,-5.815
1621787113760.883,0.443,0.351,0.763,0.22106833119755281,-5.303401209816323,-5.710101484022984
1621787113766.369,0.347,0.389,0.777,0.07523765036583857,-5.036199771264795,-5.5614842296721925
1621787113771.852,0.253,0.412,0.791,-0.07052164027944269,-4.769129138935968,-5.412939729651523
1621787113774.729,0.20994287496658054,0.42460208537563493,0.7888996524373942,-0.147,-4.629,-5.335
1621787113777.331,0.171,0.436,0.787,-0.2090728698004361,-4.666508487675618,-5.4028094620331775
1621787113782.808,0.094,0.459,0.792,-0.339729912501035,-4.74546001821745,-5.545541444698998
1621787113788.282,0.04,0.475,0.791,-0.47031124237489297,-4.8243657981175305,-5.6881907173811035
1621787113792.419,0.005966302164695382,0.49163869671948224,0.7857058692256194,-0.569,-4.884,-5.796
1621787113793.752,-0.005,0.497,0.784,-0.6126310848737055,-4.922498016065035,-5.859634955966322
1621787113799.22,-0.026,0.511,0.77,-0.7916064343089408,-5.080417442037301,-6.12066647772048
1621787113804.684,-0.021,0.527,0.744,-0.9704539270852055,-5.238224053310476,-6.381511523413198
1621787113810.078,-0.019024941891650278,0.5457630520293224,0.7143741283747541,-1.147,-5.394,-6.639
1621787113810.146,-0.019,0.546,0.714,-1.1502613952715337,-5.395854821955375,-6.640213362695808
1621787113815.605,-0.012,0.553,0.682,-1.411640600545699,-5.544506502680019,-6.737456337169846
1621787113821.06,-0.003,0.56,0.651,-1.6728327723992744,-5.6930518136867905,-6.83462972812011
1621787113826.513,0.007,0.56,0.614,-1.9339197379537683,-5.841537291727261,-6.9317639783382505
1621787113827.705,0.008969039831533672,0.5562807025404365,0.6056862762668578,-1.991,-5.874,-6.953
1621787113831.962,0.016,0.543,0.576,-2.133265565808645,-5.893113911052522,-6.919853090959551
1621787113837.409,0.012,0.534,0.531,-2.3153077221952403,-5.91757195587317,-6.87743850690349
1621787113842.852,0.009,0.494,0.489,-2.4972193297717338,-5.942012460972733,-6.835054339832096
1621787113845.299,-0.0013441173831104745,0.48005792874450326,0.47145997487211705,-2.579,-5.953,-6.816
1621787113848.293,-0.014,0.463,0.45,-2.520533332406661,-5.994761905423814,-6.760772010786467
1621787113853.73,-0.031,0.435,0.424,-2.41435599510717,-6.070602860637736,-6.660476216952545
1621787113859.164,-0.063,0.4,0.396,-2.3082358705623975,-6.146402949598288,-6.560234466653693
1621787113862.863,-0.07457864688694088,0.37820489997752305,0.38442135311305914,-2.236,-6.198,-6.492
1621787113864.595,-0.08,0.368,0.379,-2.215652125482115,-6.223187902922625,-6.508495607012072
1621787113870.024,-0.087,0.347,0.358,-2.151869254654061,-6.302142427491333,-6.560203079964912
1621787113875.449,-0.093,0.326,0.332,-2.0881322769740596,-6.381040142580654,-6.61187334827831
1621787113880.397,-0.08934976811202665,0.30409860867215993,0.31283628258813995,-2.03,-6.453,-6.659
1621787113880.871,-0.089,0.302,0.311,-2.024739745715865,-6.454583443891653,-6.673465699281371
1621787113886.342,-0.077,0.274,0.279,-1.9640409618573798,-6.472855016583748,-6.840387354892206
1621787113891.811,-0.047,0.237,0.26,-1.9033638474295191,-6.491120066334991,-7.007249419568823
1621787113897.278,-0.023,0.201,0.227,-1.842708402432283,-6.509378593145383,-7.174051893311222
1621787113898.063,-0.019695933869526363,0.19597207327971405,0.22240303842716713,-1.834,-6.512,-7.198
1621787113902.742,0.0,0.166,0.195,-1.7118050011756083,-6.496361160671064,-7.299519923101393
1621787113908.205,0.026,0.127,0.178,-1.5691304648493147,-6.478101295935161,-7.418054299268357
1621787113913.664,0.058,0.087,0.157,-1.4265643195994633,-6.45985530337607,-7.536498623846867
1621787113915.715,0.0696513511095204,0.07647619899785253,0.14985884931997137,-1.373,-6.453,-7.581
1621787113919.121,0.089,0.059,0.138,-1.291444589128387,-6.426330221089378,-7.57326962930127
1621787113924.576,0.106,0.019,0.122,-1.1608308306089654,-6.383617664985871,-7.560889178256774
1621787113930.03,0.127,-0.007,0.105,-1.0302346096304094,-6.340910843907575,-7.548510389538428
1621787113933.339,0.13367774443498903,-0.01974842119406996,0.09832225556501097,-0.951,-6.315,-7.541
1621787113935.481,0.138,-0.028,0.094,-0.8746961117507525,-6.305507650265644,-7.5111842860908045
1621787113940.929,0.145,-0.035,0.084,-0.6806095659531968,-6.281362912510924,-7.43534504570739
1621787113946.376,0.152,-0.038,0.08,-0.4865578104842625,-6.257222502739669,-7.3595193996310115
1621787113950.939,0.1578670792412216,-0.03129476658146105,0.07580922911341316,-0.324,-6.237,-7.296
1621787113951.82,0.159,-0.03,0.075,-0.29252499722253084,-6.230634832240862,-7.286176591489835
1621787113957.261,0.162,-0.028,0.072,-0.09816314853905125,-6.191329171758694,-7.225515887123653
1621787113962.7,0.161,-0.016,0.077,0.09612893011887563,-6.152037620819909,-7.164876958115765
1621787113968.138,0.164,-0.002,0.079,0.2903861237640261,-6.112753124652817,-7.104248916787023
1621787113968.519,0.16364940256940078,-0.0008780882220824724,0.07935059743059923,0.304,-6.11,-7.1
1621787113973.573,0.159,0.014,0.084,0.496057182201327,-6.076022867316707,-7.046442824753453
1621787113979.005,0.161,0.04,0.091,0.7024762076975506,-6.039504958758155,-6.988880697703531
1621787113984.436,0.159,0.058,0.106,0.9088674001641328,-6.002991974183857,-6.931326332188113
1621787113986.071,0.15538602329450915,0.0673361064891847,0.10991514143094841,0.971,-5.992,-6.914
1621787113989.865,0.147,0.089,0.119,1.0579982035177629,-5.987671731168271,-6.880023089670924
1621787113995.29,0.143,0.12,0.138,1.18239891654017,-5.981482640968151,-6.831438731599983
1621787114000.713,0.134,0.148,0.154,1.3067492445026252,-5.975296057487432,-6.7828740512763375
1621787114003.602,0.12867152956008826,0.16398541131973524,0.1689197172317529,1.373,-5.972,-6.757
1621787114006.135,0.124,0.178,0.182,1.3615699642996597,-5.983430035700341,-6.7597489959279295
1621787114011.554,0.106,0.209,0.201,1.3371168488871534,-6.007883151112847,-6.7656301249511905
1621787114016.971,0.099,0.244,0.229,1.312672546996151,-6.032327453003849,-6.771509134266748
1621787114021.109,0.08600698953823954,0.26540025252525257,0.240464420995671,1.294,-6.051,-6.776
1621787114022.385,0.082,0.272,0.244,1.2568472860314757,-6.04669349680915,-6.793955928558462
1621787114027.798,0.072,0.298,0.26,1.0992521121056822,-6.028426079792211,-6.870121769001969
1621787114033.208,0.059,0.318,0.272,0.9417493401851671,-6.010169373420284,-6.946242951501865
1621787114038.592,0.06596903074353302,0.3329336373075708,0.2899203647690849,0.785,-5.992,-7.022
1621787114038.616,0.066,0.333,0.29,0.7843293114978018,-5.992,-7.021944225488383
1621787114044.021,0.082,0.347,0.291,0.6328153038430346,-5.992,-7.009344308011895
1621787114049.425,0.084,0.354,0.3,0.4813286712291735,-5.992,-6.996746667046085
1621787114054.55,0.087,0.361,0.307,0.3376644565542165,-5.992,-6.984799539006588
1621787114055.751,0.08155461254612546,0.36077310885608854,0.307,0.304,-5.992,-6.982
1621787114059.843,0.063,0.36,0.307,0.23120625169650127,-6.006127734045745,-6.928123048130634
1621787114065.132,0.054,0.361,0.316,0.13711856222409533,-6.024388173778877,-6.858485777961913
1621787114070.419,0.037,0.354,0.318,0.04306996014114889,-6.042641027472606,-6.7888774376044685
1621787114072.84,0.027832447423156922,0.354,0.3202918881442108,0.0,-6.051,-6.757
1621787114075.701,0.017,0.354,0.323,-0.041104016035507195,-6.054187658386427,-6.776629264800629
1621787114080.98,0.0,0.346,0.321,-0.11695246617510201,-6.060069783091131,-6.81285076956117
1621787114086.255,-0.012,0.339,0.318,-0.19274128427231726,-6.0659472832700985,-6.849043796979025
1621787114089.892,-0.025107756425098403,0.33762023616577913,0.3138607084973373,-0.245,-6.07,-6.874
1621787114091.527,-0.031,0.337,0.312,-0.26479853905655776,-6.0803798165927585,-6.908887716881216
1621787114096.795,-0.038,0.319,0.307,-0.3285872619508905,-6.113822448013089,-7.02129211693288
1621787114102.059,-0.033,0.305,0.298,-0.3923316399018384,-6.147241830628149,-7.133618375166832
1621787114106.904,-0.031158493017213382,0.2875056836635271,0.28234719064631375,-0.451,-6.178,-7.237
1621787114107.321,-0.031,0.286,0.281,-0.4558147967035338,-6.181856750420688,-7.244001107451567
1621787114112.578,-0.019,0.264,0.276,-0.5165128076054596,-6.230477095888046,-7.332260970242633
1621787114117.832,0.0,0.253,0.258,-0.5771798098635101,-6.279072602798832,-7.420475743934186
1621787114123.082,0.03,0.227,0.237,-0.6377988896719354,-6.3276297228494585,-7.508620834471947
1621787114123.879,0.03501172529313233,0.22517755443886098,0.23487381351200445,-0.647,-6.335,-7.522
1621787114128.329,0.063,0.215,0.223,-0.6367527604001499,-6.35050223426644,-7.501242771066971
1621787114133.571,0.084,0.201,0.206,-0.6246824026292271,-6.368762519099374,-7.476792559172024
1621787114138.81,0.11,0.19,0.194,-0.6126187909014904,-6.387012598379797,-7.4523560123389165
1621787114140.816,0.11880928628035989,0.18808493776513915,0.1878718008484453,-0.608,-6.394,-7.443
1621787114144.047,0.133,0.185,0.178,-0.5854378422109536,-6.35652387350294,-7.381240873170661
1621787114149.279,0.15,0.164,0.169,-0.5489053872491657,-6.2958428466172585,-7.281241017639665
1621787114154.507,0.162,0.159,0.155,-0.512400208035366,-6.235207125211287,-7.181315823690027
1621787114157.715,0.162,0.15461059413027917,0.15186471009305655,-0.49,-6.198,-7.12
1621787114159.623,0.162,0.152,0.15,-0.4731387873717582,-6.176550702302849,-7.082836510941834
1621787114164.804,0.155,0.141,0.138,-0.4273535291268548,-6.118306870385863,-6.981922064197966
1621787114169.979,0.145,0.126,0.131,-0.3816200519572014,-6.06012890963263,-6.881121747170974
1621787114174.349,0.13148036253776435,0.1200851586102719,0.1250851586102719,-0.343,-6.011,-6.796
1621787114175.151,0.129,0.119,0.124,-0.32983343819961664,-6.008212917575102,-6.789416719099808
1621787114180.319,0.108,0.115,0.115,-0.2449604337074377,-5.990247099105954,-6.746980216853719
1621787114185.483,0.087,0.099,0.112,-0.16015959672817195,-5.972296556971657,-6.704579798364086
1621787114190.642,0.068,0.101,0.106,-0.07543493656809236,-5.95436213985748,-6.662217468284046
1621787114191.034,0.06587165522140659,0.10153208619464836,0.10561993843239403,-0.069,-5.953,-6.659
1621787114195.797,0.04,0.108,0.101,0.015432855089047334,-5.953,-6.675886571017809
1621787114200.949,0.017,0.103,0.101,0.10675536191062995,-5.953,-6.694151072382126
1621787114206.096,0.002,0.106,0.103,0.19799131531848724,-5.953,-6.712398263063697
1621787114207.676,-0.00383727333143454,0.1050783252634577,0.10361444982436152,0.226,-5.953,-6.718
1621787114211.239,-0.017,0.103,0.105,0.2511172827701858,-5.953,-6.774674894455804
1621787114216.377,-0.035,0.101,0.108,0.28733718244803697,-5.953,-6.856401847575058
1621787114221.513,-0.045,0.096,0.108,0.3235433135729101,-5.953,-6.9380977331901565
1621787114224.273,-0.046075795784365034,0.096,0.1106894894609126,0.343,-5.953,-6.982
1621787114226.644,-0.047,0.096,0.113,0.34586451650960787,-5.975486454600422,-7.0185225854975
1621787114231.77,-0.051,0.094,0.112,0.3520572047958236,-6.0240990576472155,-7.097479361146751
1621787114236.894,-0.051,0.091,0.115,0.35824753351325045,-6.072693138079017,-7.1764060522939435
1621787114240.828,-0.04408224013738492,0.08946272003052998,0.12038047989314507,0.363,-6.11,-7.237
1621787114242.012,-0.042,0.089,0.122,0.360203495076732,-6.114875957302108,-7.242664715100979
1621787114247.126,-0.037,0.094,0.129,0.34812547680298056,-6.135935066087111,-7.2671304444247316
1621787114252.237,-0.03,0.096,0.129,0.33605437771666813,-6.156982110647861,-7.291582157958544
1621787114257.341,-0.02100344266998183,0.09799923496222626,0.13799655733001817,0.324,-6.178,-7.316
1621787114257.343,-0.021,0.098,0.138,0.32398838415266545,-6.178002370581089,-7.316008059975702
1621787114262.445,-0.01,0.098,0.145,0.29364488695291435,-6.184194921030017,-7.337062731502059
1621787114267.546,-0.002,0.093,0.147,0.26330864965774736,-6.190385989865766,-7.358112365543604
1621787114272.643,0.01,0.089,0.15,0.2329941920763327,-6.1965726138619734,-7.379146887130708
1621787114273.819,0.012540490003356188,0.089,0.14930713908999377,0.226,-6.198,-7.384
1621787114277.735,0.021,0.089,0.147,0.24934650230209418,-6.207290954997773,-7.384
1621787114282.823,0.038,0.087,0.15,0.279679489083618,-6.219362245655725,-7.384
1621787114287.909,0.052,0.089,0.15,0.3100008317243428,-6.231428902420912,-7.384
1621787114290.257,0.058008938869665516,0.089,0.15323558246828142,0.324,-6.237,-7.384
1621787114292.989,0.065,0.089,0.157,0.3304995159728945,-6.227167398912801,-7.35633539355127
1621787114298.065,0.08,0.094,0.159,0.3425756050338819,-6.208898443666691,-7.304934604214759
1621787114303.136,0.082,0.099,0.159,0.3546400774443369,-6.190647062327798,-7.25358326010872
1621787114306.65,0.09170485960602996,0.10385242980301498,0.159,0.363,-6.178,-7.218
1621787114308.205,0.096,0.106,0.159,0.3610978828869181,-6.167728567589358,-7.1993592522917975
1621787114313.269,0.101,0.112,0.159,0.3549042073516677,-6.134282719699006,-7.138661232046344
1621787114318.328,0.105,0.122,0.162,0.34871680253217474,-6.1008707336737436,-7.078024664815312
1621787114323.002,0.10130226943505553,0.12662216320618058,0.16569773056494447,0.343,-6.07,-7.022
1621787114323.384,0.101,0.127,0.166,0.34208609717750993,-6.06725829153253,-7.017617953133189
1621787114328.436,0.105,0.129,0.164,0.33000214119937116,-6.031006423598114,-6.959676933443139
1621787114333.483,0.096,0.141,0.162,0.31793044845399415,-5.994791345361983,-6.901794714381972
1621787114338.526,0.089,0.15,0.162,0.30586809912405477,-5.9586042973721645,-6.843957295799955
1621787114339.307,0.08791527804689013,0.15061984111606277,0.16292976167409418,0.304,-5.953,-6.835
1621787114343.566,0.082,0.154,0.168,0.3092376377338097,-5.937548968685261,-6.804359819257213
1621787114348.601,0.059,0.161,0.166,0.31542972948629416,-5.919282298015433,-6.768136082505179
1621787114353.632,0.04,0.173,0.169,0.32161671720659324,-5.90103068424055,-6.73194220434143
1621787114355.57,0.031902360827747014,0.17377120373069074,0.17054240746138152,0.324,-5.894,-6.718
1621787114358.658,0.019,0.175,0.173,0.29777353047241256,-5.905212765957447,-6.736624594302199
1621787114363.682,0.003,0.185,0.169,0.255103678326722,-5.923455673758865,-6.766926373362183
1621787114368.716,-0.019,0.192,0.175,0.2123467363865849,-5.941735815602837,-6.7972899987979325
1621787114371.818,-0.030100713488326943,0.1895331747803718,0.17068305586565063,0.186,-5.953,-6.816
1621787114373.746,-0.037,0.188,0.168,0.15570050104572605,-5.962268082033073,-6.845111283309008
1621787114378.773,-0.044,0.185,0.162,0.07670003460676185,-5.986432930590873,-6.921013692240562
1621787114383.796,-0.052,0.173,0.154,-0.002239042445945749,-6.01057900121876,-6.9968571192127715
1621787114388.044,-0.05707930329862801,0.17469310109954267,0.15061379780091466,-0.069,-6.031,-7.061
1621787114388.814,-0.058,0.175,0.15,-0.07551505510908735,-6.0328546507244845,-7.071271911704838
1621787114393.828,-0.056,0.164,0.14,-0.11793727666118842,-6.044931049560484,-7.138156582181144
1621787114398.839,-0.051,0.157,0.127,-0.16033677608069596,-6.057000980052169,-7.205005427981243
1621787114403.845,-0.047,0.148,0.12,-0.2026908312350165,-6.069057973855224,-7.271782624428932
1621787114404.236,-0.04621823150497755,0.14721823150497754,0.11921823150497755,-0.206,-6.07,-7.277
1621787114408.848,-0.037,0.138,0.11,-0.21171160765579172,-6.047724730142413,-7.288137634928794
1621787114413.846,-0.024,0.129,0.099,-0.21790155111420192,-6.023583950654612,-7.300208024672694
1621787114418.841,-0.023,0.112,0.091,-0.22408786623529767,-5.999457321682339,-7.312271339158831
1621787114420.385,-0.02176236606487597,0.10983414061353296,0.08759650667840892,-0.226,-5.992,-7.316
1621787114423.831,-0.019,0.105,0.08,-0.226,-5.979377072786249,-7.299098114408706
1621787114428.818,-0.017,0.089,0.072,-0.226,-5.961109376421014,-7.274637978597629
1621787114433.801,-0.023,0.093,0.061,-0.226,-5.942856883014521,-7.2501981992906295
1621787114436.492,-0.02354055909759686,0.08218881804806277,0.054513290828837664,-0.226,-5.933,-7.237
1621787114438.779,-0.024,0.073,0.049,-0.22030534026321388,-5.927447706756634,-7.2230480836448745
1621787114443.753,-0.023,0.063,0.044,-0.2079209142579253,-5.915372891401477,-7.192706239931917
1621787114448.725,-0.035,0.054,0.037,-0.19554074344244857,-5.903302224856388,-7.162374821433999
1621787114452.557,-0.04425958702064897,0.050141838741396265,0.026968780727630287,-0.186,-5.894,-7.139
1621787114453.691,-0.047,0.049,0.024,-0.17907528484719412,-5.900924715152806,-7.136244246010619
1621787114458.653,-0.049,0.04,0.017,-0.1487749973378767,-5.931225002662123,-7.124185968328339
1621787114463.612,-0.056,0.024,0.014,-0.11849409008625279,-5.961505909913747,-7.11213540319759
1621787114468.594,-0.058,0.035,0.009,-0.0880730486636141,-5.991926951336386,-7.10002907038654
1621787114468.606,-0.05800721083096243,0.034949524183263025,0.008978367507112724,-0.088,-5.992,-7.1
1621787114473.571,-0.061,0.014,0.0,-0.08212966592224602,-6.034328198350121,-7.106179299029215
1621787114478.544,-0.061,0.009,-0.005,-0.07625009495161265,-6.076722999559424,-7.112368321103566
1621787114483.514,-0.061,-0.005,-0.009,-0.07037398781580907,-6.119092824696534,-7.11855369703599
1621787114484.676,-0.05936225116736299,-0.005,-0.010871712951585157,-0.069,-6.129,-7.12
1621787114488.481,-0.054,-0.005,-0.017,-0.054996451578514544,-6.129,-7.124509617288275
1621787114493.443,-0.049,-0.005,-0.021,-0.03673388361786699,-6.129,-7.130390783241704
1621787114498.402,-0.044,-0.007,-0.03,-0.018482996512495624,-6.129,-7.136268187563773
1621787114500.707,-0.03981330376940133,-0.009325942350332595,-0.034651884700665186,-0.01,-6.129,-7.139
1621787114503.357,-0.035,-0.012,-0.04,0.009552875440819503,-6.116075217928949,-7.112984733523656
1621787114508.308,-0.033,-0.017,-0.042,0.04608616399248889,-6.091926094988016,-7.064376883501519
1621787114513.254,-0.037,-0.019,-0.051,0.08257982077156771,-6.067803169320489,-7.0158217638886775
1621787114516.699,-0.04187763567231247,-0.0224840254802232,-0.04960638980791072,0.108,-6.051,-6.982
1621787114518.198,-0.044,-0.024,-0.049,0.11720920124274935,-6.0565443150339,-6.968186198135876
1621787114523.138,-0.051,-0.028,-0.054,0.1475575689863634,-6.074815271124444,-6.922663646520455
1621787114528.074,-0.061,-0.019,-0.056,0.1778819388114296,-6.093071779488514,-6.877177091782856
1621787114532.651,-0.07213848591374956,-0.019,-0.056,0.206,-6.11,-6.835
1621787114533.005,-0.073,-0.019,-0.056,0.20644494906100405,-6.110645176138457,-6.837180250398919
1621787114537.934,-0.079,-0.026,-0.058,0.21264048115870873,-6.1196286976801275,-6.867538357677673
1621787114542.859,-0.084,-0.016,-0.063,0.21883048975082853,-6.128604210138701,-6.89786939977906
1621787114547.779,-0.089,-0.016,-0.066,0.22501466797594208,-6.137571268565116,-6.928171873082116
1621787114548.563,-0.08788396226415095,-0.01615943396226415,-0.06695660377358491,0.226,-6.139,-6.933
1621787114552.696,-0.082,-0.017,-0.072,0.21559256128486898,-6.159294505494506,-6.966303803888419
1621787114557.61,-0.073,-0.014,-0.075,0.20321847383385844,-6.183423976023976,-7.005900883731653
1621787114562.519,-0.068,-0.005,-0.08,0.19085729654960423,-6.207528271728272,-7.045456651041266
1621787114564.448,-0.06526554929298922,-0.008515722337585286,-0.08273445070701077,0.186,-6.217,-7.061
1621787114567.457,-0.061,-0.014,-0.087,0.1971376167866442,-6.224550926635013,-7.0721376167866445
1621787114572.393,-0.054,-0.016,-0.094,0.21540782661969674,-6.236937509572676,-7.090407826619697
1621787114577.324,-0.044,-0.019,-0.099,0.2336590595803339,-6.249311226834124,-7.108659059580334
1621787114580.388,-0.03840426058954669,-0.023352241763685905,-0.099,0.245,-6.257,-7.12
1621787114582.252,-0.035,-0.026,-0.099,0.2404284946649267,-6.259227143624779,-7.113084132954633
1621787114587.177,-0.031,-0.03,-0.11,0.2283497812236125,-6.2651116450449065,-7.094811207492132
1621787114592.097,-0.028,-0.021,-0.113,0.21628364166730635,-6.270990020726184,-7.076557304060797
1621787114596.29,-0.0245895552025417,-0.02270522239872915,-0.11811566719618745,0.206,-6.276,-7.061
1621787114597.015,-0.024,-0.023,-0.119,0.20778186602649923,-6.276,-7.058304356524014
1621787114601.928,-0.021,-0.028,-0.124,0.21985942477263284,-6.276,-7.040033177908068
1621787114606.839,-0.019,-0.033,-0.129,0.2319321822630534,-6.276,-7.021769262730253
1621787114611.745,-0.023,-0.042,-0.133,0.2439923364572273,-6.276,-7.0035244140775275
1621787114612.155,-0.02308360721043721,-0.042836072104372076,-0.13341803605218605,0.245,-6.276,-7.002
1621787114616.648,-0.024,-0.052,-0.138,0.26742191548426897,-6.292745481184454,-6.982416301665638
1621787114621.549,-0.028,-0.049,-0.141,0.29188096853793954,-6.311012368908082,-6.9610533312769896
1621787114626.444,-0.033,-0.045,-0.143,0.3163095619987662,-6.329256508328193,-6.939716964836521
1621787114627.985,-0.03362990868719126,-0.05066917818472132,-0.143,0.324,-6.335,-6.933
1621787114631.337,-0.035,-0.063,-0.143,0.324,-6.347522586729331,-6.92472235792468
1621787114636.226,-0.038,-0.07,-0.15,0.324,-6.365788834951457,-6.912648058252427
1621787114641.111,-0.042,-0.063,-0.15,0.324,-6.384039577020593,-6.900584008410117
1621787114643.777,-0.04309221844368874,-0.06682276455291059,-0.15109221844368873,0.324,-6.394,-6.894
1621787114645.993,-0.044,-0.07,-0.152,0.33215832868390055,-6.404971545471453,-6.894
1621787114650.871,-0.042,-0.07,-0.157,0.35011905647511005,-6.429125627673424,-6.894
1621787114655.746,-0.04,-0.077,-0.155,0.3680680986919596,-6.453263994792636,-6.894
1621787114659.53,-0.038446293418876246,-0.08243797303393315,-0.15266944012831438,0.382,-6.472,-6.894
1621787114660.617,-0.038,-0.084,-0.152,0.3806954349167181,-6.469322208513264,-6.888644417026527
1621787114665.522,-0.033,-0.084,-0.157,0.3748081893892659,-6.457237862430598,-6.8644757248611965
1621787114670.424,-0.031,-0.086,-0.162,0.36892446020974706,-6.445160734114744,-6.8403214682294875
1621787114675.322,-0.031,-0.089,-0.169,0.36304571252313383,-6.433093830968538,-6.816187661937076
1621787114675.36,-0.030945536159601,-0.08903890274314213,-0.16904668329177058,0.363,-6.433,-6.816
1621787114680.217,-0.024,-0.094,-0.175,0.368839154681538,-6.421014366706316,-6.785882254800488
1621787114685.108,-0.019,-0.098,-0.182,0.37471910771940126,-6.408944989418071,-6.755554075973615
1621787114689.997,-0.021,-0.101,-0.187,0.38059700616378045,-6.396879829453293,-6.725236494523658
1621787114691.164,-0.021,-0.10315003248538158,-0.18723889249837572,0.382,-6.394,-6.718
1621787114694.882,-0.021,-0.11,-0.188,0.3890729479518221,-6.389284701365452,-6.704089869028083
1621787114699.763,-0.024,-0.106,-0.199,0.39835802086881134,-6.383094652754125,-6.685829225624671
1621787114704.643,-0.031,-0.106,-0.201,0.4076417004675357,-6.376905533021643,-6.667571322413846
1621787114706.934,-0.03194009216589862,-0.10788018433179723,-0.20335023041474654,0.412,-6.374,-6.659
1621787114709.517,-0.033,-0.11,-0.206,0.41840256959314776,-6.370880799428979,-6.662119200571021
1621787114714.389,-0.04,-0.112,-0.208,0.43047849362256774,-6.364997656953108,-6.668002343046892
1621787114719.257,-0.047,-0.115,-0.211,0.4425453402848897,-6.359118936784284,-6.673881063215715
1621787114722.668,-0.04840193668155136,-0.12271065174853243,-0.2138038733631027,0.451,-6.355,-6.678
1621787114724.123,-0.049,-0.126,-0.215,0.456467039800995,-6.3531467661691545,-6.685320273631841
1621787114728.985,-0.063,-0.136,-0.216,0.47473484141791045,-6.346954291044776,-6.709780550373134
1621787114733.844,-0.063,-0.133,-0.218,0.4929907182835821,-6.340765858208956,-6.734224860074627
1621787114738.371,-0.072324650507895,-0.1395272553555265,-0.219864930101579,0.51,-6.335,-6.757
1621787114738.699,-0.073,-0.14,-0.22,0.5116322924457741,-6.334183853777113,-6.757397609698329
1621787114743.552,-0.077,-0.141,-0.22,0.5357921652954375,-6.3221039173522815,-6.76328270693094
1621787114748.4,-0.084,-0.154,-0.222,0.5599265145848915,-6.310036742707554,-6.769161586886063
1621787114753.246,-0.087,-0.159,-0.22,0.5840523560209424,-6.297973821989529,-6.775038394415358
1621787114754.039,-0.08896530859217426,-0.15818112141992738,-0.22,0.588,-6.296,-6.776
1621787114758.088,-0.099,-0.154,-0.22,0.593148232080216,-6.300890820476206,-6.761070126967374
1621787114762.966,-0.103,-0.154,-0.225,0.5993510073572781,-6.306783456989415,-6.743082078663893
1621787114767.841,-0.105,-0.164,-0.218,0.6055497469965542,-6.312672259646727,-6.725105733709992
1621787114769.768,-0.1077680861723447,-0.16202279559118238,-0.21997720440881763,0.608,-6.315,-6.718
1621787114772.714,-0.112,-0.159,-0.223,0.6301041634325809,-6.318746468378404,-6.710507063243193
1621787114777.583,-0.113,-0.164,-0.222,0.6666354745568008,-6.324938216026577,-6.698123567946847
1621787114782.448,-0.115,-0.159,-0.22,0.7031374771026732,-6.331124996119097,-6.685750007761806
1621787114785.495,-0.11625292375646239,-0.15774707624353762,-0.22187938563469356,0.726,-6.335,-6.678
1621787114787.312,-0.117,-0.157,-0.223,0.7305150742042873,-6.335,-6.664454777387138
1621787114792.172,-0.117,-0.164,-0.22,0.7425926853551539,-6.335,-6.6282219439345385
1621787114797.028,-0.122,-0.166,-0.216,0.7546599825767711,-6.335,-6.592020052269687
1621787114801.189,-0.12800045267075746,-0.16171396237803037,-0.21171396237803036,0.765,-6.335,-6.561
1621787114801.882,-0.129,-0.161,-0.211,0.7680531639650873,-6.333274298628429,-6.557946836034913
1621787114806.734,-0.136,-0.159,-0.206,0.7894253117206983,-6.321194389027432,-6.536574688279302
1621787114811.581,-0.145,-0.168,-0.204,0.8107770261845386,-6.309126028678304,-6.515222973815462
1621787114816.426,-0.157,-0.162,-0.201,0.8321190617206982,-6.297063139027432,-6.493880938279302
1621787114816.853,-0.15735274542429284,-0.16173544093178038,-0.19985357737104825,0.834,-6.296,-6.492
1621787114821.268,-0.161,-0.159,-0.188,0.8450164948453608,-6.284983505154639,-6.492
1621787114826.106,-0.171,-0.159,-0.19,0.8570880974695407,-6.272911902530459,-6.492
1621787114830.942,-0.18,-0.161,-0.187,0.8691548266166823,-6.260845173383317,-6.492
1621787114832.483,-0.18255081834714082,-0.1597245908264296,-0.1857245908264296,0.873,-6.257,-6.492
1621787114835.775,-0.188,-0.157,-0.183,0.8770094525650255,-6.257,-6.502340167141382
1621787114840.604,-0.202,-0.157,-0.176,0.882891013803249,-6.257,-6.517508404018906
1621787114845.431,-0.215,-0.15,-0.176,0.888769898901374,-6.257,-6.532669739271965
1621787114848.083,-0.21884842350321373,-0.15109954957234678,-0.17435067564147982,0.892,-6.257,-6.541
1621787114850.255,-0.222,-0.152,-0.173,0.8975804033497475,-6.262440893266003,-6.543790201674874
1621787114855.075,-0.223,-0.157,-0.168,0.9099650597497099,-6.274515933255967,-6.549982529874855
1621787114859.893,-0.232,-0.166,-0.166,0.9223446978013362,-6.286586080356303,-6.5561723489006685
1621787114863.651,-0.23746424586672077,-0.1620969672380566,-0.16443878689522265,0.932,-6.296,-6.561
1621787114864.707,-0.239,-0.161,-0.164,0.9359431103847121,-6.296,-6.561
1621787114869.519,-0.243,-0.159,-0.154,0.9539085994468193,-6.296,-6.561
1621787114874.327,-0.25,-0.157,-0.148,0.9718585931606739,-6.296,-6.561
1621787114879.132,-0.255,-0.155,-0.147,0.9897985604727181,-6.296,-6.561
1621787114879.186,-0.25502247191011235,-0.15502247191011237,-0.14689887640449437,0.99,-6.296,-6.561
1621787114883.934,-0.257,-0.157,-0.138,1.0022507086614174,-6.296,-6.545992881889764
1621787114888.734,-0.265,-0.159,-0.133,1.0146349606299212,-6.296,-6.530822173228346
1621787114893.53,-0.271,-0.145,-0.131,1.0270097637795277,-6.296,-6.515663039370079
1621787114894.689,-0.2729343928280359,-0.14379100448247759,-0.12930740627546863,1.03,-6.296,-6.512
1621787114898.323,-0.279,-0.14,-0.124,1.0391589883563157,-6.286841011643684,-6.507303082894197
1621787114903.113,-0.284,-0.138,-0.11,1.0512315010570825,-6.274768498942917,-6.501112050739957
1621787114907.9,-0.291,-0.127,-0.101,1.0632960146413808,-6.262703985358619,-6.494925120696728
1621787114910.163,-0.29431139007960805,-0.1255808328230251,-0.09721555419473363,1.069,-6.257,-6.492
1621787114912.684,-0.298,-0.124,-0.093,1.0593666234464438,-6.240998798266975,-6.495265551374087
1621787114917.466,-0.309,-0.134,-0.084,1.0410934347427343,-6.21064672211505,-6.501459852629582
1621787114922.243,-0.318,-0.14,-0.075,1.022839837449796,-6.180327187628475,-6.507647512728882
1621787114925.603,-0.3229256608211054,-0.1371853366736541,-0.07007433917889463,1.01,-6.159,-6.512
1621787114927.018,-0.325,-0.136,-0.068,1.006418764555839,-6.156245203504492,-6.5146629699456575
1621787114931.79,-0.332,-0.138,-0.059,0.9943416720797225,-6.146955132369017,-6.523643372043283
1621787114936.559,-0.34,-0.136,-0.052,0.9822719941697429,-6.137670764745955,-6.532618260745576
1621787114941.013,-0.35215140646615767,-0.136,-0.045456934979761235,0.971,-6.129,-6.541
1621787114941.324,-0.353,-0.136,-0.045,0.9713843198272577,-6.129991140607138,-6.542982281214277
1621787114946.088,-0.367,-0.134,-0.035,0.9772706877937254,-6.145171773783818,-6.573343547567637
1621787114950.847,-0.374,-0.143,-0.031,0.9831510224819001,-6.160336847453321,-6.603673694906643
1621787114955.604,-0.389,-0.141,-0.023,0.9890289438587577,-6.175495697319954,-6.633991394639909
1621787114956.39,-0.39015743784672285,-0.14050395520854736,-0.022338606944729812,0.99,-6.178,-6.639
1621787114960.357,-0.396,-0.138,-0.019,0.9496734862706417,-6.208503388590156,-6.694836711317573
1621787114965.108,-0.398,-0.145,-0.01,0.9013779630277768,-6.245034617709758,-6.761707435807694
1621787114969.856,-0.393,-0.134,-0.007,0.8531122211969837,-6.28154331986382,-6.828536924496484
1621787114971.736,-0.3894332544256896,-0.13835935570193494,-0.004225864553314121,0.834,-6.296,-6.855
1621787114974.6,-0.384,-0.145,0.0,0.7917335395210917,-6.314327934189969,-6.893526065746262
1621787114979.342,-0.372,-0.155,-0.002,0.7217530210757899,-6.344673468737047,-6.957313617957466
1621787114984.081,-0.363,-0.157,0.0,0.6518157382903421,-6.375000255077639,-7.021061760673405
1621787114987.05,-0.35547540476436007,-0.15825409920594,-0.004389347220789935,0.608,-6.394,-7.061
1621787114988.816,-0.351,-0.159,-0.007,0.5898582794152888,-6.389493457943925,-7.072324131320393
1621787114993.548,-0.332,-0.173,0.0,0.5412420800383417,-6.377416822429907,-7.102670548765876
1621787114998.278,-0.325,-0.187,-0.005,0.4926484543493889,-6.365345794392524,-7.133002875629043
1621787115002.332,-0.3155638787002118,-0.19128914604535827,-0.009289146045358267,0.451,-6.355,-7.159
1621787115003.004,-0.314,-0.192,-0.01,0.4479600409836066,-6.357599385245902,-7.152082991803279
1621787115007.727,-0.302,-0.206,-0.009,0.4265897476946721,-6.375872534579918,-7.103457831711065
1621787115012.448,-0.281,-0.213,-0.014,0.4052293961321721,-6.394137183017418,-7.054855292648566
1621787115017.165,-0.264,-0.215,-0.017,0.38388671875,-6.41238671875,-7.0062929687499995
1621787115017.582,-0.26214232442510876,-0.2157076859332919,-0.017619225191630415,0.382,-6.414,-7.002
1621787115021.879,-0.243,-0.223,-0.024,0.31000423504499736,-6.342004235044997,-7.013011116993118
1621787115026.59,-0.218,-0.23,-0.037,0.23106660570768564,-6.263066605707685,-7.025083930891766
1621787115031.298,-0.197,-0.246,-0.049,0.1521821550603975,-6.184182155060397,-7.037148611578998
1621787115032.801,-0.18933335063048104,-0.2504722121322194,-0.05506943075086918,0.127,-6.159,-7.041
1621787115036.003,-0.173,-0.26,-0.068,0.005131410565576658,-6.086469213208578,-7.00578883315649
1621787115040.705,-0.154,-0.264,-0.094,-0.17383839747918073,-5.9799543101507995,-6.954079563358091
1621787115045.404,-0.131,-0.272,-0.119,-0.3526874055496608,-5.873511301887399,-6.9024051959744055
1621787115047.987,-0.12109929815440604,-0.28190070184559396,-0.1311008578112815,-0.451,-5.815,-6.874
1621787115050.1,-0.113,-0.29,-0.141,-0.5261517519130084,-5.799941763995167,-6.830359001208215
1621787115054.793,-0.094,-0.304,-0.157,-0.6930572372130487,-5.766498735400725,-6.733436149818767
1621787115059.483,-0.082,-0.314,-0.176,-0.8598585259766411,-5.73307658477648,-6.6365738058799835
1621787115063.142,-0.07809646838212314,-0.31946494426502764,-0.19239483279508282,-0.99,-5.707,-6.561
1621787115064.17,-0.077,-0.321,-0.197,-0.9860583069671337,-5.713048459998708,-6.548291437980241
1621787115068.853,-0.073,-0.318,-0.215,-0.9680987925356751,-5.740607025246981,-6.490387486278815
1621787115073.535,-0.08,-0.304,-0.23,-0.9501439594498612,-5.768158407051075,-6.432498627881449
1621787115078.212,-0.098,-0.293,-0.232,-0.9322078517466262,-5.795681055078453,-6.374670142700329
1621787115078.266,-0.0981970860097133,-0.2928840670531098,-0.23189566034779885,-0.932,-5.796,-6.374
1621787115082.887,-0.115,-0.283,-0.223,-0.7458287711124054,-5.931035381479324,-6.521283488642982
1621787115087.558,-0.154,-0.274,-0.209,-0.5576312690092539,-6.06754047757717,-6.6701699993528765
1621787115092.227,-0.195,-0.272,-0.188,-0.3695222934058111,-6.203981362842167,-6.8189864751181
1621787115093.357,-0.20444390958560069,-0.27078924236082047,-0.18170406027626623,-0.324,-6.237,-6.855
1621787115096.893,-0.234,-0.267,-0.162,-0.22259181225892194,-6.40742209328709,-7.101243492917572
1621787115101.555,-0.264,-0.26,-0.127,-0.08890019772454702,-6.632098278824025,-7.425878918025348
1621787115106.215,-0.279,-0.253,-0.087,0.044742407053255995,-6.856692100742277,-7.750395335645522
1621787115108.421,-0.2785262440354465,-0.25157873210633946,-0.06994478527607362,0.108,-6.963,-7.904
1621787115110.871,-0.278,-0.25,-0.051,0.07913983525856606,-7.0732230020633295,-8.067051778200192
1621787115115.524,-0.262,-0.255,-0.028,0.0243354291563094,-7.282532485256129,-8.376681191207291
1621787115120.175,-0.222,-0.272,-0.007,-0.03044884729736315,-7.491765089113093,-8.686196877386232
1621787115123.448,-0.17270805756907237,-0.2881959239415905,0.002858388486185525,-0.069,-7.639,-8.904
1621787115124.823,-0.152,-0.295,0.007,-0.07615232823184631,-7.6687096711169005,-8.902257766199934
1621787115129.467,-0.054,-0.314,0.016,-0.10030921523933573,-7.7690536633018565,-8.896373396287855
1621787115134.108,0.047,-0.326,0.03,-0.12444959296646044,-7.869329078476066,-8.890493047867144
1621787115138.443,0.14327176544899461,-0.3213266133277187,0.05430161069586272,-0.147,-7.963,-8.885
1621787115138.746,0.15,-0.321,0.056,-0.15058354541895067,-7.949495905116158,-8.868317280083529
1621787115143.381,0.23,-0.311,0.077,-0.20540514878621768,-7.742908281127643,-8.613102584181675
1621787115148.014,0.314,-0.29,0.094,-0.2602007635082224,-7.536418591751501,-8.358008874967371
1621787115152.643,0.375,-0.274,0.096,-0.31495306382145655,-7.330092126729314,-8.103116810232315
1621787115153.408,0.37648812539582016,-0.2690395820139329,0.09831486172683133,-0.324,-7.296,-8.061
1621787115157.269,0.384,-0.244,0.11,-0.24023794422467062,-7.105984225324485,-7.843063540066041
1621787115161.892,0.37,-0.22,0.14,-0.1399459247392683,-6.878469921862229,-7.582118563441985
1621787115166.512,0.351,-0.188,0.164,-0.03972275803445907,-6.651111812207801,-7.32135273155262
1621787115168.343,0.3391021627624134,-0.1737225953148961,0.1762944318121728,0.0,-6.561,-7.218
1621787115171.129,0.321,-0.152,0.195,0.00542072501515226,-6.496698986027159,-7.164727357609711
1621787115175.742,0.271,-0.12,0.227,0.014396677969433388,-6.390225613052238,-7.076515406162465
1621787115180.354,0.209,-0.087,0.257,0.02337073074843973,-6.283774780087473,-6.98832212885154
1621787115183.247,0.17321267351912684,-0.07067595634205785,0.2733240436579421,0.029,-6.217,-6.933
1621787115184.962,0.152,-0.061,0.283,-0.018401014728338504,-6.219306618721573,-6.956758172832209
1621787115189.566,0.089,-0.047,0.314,-0.14566302152603322,-6.2254994171058895,-7.020543996190664
1621787115194.169,0.035,-0.033,0.349,-0.27289803457957734,-6.231690901926013,-7.084316289837939
1621787115198.116,-0.007061325262822556,-0.028708028034405864,0.36874307104173304,-0.382,-6.237,-7.139
1621787115198.767,-0.014,-0.028,0.372,-0.4086765813934359,-6.249899531134326,-7.160937978119602
1621787115203.363,-0.049,-0.021,0.396,-0.5969730361108826,-6.340950777329933,-7.315787036275397
1621787115207.955,-0.08,-0.023,0.41,-0.7851094513449042,-6.431924636012174,-7.470504483013902
1621787115212.545,-0.091,-0.028,0.426,-0.973155844369499,-6.522854964218146,-7.62514789833018
1621787115212.956,-0.09055186545319069,-0.027641492362552558,0.426627388365533,-0.99,-6.531,-7.639
1621787115217.132,-0.086,-0.024,0.433,-1.1312983726030108,-6.53946098039539,-7.832756451054428
1621787115221.715,-0.063,-0.031,0.44,-1.2863672443074083,-6.5487465415752935,-8.04539580207423
1621787115226.296,-0.037,-0.042,0.44,-1.4413617701858235,-6.558027650909331,-8.257933205823674
1621787115227.763,-0.026102517601877533,-0.04424359931726051,0.43711537230637937,-1.491,-6.561,-8.326
1621787115230.873,-0.003,-0.049,0.431,-1.5671944715232227,-6.54647674437817,-8.371464104555294
1621787115235.448,0.035,-0.054,0.429,-1.679276126431274,-6.525113114022768,-8.438341556102639
1621787115240.02,0.068,-0.059,0.424,-1.7912860069725558,-6.503763164416833,-8.505176180956001
1621787115242.539,0.0873014430785676,-0.07168380545163014,0.41903677177979687,-1.853,-6.492,-8.542
1621787115244.588,0.103,-0.082,0.415,-1.8693995826639949,-6.501589586473014,-8.498360432572081
1621787115249.153,0.129,-0.098,0.403,-1.9059410264478414,-6.522957040888992,-8.40112303131676
1621787115253.716,0.157,-0.098,0.389,-1.9424648825000415,-6.544314210953414,-8.303932431313449
1621787115257.281,0.1788955711455042,-0.09643603063246399,0.3780522144272479,-1.971,-6.561,-8.228
1621787115258.275,0.185,-0.096,0.375,-1.971,-6.558973282442748,-8.202125572519083
1621787115262.831,0.211,-0.112,0.365,-1.971,-6.549682542316628,-8.083513790242284
1621787115267.384,0.232,-0.133,0.353,-1.971,-6.54039827414537,-7.964984633255891
1621787115271.934,0.253,-0.136,0.332,-1.971,-6.5311199800862925,-7.846531745768337
1621787115271.993,0.2532458655498282,-0.1359352985395189,0.3318188359106529,-1.971,-6.531,-7.845
1621787115276.481,0.272,-0.131,0.318,-1.9230050054877441,-6.52519168856221,-7.689092692985665
1621787115281.025,0.298,-0.126,0.302,-1.8744121295772775,-6.519311022050753,-7.531243223467589
1621787115285.566,0.316,-0.115,0.286,-1.8258505836964114,-6.51343414707154,-7.373495526657132
1621787115286.674,0.3194186571981924,-0.11206972240154939,0.2840464816010329,-1.814,-6.512,-7.335
1621787115290.104,0.33,-0.103,0.278,-1.747503616546115,-6.507317156094796,-7.181168577714076
1621787115294.639,0.34,-0.103,0.271,-1.6595848805039832,-6.501125695810139,-6.977779107363088
1621787115299.171,0.347,-0.093,0.269,-1.571722942568581,-6.494938235392153,-6.774521032632245
1621787115301.323,0.3436737642175624,-0.08682270497547302,0.2647234111368659,-1.53,-6.492,-6.678
1621787115303.7,0.34,-0.08,0.26,-1.4582862153630305,-6.469721568037948,-6.547256501478178
1621787115308.226,0.335,-0.065,0.26,-1.321730971588916,-6.427299644235106,-6.298298642080473
1621787115312.749,0.321,-0.058,0.264,-1.1852714836899334,-6.38490746772227,-6.049515358019742
1621787115315.94,0.3075869072053581,-0.051646429728853846,0.2675297612617479,-1.089,-6.355,-5.874
1621787115317.269,0.302,-0.049,0.269,-1.0469898895212588,-6.342424305323067,-5.813217475728155
1621787115321.785,0.278,-0.026,0.281,-0.9042527452293271,-6.299696049548041,-5.606697572815534
1621787115326.299,0.246,-0.016,0.293,-0.7615696183461667,-6.256983963843321,-5.400255825242718
1621787115330.525,0.21321248038101423,0.0017989392217351262,0.3061150078475943,-0.628,-6.217,-5.207
1621787115330.81,0.211,0.003,0.307,-0.6264520458320052,-6.214903403848412,-5.196830528946971
1621787115335.317,0.192,0.017,0.318,-0.6019869482796222,-6.181767132479995,-5.036104128571189
1621787115339.822,0.162,0.038,0.325,-0.5775311278498214,-6.148643426328239,-4.875438675367813
1621787115344.323,0.133,0.063,0.325,-0.5530978375748629,-6.1155502357026625,-4.714921236725997
1621787115345.078,0.12846971999131757,0.06702691556327328,0.32617451703928807,-0.549,-6.11,-4.688
1621787115348.822,0.106,0.087,0.332,-0.5185750096672775,-6.089630726811143,-4.609616974058071
1621787115353.317,0.07,0.11,0.335,-0.4820495468989055,-6.065177239025538,-4.515517476756503
1621787115357.81,0.038,0.126,0.349,-0.4455379713848585,-6.040733048639015,-4.42145375678811
1621787115359.599,0.026442268994398214,0.13078250938162833,0.3537825093816283,-0.431,-6.031,-4.384
1621787115362.299,0.009,0.138,0.361,-0.4639807922360196,-6.0164660915570085,-4.373006402587993
1621787115366.785,-0.023,0.164,0.365,-0.5187768024127647,-5.992318697241832,-4.354741065862412
1621787115371.268,-0.056,0.185,0.372,-0.5735400077505013,-5.968185759296389,-4.336486664083166
1621787115374.089,-0.07992339544513458,0.19507300860847773,0.37388868911408957,-0.608,-5.953,-4.325
1621787115375.749,-0.094,0.201,0.375,-0.640605808848362,-5.994560925363054,-4.325
1621787115380.226,-0.136,0.222,0.375,-0.7285489361702128,-6.106657446808511,-4.325
1621787115384.7,-0.171,0.237,0.374,-0.8164297196892942,-6.218674501857481,-4.325
1621787115388.547,-0.1968074025548641,0.2387204935036576,0.37658074025548643,-0.892,-6.315,-4.325
1621787115389.172,-0.201,0.239,0.377,-0.9119742739151039,-6.345632997088891,-4.341551350619457
1621787115393.64,-0.23,0.237,0.375,-1.0547591226051045,-6.564611062216506,-4.459867646063232
1621787115398.105,-0.244,0.253,0.363,-1.1974581443368764,-6.783457501184754,-4.578112822422314
1621787115402.567,-0.239,0.26,0.372,-1.340055734208923,-7.002148381964661,-4.6962739489540315
1621787115402.972,-0.23772831800262811,0.2597274967148489,0.3722725032851511,-1.353,-7.022,-4.707
1621787115407.026,-0.225,0.257,0.375,-1.471860637106897,-7.195784391220274,-4.905852155918174
1621787115411.482,-0.206,0.246,0.372,-1.6025107032601689,-7.386805933439631,-5.124427859008719
1621787115415.935,-0.182,0.239,0.363,-1.73307487193405,-7.5777018862163725,-5.342859856837535
1621787115417.365,-0.16882520436714762,0.23835732704229987,0.36075064464804957,-1.775,-7.639,-5.413
1621787115420.385,-0.141,0.237,0.356,-1.8513255766517651,-7.7628450816746275,-5.505936377080111
1621787115424.832,-0.094,0.22,0.346,-1.9637160680593564,-7.945208716493005,-5.6427865071135965
1621787115429.275,-0.052,0.211,0.332,-2.0760016657884446,-8.127402151926706,-5.779508915367749
1621787115431.728,-0.02604473756526518,0.20216416597966474,0.3220596867271228,-2.138,-8.228,-5.855
1621787115433.717,-0.005,0.195,0.314,-2.159793443628495,-8.305595764256871,-5.8712409739142295
1621787115438.154,0.049,0.202,0.302,-2.2084093813361503,-8.478693274948458,-5.907470685454329
1621787115442.588,0.093,0.213,0.281,-2.2569905436949447,-8.65166696767818,-5.9436744816070615
1621787115446.057,0.12821340455997357,0.22786788192532217,0.2684796783786761,-2.295,-8.787,-5.972
1621787115447.021,0.138,0.232,0.265,-2.2612876265601254,-8.815385818436376,-5.970718929809285
1621787115451.449,0.18,0.257,0.258,-2.1064531578138603,-8.94575644112073,-5.964835219996927
1621787115455.875,0.215,0.3,0.255,-1.9516869845822875,-9.076069558981715,-5.9589541054141275
1621787115460.298,0.251,0.347,0.251,-1.7970232546227525,-9.206296419607643,-5.9530768836756645
1621787115460.356,0.25148447513812155,0.3476416022099447,0.25109165745856354,-1.795,-9.208,-5.953
1621787115464.717,0.288,0.396,0.258,-1.666005407440364,-9.26210436702146,-5.865882798863753
1621787115469.133,0.326,0.443,0.258,-1.5353860159485266,-9.316890225538177,-5.777668280913105
1621787115473.547,0.372,0.494,0.272,-1.4048243950853896,-9.371651853246176,-5.689492778671412
1621787115474.623,0.3807832585949178,0.5066869290815479,0.27175602059458565,-1.373,-9.385,-5.668
1621787115477.957,0.408,0.546,0.271,-1.5474883888450588,-9.272343738208761,-5.523256611669468
1621787115482.365,0.456,0.59,0.276,-1.77818462936919,-9.12339757486365,-5.331887112818578
1621787115486.77,0.497,0.62,0.265,-2.0087275409048813,-8.974550406476178,-5.14064480499434
1621787115488.858,0.5155067140162024,0.6256943735434469,0.2635764066141383,-2.118,-8.904,-5.05
1621787115491.17,0.536,0.632,0.262,-2.3239049501546925,-8.61670969405294,-5.091506531454108
1621787115495.569,0.552,0.637,0.251,-2.715689669989687,-8.070069353729805,-5.170482897903059
1621787115499.963,0.536,0.627,0.243,-3.106996046751461,-7.524096424888278,-5.249362839463733
1621787115503.062,0.48167978214960544,0.6178290541291541,0.2415890852506391,-3.383,-7.139,-5.305
1621787115504.356,0.459,0.614,0.241,-3.3481249720083373,-6.764778168225587,-5.648820302137701
1621787115508.745,0.321,0.59,0.222,-3.2298262449830326,-5.495389471689663,-6.815084715690833
1621787115513.131,0.126,0.565,0.183,-3.1116130604792174,-4.226918677759978,-7.980505796427402
1621787115517.235,-0.09685984848484847,0.5528269830659537,0.15678119429590018,-3.001,-3.04,-9.071
1621787115517.514,-0.112,0.552,0.155,-2.9313954222981717,-3.0660992525848827,-9.120872438851777
1621787115521.895,-0.34,0.478,0.162,-1.837652736782145,-3.476214040356964,-9.904550998567311
1621787115526.271,-0.469,0.363,0.187,-0.7451899953394441,-3.885848894412511,-10.68731246439853
1621787115530.646,-0.459,0.243,0.248,0.3470289472321473,-4.295392332522051,-11.469899245680356
1621787115531.379,-0.4361915083798883,0.23159575418994413,0.2646032402234637,0.53,-4.364,-11.601
1621787115535.016,-0.323,0.175,0.347,0.9493679129396703,-5.104531047249952,-11.28499197217945
1621787115539.384,-0.126,0.131,0.445,1.4529866087648575,-5.993834374297133,-10.905498105503556
1621787115543.75,0.106,0.075,0.499,1.9563801103825327,-6.882740047405664,-10.526173930344816
1621787115545.49,0.20454834014443263,0.04707132060684095,0.49221732071880425,2.157,-7.237,-10.375
1621787115548.111,0.353,0.005,0.482,2.2044731220087397,-6.877321287369078,-10.353218214607754
1621787115552.469,0.588,-0.051,0.443,2.2834033779565788,-6.279308524658389,-10.317003155996392
1621787115556.826,0.759,-0.094,0.422,2.362315946452105,-5.681429770409933,-10.280796212804328
1621787115559.569,0.8176193200942443,-0.10093346796813643,0.4301940985077976,2.412,-5.305,-10.258
1621787115561.178,0.852,-0.105,0.435,2.460337968434958,-5.214051310574984,-10.017570152263088
1621787115565.528,0.883,-0.075,0.466,2.591033859417368,-4.968144823750261,-9.367497462281861
1621787115569.874,0.836,-0.051,0.485,2.7216050545783217,-4.72247295418202,-8.7180450010429
1621787115573.615,0.7292135109312651,-0.031192828640476594,0.4832776372730849,2.834,-4.511,-8.159
1621787115574.218,0.712,-0.028,0.483,2.790111836948001,-4.58358757947914,-8.048462067764133
1621787115578.559,0.529,0.019,0.464,2.4741703684348053,-5.106129988676945,-7.25272321226374
1621787115582.896,0.333,0.077,0.442,2.1585309642017245,-5.628172807246756,-6.457745144151207
1621787115587.231,0.154,0.148,0.422,1.8430337078651686,-6.14998052434457,-5.663125093632958
1621787115587.63,0.14009165727170236,0.15675028184892897,0.41831567080045096,1.814,-6.198,-5.59
1621787115591.562,0.003,0.243,0.382,1.7231772202727003,-6.559041638296758,-5.62852235548805
1621787115595.89,-0.115,0.356,0.344,1.6232135162974215,-6.956420572984864,-5.670921821260846
1621787115600.215,-0.208,0.483,0.304,1.5233118420363485,-7.3535529251558165,-5.713294977216782
1621787115601.614,-0.23259366352290053,0.5253917094934206,0.2933211724176879,1.491,-7.482,-5.727
1621787115604.538,-0.284,0.614,0.271,1.3572771293071768,-7.45538118404704,-6.115592793518017
1621787115608.857,-0.356,0.742,0.232,1.1597687730780672,-7.416065257336857,-6.6895434086414785
1621787115613.173,-0.424,0.848,0.201,0.9623832315419211,-7.376773778065555,-7.263137129657176
1621787115615.565,-0.4522765704584041,0.8962365025466893,0.179376740237691,0.853,-7.355,-7.581
1621787115617.487,-0.475,0.935,0.162,0.7419726373395075,-7.31978609766365,-7.8002928506279385
1621787115621.797,-0.513,1.0,0.117,0.49301073458219324,-7.240824300147337,-8.292023573984425
1621787115626.104,-0.536,1.065,0.077,0.24423216165017891,-7.161920648284571,-8.783392198133727
1621787115629.484,-0.5328588121844688,1.1003383629247263,0.046373418798570536,0.049,-7.1,-9.169
1621787115630.408,-0.532,1.11,0.038,-0.007759695510003169,-7.106521043563869,-9.208791673991772
1621787115634.709,-0.49,1.134,-0.007,-0.2719434619035899,-7.136872754122569,-9.393999050666292
1621787115639.007,-0.454,1.141,-0.049,-0.5359472768186773,-7.167203790302732,-9.57908027143912
1621787115643.303,-0.419,1.14,-0.099,-0.7998161281248902,-7.197519320698992,-9.764066875285678
1621787115643.371,-0.4178570778334092,1.1398253868912152,-0.09992068730086481,-0.804,-7.198,-9.767
1621787115647.594,-0.347,1.129,-0.157,-1.0581794058568559,-7.021537318955493,-9.671606529936216
1621787115651.883,-0.272,1.105,-0.208,-1.316341156570462,-6.842309916481658,-9.574718486802693
1621787115656.169,-0.204,1.061,-0.253,-1.5743118722909397,-6.6632151390210375,-9.477902139056278
1621787115657.227,-0.1933768454654278,1.0437064926181383,-0.2658466054836687,-1.638,-6.619,-9.454
1621787115660.452,-0.161,0.991,-0.305,-1.7294392074452116,-6.472743920744521,-9.250361152806965
1621787115664.732,-0.141,0.92,-0.344,-1.850797428788387,-6.278632684055309,-8.980091440478924
1621787115669.008,-0.096,0.85,-0.38,-1.972044890246702,-6.084698606671729,-8.710068394935277
1621787115671.052,-0.07372648024453754,0.8101920072455564,-0.3965866636476848,-2.03,-5.992,-8.581
1621787115673.321,-0.049,0.766,-0.415,-2.070782682591431,-5.900382565164321,-8.481053707451986
1621787115678.317,-0.003,0.709,-0.447,-2.1605756709568764,-5.698664513836313,-8.260997651457796
1621787115683.312,0.037,0.646,-0.48,-2.2503554951252296,-5.496976035598956,-8.040973857017041
1621787115686.853,0.06393275996872556,0.6077271305707583,-0.5048064894448788,-2.314,-5.354,-7.885
1621787115688.308,0.075,0.592,-0.515,-2.272431396281223,-5.311619861718384,-7.78328766812412
1621787115693.302,0.112,0.545,-0.552,-2.1297659954309576,-5.166169236122668,-7.434206166694404
1621787115698.297,0.148,0.499,-0.597,-1.987065721590995,-5.02068305671967,-7.085039336127206
1621787115702.99,0.15833289351512486,0.4633045496750232,-0.6383315740604995,-1.853,-4.884,-6.757
1621787115703.293,0.159,0.461,-0.641,-1.8307296373072675,-4.881051899710996,-6.729922543842394
1621787115708.288,0.138,0.415,-0.661,-1.4635647535898562,-4.832447442085673,-6.283504531767767
1621787115713.282,0.096,0.368,-0.675,-1.0964895973611344,-4.783854862382545,-5.83719561500401
1621787115718.277,0.059,0.332,-0.684,-0.7293247136437229,-4.735250404757221,-5.390777602929384
1621787115719.125,0.054586392296788695,0.3284351630089447,-0.6867160662788993,-0.667,-4.727,-5.315
1621787115723.272,0.033,0.311,-0.7,-0.261170073688511,-4.727,-5.015061099426531
1621787115728.266,-0.033,0.295,-0.693,0.22756517726096626,-4.727,-4.6538489158558916
1621787115733.26,-0.124,0.288,-0.681,0.7162765361860521,-4.727,-4.2926543902918795
1621787115735.26,-0.16364064714795445,0.2831950730729752,-0.6737926096094629,0.912,-4.727,-4.148
1621787115738.255,-0.223,0.276,-0.663,1.1577520616138843,-4.794377642270272,-4.062432250450151
1621787115743.249,-0.311,0.265,-0.639,1.5675592004720909,-4.906734131247258,-3.9197426046694606
1621787115748.242,-0.389,0.269,-0.607,1.9772661713749642,-5.019063157257637,-3.7770878360998044
1621787115751.395,-0.43949853372434017,0.26458137829912026,-0.5918504398826979,2.236,-5.09,-3.687
1621787115753.237,-0.469,0.262,-0.583,2.3536105150052213,-5.186257926358642,-3.7228540793316887
1621787115758.23,-0.539,0.264,-0.546,2.672398141562117,-5.447168576055208,-3.8200378800490338
1621787115763.224,-0.606,0.267,-0.504,2.9912637074927737,-5.708143014967386,-3.9172454409249817
1621787115767.527,-0.6387426057198728,0.2609684673673918,-0.4695340992422391,3.266,-5.933,-4.001
1621787115768.218,-0.644,0.26,-0.464,3.2605178279556872,-5.9640941945638355,-4.039632181124766
1621787115773.211,-0.665,0.262,-0.422,3.220900901991646,-6.1887964465161325,-4.31880770627762
1621787115778.204,-0.656,0.251,-0.398,3.181282038864338,-6.413509685816333,-4.597996882377868
1621787115783.198,-0.627,0.246,-0.38,3.1416573642472305,-6.6382558871602395,-4.877227011320297
1621787115783.659,-0.6221071341254706,0.24516913598357049,-0.37861522663928415,3.138,-6.659,-4.903
1621787115788.191,-0.574,0.237,-0.365,3.0141024472931455,-6.901457115614548,-5.096010473264419
1621787115793.184,-0.51,0.232,-0.36,2.8775968852632694,-7.168587047659408,-5.308661995066063
1621787115798.177,-0.417,0.227,-0.346,2.741097997669245,-7.435703918393292,-5.521303119277163
1621787115799.79,-0.38049366779130606,0.22086176715075057,-0.3392156373771454,2.697,-7.522,-5.59
1621787115803.17,-0.304,0.208,-0.325,2.4914147138964577,-7.630765304268847,-5.657690160460188
1621787115808.162,-0.182,0.176,-0.312,2.187759128065395,-7.791414895549501,-5.757670541931577
1621787115813.156,-0.052,0.133,-0.3,1.883999591280654,-7.952119482288829,-5.8576851498637605
1621787115815.918,0.009414535139629275,0.09703653347679367,-0.2983401476989289,1.716,-8.041,-5.913
1621787115818.148,0.059,0.068,-0.297,1.4529978805861692,-8.016663315974325,-5.86557112147269
1621787115823.14,0.157,-0.016,-0.295,0.8642520588591498,-7.962184207339227,-5.759398767712244
1621787115828.133,0.246,-0.106,-0.302,0.27536226837834565,-7.907691776674337,-5.653200451132372
1621787115832.045,0.30477268058883944,-0.17339267374186923,-0.3114036288942143,-0.186,-7.865,-5.57
1621787115833.125,0.321,-0.192,-0.314,-0.21948876642645188,-7.821665536244171,-5.55292072912251
1621787115838.116,0.391,-0.265,-0.333,-0.37423805486586326,-7.621419957003573,-5.47399859201841
1621787115843.109,0.459,-0.325,-0.354,-0.5290479016532429,-7.421096015260703,-5.395045570156847
1621787115848.101,0.518,-0.367,-0.367,-0.6838350390601344,-7.220801459456186,-5.3161041300793315
1621787115848.171,0.5187834466565573,-0.3674336936848799,-0.36687408893019613,-0.686,-7.218,-5.315
1621787115853.092,0.574,-0.398,-0.358,-0.1864767246468959,-6.888747944956629,-5.36290785230937
1621787115858.084,0.606,-0.403,-0.34,0.3202332228227137,-6.554758920326385,-5.411504957839442
1621787115863.075,0.609,-0.36,-0.302,0.8268440437803714,-6.220835233207684,-5.460092556428539
1621787115864.298,0.6009142172445835,-0.34578862424805595,-0.28705355308847263,0.951,-6.139,-5.472
1621787115868.067,0.576,-0.302,-0.241,1.3500211693090445,-5.973968397462106,-5.428521419161405
1621787115873.059,0.504,-0.239,-0.175,1.8785684822604822,-5.755365935280667,-5.370929269068278
1621787115878.049,0.393,-0.204,-0.119,2.406883159950938,-5.536859688971668,-5.313362467632762
1621787115880.421,0.33644836863474054,-0.18499104828058505,-0.09476358655774593,2.658,-5.433,-5.286
1621787115883.04,0.274,-0.164,-0.068,2.7137193216232585,-5.592360508782556,-5.341719321623258
1621787115888.031,0.15,-0.129,-0.024,2.819896623258631,-5.896033782556026,-5.4478966232586306
1621787115893.022,0.056,-0.077,0.01,2.9260739248940038,-6.199707056329497,-5.554073924894003
1621787115896.544,0.014365504084527712,-0.04242219830748911,0.0325814215134765,3.001,-6.414,-5.629
1621787115898.013,-0.003,-0.028,0.042,2.9035959628081653,-6.464023214610212,-5.815789781331395
1621787115903.003,-0.017,0.023,0.07,2.5727265733842146,-6.633945847719426,-6.450291416802956
1621787115907.994,0.01,0.021,0.079,2.2417924314010538,-6.803901735417045,-7.084917226967109
1621787115912.666,0.06803629426726666,-0.0033378008217569977,0.04717364507924085,1.932,-6.963,-7.679
1621787115912.985,0.072,-0.005,0.045,1.8904504369424628,-6.949024777742439,-7.7279132779014645
1621787115917.975,0.154,-0.054,-0.054,1.240694109985309,-6.730478819270904,-8.492824132551835
1621787115922.965,0.237,-0.073,-0.202,0.5909377830281553,-6.511932860799369,-9.257734987202205
1621787115927.955,0.307,-0.058,-0.361,-0.058818543928998546,-6.2933869023278355,-10.022645841852576
1621787115928.786,0.31282733988942707,-0.05150667840892412,-0.38197842360193746,-0.167,-6.257,-10.15
1621787115932.945,0.342,-0.019,-0.487,-1.3335418029807342,-6.223972494850357,-10.534460802132559
1621787115937.935,0.363,-0.014,-0.59,-2.7331043711377676,-6.1843476311644245,-10.995718980976616
1621787115942.925,0.394,-0.101,-0.703,-4.1326669392948014,-6.144722767478492,-11.456977159820672
1621787115944.905,0.4293212625397602,-0.14902104232933694,-0.7537991191583068,-4.688,-6.129,-11.64
1621787115947.914,0.483,-0.222,-0.831,-4.763048849573607,-6.418367454823611,-11.54665565973432
1621787115952.905,0.641,-0.34,-0.953,-4.887529468789288,-6.898330041351732,-11.391829018918797
1621787115957.894,0.873,-0.45,-1.049,-5.011961374755752,-7.378104803162726,-11.237062966721702
1621787115961.023,1.0511132370932224,-0.5309035478345975,-1.0991727428431612,-5.09,-7.679,-11.14
1621787115962.883,1.157,-0.579,-1.129,-4.7187439715237804,-7.479811966070888,-11.051715616479855
1621787115967.873,1.456,-0.737,-1.187,-3.7227993638291426,-6.945463071796426,-10.81488079369888
1621787115972.861,1.679,-0.833,-1.22,-2.727244577400788,-6.411323326264768,-10.57813867009997
1621787115977.141,1.7527786151211155,-0.8853313432835821,-1.2260052361145095,-1.873,-5.953,-10.375
1621787115977.85,1.765,-0.894,-1.227,-1.8466923846025662,-5.853312614564239,-10.247729211798033
1621787115982.84,1.686,-0.908,-1.22,-1.6615335171410825,-5.151690551574738,-9.351969005165806
1621787115987.828,1.464,-0.911,-1.234,-1.4764561815455,-4.450377437093818,-8.456603232794535
1621787115992.816,1.14,-0.937,-1.258,-1.2913697868537062,-3.7490299950008334,-7.561193634394268
1621787115993.257,1.1089682959048877,-0.9394754635745389,-1.2569390870394834,-1.275,-3.687,-7.482
1621787115997.806,0.789,-0.965,-1.246,-0.4528381276982504,-4.451020661970764,-6.970018662425207
1621787116002.794,0.489,-0.941,-1.159,0.4487070211315609,-5.288810815723699,-6.408603317427858
1621787116007.782,0.265,-0.857,-1.004,1.3502521699613723,-6.126600969476634,-5.8471879724305085
1621787116009.374,0.2094640986735843,-0.8292320493367922,-0.9449532083598453,1.638,-6.394,-5.668
1621787116012.77,0.091,-0.77,-0.819,2.059521538205124,-6.745338202093971,-6.038095910544099
1621787116017.759,-0.017,-0.707,-0.644,2.6787733450506828,-7.261484583099744,-6.581798996954499
1621787116022.746,-0.106,-0.695,-0.499,3.2977827239806663,-7.777428900437886,-7.125289231655025
1621787116025.487,-0.1329272148800783,-0.7186300048947626,-0.4319567302985805,3.638,-8.061,-7.424
1621787116027.734,-0.155,-0.738,-0.377,3.554608924918554,-7.951671232669142,-7.728977058868097
1621787116032.722,-0.195,-0.799,-0.271,3.3694776573982876,-7.708957330100765,-8.406037396772483
1621787116037.71,-0.232,-0.899,-0.176,3.184346389878021,-7.466243427532389,-9.083097734676869
1621787116041.599,-0.249936554560141,-0.9613880158613599,-0.11907093552650902,3.04,-7.277,-9.611
1621787116042.697,-0.255,-0.979,-0.103,3.023305073188472,-7.271616737885262,-9.655088235294118
1621787116047.684,-0.258,-1.04,-0.042,2.94747067915265,-7.247164014910447,-9.85535294117647
1621787116052.672,-0.234,-1.065,0.016,2.871621435281995,-7.222706503621541,-10.055656862745098
1621787116057.659,-0.176,-1.058,0.073,2.7957907537048823,-7.198254977725248,-10.255911764705882
1621787116057.711,-0.17527022661641622,-1.0575621359698497,0.073635945377123,2.795,-7.198,-10.258
1621787116062.647,-0.106,-1.016,0.134,2.746902022880521,-7.074844670050762,-10.329993787408137
1621787116067.634,-0.016,-0.974,0.187,2.6983068414273808,-6.950416243654822,-10.402731797863474
1621787116072.621,0.086,-0.913,0.227,2.6497116599742405,-6.825987817258883,-10.475469808318813
1621787116073.823,0.10528130813668853,-0.8939597082150201,0.23326642514442378,2.638,-6.796,-10.493
1621787116077.608,0.166,-0.834,0.253,2.520529892251504,-6.634831012169064,-10.232686241229333
1621787116082.594,0.215,-0.773,0.311,2.3657797141861274,-6.422513767863367,-9.889759846636458
1621787116087.581,0.26,-0.723,0.37,2.2109992271204932,-6.210154939609318,-9.546766287299013
1621787116089.933,0.29301414794145003,-0.6937588975375728,0.3822623978068243,2.138,-6.11,-9.385
1621787116092.568,0.33,-0.661,0.396,2.0161366887939134,-5.949533009002455,-9.15877589342548
1621787116097.554,0.426,-0.597,0.396,1.7855527416568155,-5.645905019550787,-8.73072542511594
1621787116102.54,0.513,-0.546,0.393,1.5549575035615772,-5.342262162407929,-8.302653996544512
1621787116106.042,0.5642611739364566,-0.5115918147549812,0.40002207862143246,1.393,-5.129,-8.002
1621787116107.527,0.586,-0.497,0.403,1.4128236426471035,-5.116368190499287,-7.783202306969413
1621787116112.513,0.623,-0.44,0.422,1.4793760723921545,-5.073960363173371,-7.048649210294965
1621787116117.498,0.634,-0.386,0.466,1.5459187255585534,-5.031558765574317,-6.314204019765362
1621787116122.149,0.6088200910559554,-0.3552245557350565,0.5135620502276399,1.608,-4.992,-5.629
1621787116122.485,0.607,-0.353,0.517,1.5799656944486555,-4.980519085589546,-5.592156701937361
1621787116127.47,0.576,-0.321,0.55,1.1642761877330747,-4.810281387381378,-5.045848452232968
1621787116132.456,0.529,-0.284,0.567,0.7484848861534731,-4.640002001030834,-4.499406421489859
1621787116137.441,0.436,-0.253,0.576,0.3327953794378924,-4.469764302822666,-3.9530981717854647
1621787116138.254,0.4152924643783969,-0.2479454046907898,0.5751847426920629,0.265,-4.442,-3.864
1621787116142.427,0.309,-0.222,0.571,-0.12890763819400225,-4.33289795021074,-3.701253949483004
1621787116147.412,0.195,-0.188,0.56,-0.599462839989084,-4.202566542345129,-3.5068403529518783
1621787116152.397,0.093,-0.157,0.524,-1.0699949968161557,-4.07224151732921,-3.31243627763122
1621787116154.357,0.05526372227390687,-0.14874518924741714,0.5074903784948342,-1.255,-4.021,-3.236
1621787116157.383,-0.003,-0.136,0.482,-1.4430763225708654,-4.037534182204032,-3.278462786114901
1621787116162.367,-0.089,-0.127,0.449,-1.752829452781567,-4.064765226618159,-3.3483970592693653
1621787116167.352,-0.169,-0.117,0.414,-2.0626584508109747,-4.0920029407306355,-3.4183484614218584
1621787116170.463,-0.21580429033205994,-0.11387971397786267,0.3846693113919091,-2.256,-4.109,-3.462
1621787116172.337,-0.244,-0.112,0.367,-2.3267476162323586,-4.155777206785211,-3.4881812724544092
1621787116177.322,-0.304,-0.122,0.325,-2.514944017463277,-4.2802096957569695,-3.557826322252035
1621787116182.306,-0.361,-0.136,0.291,-2.703094335046311,-4.404611714948383,-3.627454318068125
1621787116186.568,-0.4046043880699348,-0.1479698320191978,0.2704802879670895,-2.864,-4.511,-3.687
1621787116187.291,-0.412,-0.15,0.267,-2.839310784997423,-4.548841833176677,-3.6922969588550982
1621787116192.275,-0.469,-0.166,0.243,-2.6690961159455444,-4.809734498650738,-3.7288157423971375
1621787116197.259,-0.51,-0.157,0.23,-2.498873108759589,-5.070639944210303,-3.765336314847943
1621787116202.244,-0.541,-0.159,0.23,-2.328625087171402,-5.331583730026379,-3.801862254025045
1621787116202.672,-0.542546812992994,-0.15882813188966735,0.23171868110332663,-2.314,-5.354,-3.805
1621787116207.227,-0.559,-0.157,0.25,-1.9561743711812243,-5.750861151962642,-3.849409979228892
1621787116212.211,-0.559,-0.15,0.279,-1.5646509544096912,-6.18509621420016,-3.8980022135633825
1621787116217.195,-0.552,-0.138,0.302,-1.1731083584759767,-6.619352547872098,-3.9465968282365784
1621787116218.775,-0.5386864896639562,-0.13578108161065935,0.3080227784853532,-1.049,-6.757,-3.962
1621787116222.179,-0.51,-0.131,0.321,-0.8914937831690675,-6.902032570128885,-4.022042638362396
1621787116227.162,-0.447,-0.108,0.333,-0.660922213798332,-7.114344109173616,-4.109938377558757
1621787116232.146,-0.365,-0.082,0.333,-0.4303167551175133,-7.326686853677027,-4.197847035633056
1621787116234.876,-0.3096652621264086,-0.06118098971092602,0.3236862322390985,-0.304,-7.443,-4.246
1621787116237.129,-0.264,-0.044,0.316,-0.3300274770266582,-7.384088345009553,-4.335277044854882
1621787116242.112,-0.15,-0.023,0.29,-0.38759648803566554,-7.253784293209596,-4.532744942832014
1621787116247.095,-0.035,0.009,0.264,-0.4451626785551815,-7.123486625420799,-4.7302031662269135
1621787116250.976,0.048320058780308595,0.027688611315209402,0.2429753122703894,-0.49,-7.022,-4.884
1621787116252.079,0.072,0.033,0.237,-0.5175433493577593,-6.994388134847819,-4.874544820369724
1621787116257.061,0.157,0.056,0.215,-0.6419456483826451,-6.869676377367647,-4.831839553540286
1621787116262.044,0.204,0.082,0.197,-0.766372332842996,-6.744940173791723,-4.789125915591211
1621787116267.027,0.227,0.103,0.18,-0.8908051136622133,-6.620197858691861,-4.746410184862226
1621787116267.075,0.2270864451631873,0.10315368029011075,0.1797790845829658,-0.892,-6.619,-4.746
1621787116272.009,0.236,0.119,0.157,-1.508408984742318,-6.279377347044013,-4.764084599751267
1621787116276.991,0.23,0.063,0.134,-2.1307960081293413,-5.936460976127643,-4.782344587011254
1621787116281.975,0.182,-0.005,0.086,-2.7534575332908666,-5.59339336306003,-4.800612627779294
1621787116283.172,0.1647003822405175,-0.02278016269724591,0.06701847495834558,-2.903,-5.511,-4.805
1621787116286.957,0.11,-0.079,0.007,-3.237378892444903,-5.209071379817683,-5.042498369458054
1621787116291.938,-0.005,-0.154,-0.079,-3.677422636472569,-4.811732302931942,-5.355047020279391
1621787116296.921,-0.148,-0.209,-0.176,-4.11763892975777,-4.414237422075263,-5.667718227183789
1621787116299.268,-0.2205513794286274,-0.23726677120595874,-0.19908452981819963,-4.325,-4.227,-5.815
1621787116301.903,-0.302,-0.269,-0.225,-4.018377891367987,-4.588136343642404,-5.981980539671465
1621787116306.884,-0.443,-0.328,-0.218,-3.438770343854753,-5.270792109693762,-6.297623731590044
1621787116311.867,-0.545,-0.424,-0.176,-2.858935521545906,-5.953715557645346,-6.613390693018247
1621787116315.364,-0.5801044015292618,-0.4696357219880404,-0.14089559847073815,-2.452,-6.433,-6.835
1621787116316.848,-0.595,-0.489,-0.126,-2.2069736247402667,-6.623729710463652,-6.972447075061047
1621787116321.829,-0.564,-0.534,-0.086,-1.3844541883427115,-7.263982800721945,-7.433837774710692
1621787116326.81,-0.429,-0.527,-0.049,-0.5619750655968938,-7.904204510639589,-7.895205860494745
1621787116331.461,-0.21895148485739485,-0.4635186709791238,-0.014458688620993823,0.206,-8.502,-8.326
1621787116331.792,-0.204,-0.459,-0.012,0.2419153532258309,-8.491324130398509,-8.377240060071905
1621787116336.773,0.066,-0.367,0.087,0.7822877990321748,-8.330697956645075,-9.148183795755527
1621787116341.755,0.302,-0.237,0.258,1.3227661898332852,-8.170040290650931,-9.919278682058827
1621787116346.735,0.466,-0.145,0.375,1.8630591768935545,-8.009437736078032,-10.69010905477769
1621787116347.555,0.4822945789628468,-0.13660582295853346,0.37532918341339083,1.952,-7.983,-10.817
1621787116351.716,0.565,-0.094,0.377,2.9814825289414193,-7.2449585185634735,-11.902339908055046
1621787116356.697,0.592,-0.051,0.398,4.213793169369889,-6.3615084889772255,-13.201512919328165
1621787116361.678,0.531,-0.091,0.559,5.446103809798358,-5.478058459390978,-14.500685930601282
1621787116363.646,0.5136118246886949,-0.14395489753897442,0.6360612314932836,5.933,-5.129,-15.014
1621787116366.658,0.487,-0.225,0.754,5.5530198758894835,-5.76410963601329,-14.72405457524769
1621787116371.639,0.56,-0.363,0.86,4.924637409155047,-6.814406044697993,-14.244564702847866
1621787116376.619,0.737,-0.417,0.887,4.296378142590541,-7.8644965330986665,-13.76516883885357
1621787116379.737,0.8872661895190941,-0.36878959752929064,0.9001482915829208,3.903,-8.522,-13.465
1621787116381.599,0.977,-0.34,0.908,3.8007989407551293,-8.419798940755129,-13.43768465460726
1621787116386.58,1.223,-0.171,0.958,3.527414122253248,-8.146414122253248,-13.364616911496904
1621787116391.559,1.436,-0.024,1.0,3.254136502974384,-7.8731365029743845,-13.291577819594512
1621787116395.825,1.5662037454652418,0.06851318756740857,0.9940037748798902,3.02,-7.639,-13.229
1621787116396.539,1.588,0.084,0.993,3.003931741960939,-7.593724797790491,-13.119318603274808
1621787116401.518,1.688,0.152,0.956,2.8918989028332094,-7.278052157154347,-12.354586157184697
1621787116406.499,1.747,0.216,0.902,2.779822116333065,-6.962255686905322,-11.589553727787305
1621787116411.478,1.791,0.276,0.829,2.6677892772053355,-6.6465830462691775,-10.824821281697194
1621787116411.913,1.7906504854368932,0.28028155339805827,0.8224466019417476,2.658,-6.619,-10.758
1621787116416.457,1.787,0.325,0.754,2.6690160262247313,-7.067832453105081,-8.874259515570934
1621787116421.437,1.721,0.398,0.695,2.681089145875068,-7.55973468706368,-6.809756055363321
1621787116426.416,1.567,0.48,0.651,2.6931598980149336,-8.051540460146906,-4.745657439446367
1621787116428.0,1.4900118662351671,0.5089500833578503,0.6405016181229773,2.697,-8.208,-4.089
1621787116431.395,1.325,0.571,0.618,2.256052307225258,-7.7195591378263515,-3.4348607468123866
1621787116436.374,0.998,0.675,0.59,1.6093755312689741,-7.003230722525805,-2.475525500910747
1621787116441.353,0.59,0.806,0.567,0.96269875531269,-6.286902307225258,-1.5161902550091075
1621787116444.084,0.3431289847964688,0.877866895537028,0.5423128984796469,0.608,-5.894,-0.99
1621787116446.331,0.14,0.937,0.522,0.3901811281802174,-5.576143724573441,-1.3696112089380046
1621787116451.311,-0.311,1.068,0.459,-0.0925513085190357,-4.871707359281074,-2.2109094966300322
1621787116456.289,-0.724,1.192,0.398,-0.5750944198190538,-4.167547270629668,-3.0518778310765677
1621787116460.167,-0.9787360470819029,1.275353997057381,0.3559334968121628,-0.951,-3.619,-3.707
1621787116461.267,-1.051,1.299,0.344,-0.9704955367986398,-3.685421635899927,-4.025632317221278
1621787116466.245,-1.288,1.374,0.3,-1.0587143551129463,-3.9859846975953364,-5.467468302161768
1621787116471.224,-1.429,1.429,0.262,-1.1469504797182415,-4.286606722127763,-6.909587138693223
1621787116476.202,-1.478,1.47,0.22,-1.2351649714598008,-4.587155043113918,-8.351352410735974
1621787116476.249,-1.478,1.4694794016674841,0.2195172633643943,-1.236,-4.59,-8.365
1621787116481.18,-1.478,1.415,0.169,-1.5307101686937246,-5.1732869311711385,-9.068808363321642
1621787116486.158,-1.414,1.323,0.127,-1.8282365508131009,-5.762147679132692,-9.779342231130142
1621787116491.135,-1.307,1.211,0.082,-2.1257045658148472,-6.3508929075752745,-10.489736710244614
1621787116492.328,-1.2772862187346739,1.1829636096125553,0.06810161844041197,-2.197,-6.492,-10.66
1621787116496.113,-1.183,1.094,0.024,-2.2570291527482538,-6.711400668083814,-10.588435833586395
1621787116501.091,-1.044,0.995,-0.031,-2.335976161554813,-6.999944245368964,-10.494318615244458
1621787116506.068,-0.881,0.916,-0.101,-2.4149076829638627,-7.288431217734589,-10.400219860309749
1621787116508.407,-0.803457689477557,0.8826333088054943,-0.1324868776060829,-2.452,-7.424,-10.356
1621787116511.045,-0.716,0.845,-0.168,-2.3666887336774978,-7.3998831612511395,-10.201455359854236
1621787116516.023,-0.546,0.782,-0.213,-2.20569875493471,-7.354372532645005,-9.909815821439416
1621787116521.0,-0.407,0.705,-0.258,-2.044740358335864,-7.308870832068023,-9.618233495293046
1621787116524.486,-0.3124417247130383,0.6489654664966154,-0.2839159717453154,-1.932,-7.277,-9.414
1621787116525.977,-0.272,0.625,-0.295,-1.9138252326940888,-7.187795274753641,-9.277596516801044
1621787116530.954,-0.136,0.545,-0.321,-1.8531553773971665,-6.890017719673849,-8.822263061996082
1621787116535.931,-0.002,0.471,-0.344,-1.7924884981551497,-6.5922547715574185,-8.366951942786862
1621787116540.565,0.11347659699735059,0.41884927877539,-0.37473167500735943,-1.736,-6.315,-7.943
1621787116540.907,0.122,0.415,-0.377,-1.7163844682014213,-6.297065191641864,-7.895024919516491
1621787116545.885,0.239,0.367,-0.403,-1.4309021745732855,-6.036043962218308,-7.196800871651582
1621787116550.861,0.297,0.321,-0.428,-1.1455318896920366,-5.775125144262893,-6.498850771426835
1621787116555.837,0.3,0.288,-0.435,-0.8601756059041487,-5.514219127740995,-5.800934914657109
1621787116556.642,0.2991911115471402,0.2857351123319925,-0.435,-0.814,-5.472,-5.688
1621787116560.814,0.295,0.274,-0.435,-0.4805490273496226,-5.258176185631198,-5.288377822660248
1621787116565.79,0.297,0.258,-0.431,-0.0828197597606718,-5.003134227270657,-4.811721735433022
1621787116570.765,0.278,0.244,-0.421,0.3148119390745775,-4.7481548343988695,-4.335182578852257
1621787116572.719,0.25993937015598945,0.2381106641813009,-0.421,0.471,-4.648,-4.148
1621787116575.742,0.232,0.229,-0.421,0.6701727500569605,-4.590824819624819,-3.9544695374800636
1621787116580.718,0.169,0.215,-0.415,0.9980308498519025,-4.496708802308802,-3.635899202551834
1621787116585.693,0.108,0.218,-0.387,1.3258246069719755,-4.402611255411256,-3.317391387559809
1621787116588.792,0.05693155389823855,0.20928099700701633,-0.37641263922280555,1.53,-4.344,-3.119
1621787116590.669,0.026,0.204,-0.37,1.6215530037214247,-4.374945849472166,-3.0411098807625123
1621787116595.645,-0.047,0.202,-0.344,1.8642732589048379,-4.456987772461456,-2.834611908559277
1621787116600.62,-0.141,0.195,-0.318,2.106945879851143,-4.539013594592542,-2.6281544619123567
1621787116604.865,-0.24595171026156942,0.19073367031457036,-0.2804562987682191,2.314,-4.609,-2.452
1621787116605.595,-0.264,0.19,-0.274,2.3233558137768666,-4.636159109895952,-2.4733457887142096
1621787116610.57,-0.386,0.197,-0.234,2.3871192830561254,-4.821258889648363,-2.6188255487202854
1621787116615.545,-0.485,0.201,-0.185,2.450879623300676,-5.006349586086428,-2.7642981696665907
1621787116620.521,-0.541,0.222,-0.155,2.514655608718767,-5.1914856990962255,-2.909806485911749
1621787116620.938,-0.5447724550898204,0.2230059880239521,-0.1531556886227545,2.52,-5.207,-2.922
1621787116625.495,-0.586,0.234,-0.133,2.3198177758199026,-5.429582218103933,-3.3365416597043946
1621787116630.47,-0.611,0.236,-0.115,2.101286050644833,-5.672567209977062,-3.7890818611292554
1621787116635.445,-0.595,0.243,-0.103,1.8827436010390244,-5.915564126323464,-4.2416442709361855
1621787116637.01,-0.5814708192215187,0.24111220733323516,-0.10583168900014725,1.814,-5.992,-4.384
1621787116640.419,-0.552,0.237,-0.112,1.6477005787898582,-6.2603275099883025,-4.589753110425813
1621787116645.393,-0.487,0.218,-0.129,1.405046105701308,-6.651855454448782,-4.889976119221596
1621787116650.368,-0.396,0.188,-0.145,1.162355902593161,-7.0434410500250655,-5.1902433348018295
1621787116653.081,-0.33436414057131636,0.18363639933248257,-0.15645445175223324,1.03,-7.257,-5.354
1621787116655.342,-0.283,0.18,-0.166,0.9623244355990399,-7.348031372489441,-5.413374403694814
1621787116660.316,-0.157,0.154,-0.169,0.8134469630214822,-7.548288596517882,-5.5439903983470575
1621787116665.291,-0.035,0.112,-0.18,0.6645329525082799,-7.748594968247698,-5.67463844915074
1621787116669.151,0.03948032191579154,0.0654497988026303,-0.18620669349298263,0.549,-7.904,-5.776
1621787116670.266,0.061,0.052,-0.188,0.45984784772331433,-7.883825329684001,-5.751634112963424
1621787116674.954,0.133,-0.009,-0.208,0.0850887347598906,-7.799019283403831,-5.649209909181388
1621787116679.886,0.201,-0.077,-0.25,-0.30916753234635475,-7.7098011321224185,-5.5414570011196815
1621787116684.816,0.267,-0.134,-0.291,-0.7032676660860909,-7.620618313013187,-5.433746765364519
1621787116684.85,0.2674851965541143,-0.13443667689870284,-0.29123566689771263,-0.706,-7.62,-5.433
1621787116689.747,0.337,-0.197,-0.325,-0.4256448068169627,-7.3968225106898196,-5.538440604453708
1621787116694.677,0.415,-0.25,-0.34,-0.1434026881638033,-7.172142929393554,-5.644590874955938
1621787116699.607,0.496,-0.258,-0.34,0.1388394304893561,-6.947463348097289,-5.750741145458168
1621787116700.78,0.5150400713259695,-0.24966996879488831,-0.3309559661201645,0.206,-6.894,-5.776
1621787116704.536,0.576,-0.223,-0.302,1.050209383624655,-6.61401214351426,-5.822232198712052
1621787116709.466,0.632,-0.155,-0.237,2.1583713891444343,-6.246482582030052,-5.882919472554431
1621787116714.394,0.627,-0.079,-0.148,3.2660395124195034,-5.879116819993866,-5.943579699478688
1621787116716.703,0.5909242506811989,-0.036365023532325985,-0.10630205598216497,3.785,-5.707,-5.972
1621787116719.322,0.55,0.012,-0.059,3.9269870255348516,-5.6457958592132504,-5.862260317460318
1621787116724.251,0.398,0.084,0.019,4.194192101832681,-5.530615919024615,-5.655741446208113
1621787116729.178,0.199,0.138,0.099,4.461291296679702,-5.415481619507706,-5.449304409171075
1621787116732.622,0.04801085179128883,0.1757472870521778,0.14233947772657451,4.648,-5.335,-5.305
1621787116734.105,-0.017,0.192,0.161,4.4963084003190765,-5.490325489353869,-5.413737160213536
1621787116739.032,-0.211,0.26,0.202,3.9923096888997973,-6.00639787997791,-5.7750187918021725
1621787116743.959,-0.309,0.321,0.234,3.488310977480518,-6.522470270601952,-6.136300423390808
1621787116748.537,-0.3238700004956138,0.3553868761461069,0.23585875006195173,3.02,-7.002,-6.472
1621787116748.885,-0.325,0.358,0.236,2.9385289469242455,-7.000075831274646,-6.562916972272944
1621787116753.81,-0.248,0.344,0.187,1.7851846987156865,-6.9728363535928555,-7.849982292737568
1621787116758.736,-0.101,0.284,0.077,0.6316117598318272,-6.9455914747356955,-9.137302818738396
1621787116763.661,0.072,0.229,-0.072,-0.5216753157079066,-6.918353347347747,-10.424304337818969
1621787116764.448,0.09565300153670747,0.21893149258910427,-0.09932880582957418,-0.706,-6.914,-10.63
1621787116768.586,0.22,0.166,-0.243,-1.5836905225999538,-6.722541723582227,-11.27539128232676
1621787116773.51,0.297,0.143,-0.421,-2.6281261913897627,-6.494709876448469,-12.04339510398281
1621787116778.434,0.339,0.12,-0.569,-3.6725618601795715,-6.266878029314711,-12.811398925638862
1621787116780.355,0.36942959143197146,0.10439508131693773,-0.6282986909956366,-4.08,-6.178,-13.111
1621787116783.358,0.417,0.08,-0.721,-3.9706758976405756,-6.779754601415347,-12.931436577989961
1621787116788.281,0.607,0.037,-0.826,-3.791446586739941,-7.766289685768233,-12.637054756458868
1621787116793.203,0.902,-0.016,-0.862,-3.6122617165313233,-8.752580154429486,-12.342745928188755
1621787116796.259,1.1049945945945947,-0.05076360029754525,-0.8750363501115794,-3.501,-9.365,-12.16
1621787116798.126,1.229,-0.072,-0.883,-3.442294334408107,-9.181955734684477,-11.990810271764165
1621787116803.048,1.496,-0.185,-0.935,-3.2875192691539996,-8.69936708122217,-11.544748533701828
1621787116807.969,1.679,-0.344,-0.974,-3.132782588668816,-8.21689811146937,-11.098797420543528
1621787116812.16,1.7547786816130153,-0.45639085362829224,-0.9842173503298447,-3.001,-7.806,-10.719
1621787116812.891,1.768,-0.476,-0.986,-3.0055070098122014,-7.695072370744591,-10.580064524054482
1621787116817.812,1.726,-0.572,-0.976,-3.0358386591526805,-6.948542389017705,-9.645045007140334
1621787116822.732,1.532,-0.648,-0.976,-3.066164289114445,-6.2021605577138645,-8.710211046788386
1621787116827.653,1.225,-0.726,-1.021,-3.0964974432996026,-5.455593538381217,-7.77514514073369
1621787116828.059,1.197354853116316,-0.7314465065502184,-1.0234756847955537,-3.099,-5.394,-7.698
1621787116832.573,0.89,-0.792,-1.051,-2.1494190446935955,-6.031502764552297,-7.163292781446783
1621787116837.492,0.611,-0.81,-1.012,-1.1146331131930578,-6.726208032560283,-6.580606803870373
1621787116842.412,0.449,-0.815,-0.942,-0.0795903855014588,-7.42108570112118,-5.997776224850254
1621787116843.955,0.4264106433677522,-0.812176330420969,-0.9093709293089753,0.245,-7.639,-5.815
1621787116847.33,0.377,-0.806,-0.838,0.9114266818244665,-7.845214247307698,-6.027585439294548
1621787116852.248,0.346,-0.78,-0.698,1.882527598973776,-8.145704684067411,-6.33735982363695
1621787116857.167,0.291,-0.733,-0.55,2.853821347917595,-8.446254789301461,-6.647195719969889
1621787116859.847,0.25393763654419066,-0.7199191658391261,-0.48623093346573987,3.383,-8.61,-6.816
1621787116862.084,0.223,-0.709,-0.433,3.2407720573545005,-8.496780924864375,-6.878101507630362
1621787116867.001,0.143,-0.702,-0.342,2.9281592924434063,-8.247928783291583,-7.014598764388571
1621787116871.918,0.061,-0.719,-0.253,2.615546527532312,-7.999076641718791,-7.151096021146782
1621787116875.733,-0.0026212512413108235,-0.7221034756703079,-0.1893787487586892,2.373,-7.806,-7.257
1621787116876.835,-0.021,-0.723,-0.171,2.2648349548884896,-7.719620602204086,-7.322981371328446
1621787116881.751,-0.124,-0.757,-0.094,1.7823335485160081,-7.334300364273528,-7.617310324157329
1621787116886.668,-0.239,-0.812,-0.037,1.29973629363213,-6.948903582791534,-7.911697745192972
1621787116891.583,-0.346,-0.866,0.012,0.8173307357710458,-6.563659888412413,-8.205968229815097
1621787116891.617,-0.3464211702761772,-0.8662140373534671,0.012179515199682099,0.814,-6.561,-8.208
1621787116896.498,-0.407,-0.897,0.038,0.5425364282199532,-6.515807310247263,-8.521581928896543
1621787116901.413,-0.414,-0.901,0.049,0.26918552404969853,-6.470300421331037,-8.837344015254029
1621787116906.327,-0.361,-0.89,0.058,-0.00409749046623209,-6.424804834542994,-9.153027678681264
1621787116907.494,-0.33701450715421305,-0.8878626788553259,0.05657511923688394,-0.069,-6.414,-9.228
1621787116911.241,-0.26,-0.881,0.052,0.014304026938511918,-6.432407122099727,-9.137852299460308
1621787116916.155,-0.173,-0.843,0.04,0.12355236250134538,-6.456546980949305,-9.019628888171349
1621787116921.068,-0.086,-0.806,0.042,0.23277898734566477,-6.4806820425296365,-8.901428971201009
1621787116923.372,-0.05316586311446891,-0.790521049753964,0.05325741836075352,0.284,-6.492,-8.846
1621787116925.98,-0.016,-0.773,0.066,0.3839131732381582,-6.437277817946864,-8.555791671153639
1621787116930.894,0.042,-0.744,0.091,0.572178699444641,-6.334165284679169,-8.008954632863098
1621787116935.805,0.084,-0.702,0.103,0.7603226312631725,-6.231119348337769,-7.462470778271772
1621787116939.242,0.09099701789264414,-0.6761110337972167,0.10999701789264414,0.892,-6.159,-7.08
1621787116940.717,0.094,-0.665,0.113,0.9530828935017773,-6.1097246064597535,-6.935985689445581
1621787116945.629,0.072,-0.614,0.129,1.1564802345084402,-5.945644559681167,-6.456438533860618
1621787116950.54,0.037,-0.567,0.164,1.3598472463723512,-5.7815889793343285,-5.976962884884669
1621787116955.108,0.017462930734423947,-0.5167618218885187,0.19842245537268163,1.549,-5.629,-5.531
1621787116955.45,0.016,-0.513,0.201,1.5430919738360906,-5.622013866871874,-5.514073720661793
1621787116960.361,-0.002,-0.457,0.232,1.4582626702577914,-5.5217047633705265,-5.27104086186995
1621787116965.271,-0.026,-0.401,0.257,1.373454451712197,-5.42142059253559,-5.02806841092728
1621787116970.18,-0.054,-0.342,0.278,1.2886631011927663,-5.321156367833782,-4.785144286263948
1621787116970.971,-0.05738305489260143,-0.33362291169451075,0.28009427207637233,1.275,-5.305,-4.746
1621787116975.09,-0.075,-0.29,0.291,1.043072656743069,-5.200593737973923,-4.695095454335545
1621787116979.999,-0.072,-0.234,0.29,0.7666760771516093,-5.076168849960746,-4.634430583562951
1621787116984.907,-0.075,-0.173,0.278,0.49033448270554003,-4.951768714499022,-4.573777781198528
1621787116986.831,-0.08519280704372481,-0.15183032383226383,0.278,0.382,-4.903,-4.55
1621787116989.815,-0.101,-0.119,0.278,0.23443404071826776,-4.855003418856069,-4.526095820371454
1621787116994.723,-0.141,-0.079,0.284,-0.008285520682539238,-4.776057643145347,-4.486777728154742
1621787116999.63,-0.164,-0.038,0.281,-0.2509567868913051,-4.697127575692241,-4.447467459266332
1621787117002.684,-0.17831492537313434,-0.011237313432835818,0.28224477611940296,-0.402,-4.648,-4.423
1621787117004.537,-0.187,0.005,0.283,-0.5293085868309588,-4.648,-4.388630188679246
1621787117009.444,-0.202,0.042,0.271,-0.866433130535233,-4.648,-4.297615849056603
1621787117014.35,-0.213,0.059,0.258,-1.203490581440123,-4.648,-4.206619622641509
1621787117018.535,-0.23091742160278747,0.06497247386759582,0.24349542060726728,-1.491,-4.648,-4.129
1621787117019.255,-0.234,0.066,0.241,-1.5110331032995472,-4.6618096675806395,-4.100472134076835
1621787117024.162,-0.26,0.086,0.227,-1.6475761268061246,-4.755934563603315,-3.906029914661573
1621787117029.066,-0.293,0.087,0.211,-1.784024045719215,-4.849993899996919,-3.711723127637943
1621787117033.971,-0.333,0.073,0.201,-1.9205059305585508,-4.944076650543763,-3.517367971903016
1621787117034.384,-0.3368739734209348,0.07333686725399433,0.2000736150515156,-1.932,-4.952,-3.501
1621787117038.876,-0.379,0.077,0.19,-1.8597092032480238,-5.099416526709912,-3.445435309163187
1621787117043.78,-0.419,0.075,0.182,-1.7807861512149272,-5.260357652424462,-3.384772884855395
1621787117048.684,-0.456,0.077,0.178,-1.7018630991818309,-5.421298778139012,-3.3241104605476033
1621787117050.229,-0.46293237725326164,0.07763021611393288,0.17705467582910067,-1.677,-5.472,-3.305
1621787117053.587,-0.478,0.079,0.175,-1.6250661169761886,-5.638400400708947,-3.3507866070740544
1621787117058.49,-0.49,0.072,0.168,-1.5492344917931726,-5.88137111813208,-3.417642243970101
1621787117063.392,-0.478,0.07,0.161,-1.4734179702550667,-6.12429344224397,-3.484484564999615
1621787117066.07,-0.46106747335922715,0.06508410516880789,0.15499168409520964,-1.432,-6.257,-3.521
1621787117068.295,-0.447,0.061,0.15,-1.5077262425999014,-6.230727630118401,-3.63662652627035
1621787117073.197,-0.4,0.049,0.124,-1.6745765910212136,-6.17284077454366,-3.8913906018746918
1621787117078.099,-0.337,0.037,0.077,-1.841426939442526,-6.1149539189689195,-4.146154677479033
1621787117081.906,-0.2950540998306267,0.039330327787187404,0.030393444256251866,-1.971,-6.07,-4.344
1621787117083.0,-0.283,0.04,0.017,-1.9168322437399778,-6.082920115332429,-4.3596146848402615
1621787117087.9,-0.232,0.03,-0.014,-1.6742196866905146,-6.140788161465401,-4.429551467867276
1621787117092.8,-0.211,0.044,-0.037,-1.4315950413223142,-6.198659090909091,-4.49949173553719
1621787117097.701,-0.197,0.075,-0.033,-1.1889341309979031,-6.256538670284939,-4.569442457135809
1621787117097.74,-0.19708770618428267,0.0754066377634923,-0.032944186973638316,-1.187,-6.257,-4.57
1621787117102.6,-0.208,0.126,-0.026,-0.9548806218767352,-6.416351795298907,-4.576140724288975
1621787117107.499,-0.234,0.171,-0.002,-0.720907273736813,-6.5769763557282985,-4.582330495403788
1621787117112.399,-0.267,0.173,0.03,-0.4868872848417546,-6.737632935406255,-4.588521500401011
1621787117113.569,-0.27822818122912824,0.16463858844639384,0.03358346209440263,-0.431,-6.776,-4.59
1621787117117.297,-0.314,0.138,0.045,-0.8609318101174037,-6.609681173729925,-5.005797065675188
1621787117122.195,-0.363,0.068,0.037,-1.4257839368086516,-6.391168515404434,-5.552078711488916
1621787117127.093,-0.422,-0.023,-0.01,-1.9906360634998994,-6.172655857078944,-6.098360357302643
1621787117129.394,-0.4426750423771064,-0.06716940871472729,-0.039602901585402334,-2.256,-6.07,-6.355
1621787117131.99,-0.466,-0.117,-0.073,-2.1803629083278038,-6.245392735352663,-6.6445866958816175
1621787117136.887,-0.515,-0.192,-0.119,-2.037681747342108,-6.576252086965915,-7.19086055518694
1621787117141.785,-0.557,-0.262,-0.145,-1.8949721326399924,-6.907177419105961,-7.7372433533414595
1621787117145.216,-0.571716964196669,-0.311757355141119,-0.135188690535554,-1.795,-7.139,-8.12
1621787117146.681,-0.578,-0.333,-0.131,-1.638772187065905,-7.427840870504708,-8.183528322271954
1621787117151.577,-0.562,-0.414,-0.08,-1.1166067603025158,-8.393243340021607,-8.395861151412253
1621787117156.473,-0.478,-0.466,-0.009,-0.5944413335391265,-9.358645809538508,-8.608193980552553
1621787117161.034,-0.32888695999201834,-0.498618477501746,0.05344108550334232,-0.108,-10.258,-8.806
1621787117161.367,-0.318,-0.501,0.058,-0.09292166126293037,-10.26212758993361,-8.8115806700633
1621787117166.263,-0.077,-0.503,0.093,0.12876529257372238,-10.322812845453141,-8.89362961247491
1621787117171.157,0.223,-0.447,0.115,0.3503638104060522,-10.38347389223406,-8.975645823683804
1621787117176.051,0.545,-0.372,0.099,0.571962328238382,-10.444134939014976,-9.057662034892697
1621787117176.847,0.593127680798005,-0.35460249376558606,0.10339002493765587,0.608,-10.454,-9.071
1621787117180.946,0.841,-0.265,0.126,0.930834749034749,-10.006439536679537,-8.852405868725869
1621787117185.839,1.066,-0.124,0.218,1.3161983011583012,-9.472192555984556,-8.591472957528957
1621787117190.731,1.148,0.01,0.36,1.7014657142857144,-8.938078857142857,-8.330605142857143
1621787117192.655,1.1338467524693205,0.04931457647410955,0.39970772223885065,1.853,-8.728,-8.228
1621787117195.625,1.112,0.11,0.461,2.2915916863617407,-7.990812688261736,-8.51719991658557
1621787117200.517,0.967,0.166,0.504,3.014033134065527,-6.776529140985835,-8.993565549840122
1621787117205.408,0.74,0.183,0.578,3.736294313916308,-5.56254858890588,-9.469812317530932
1621787117208.46,0.6127570102784153,0.16054535475501447,0.6603336992316136,4.187,-4.805,-9.767
1621787117210.301,0.536,0.147,0.71,3.9779453432849663,-4.974201427842937,-9.711065643688285
1621787117215.191,0.421,0.11,0.853,3.422693291919707,-5.423602753697093,-9.562503221918316
1621787117220.082,0.419,0.119,0.916,2.8673026285290435,-5.873116267210607,-9.413903713318808
1621787117224.259,0.4830530624469625,0.14547526581141118,0.9595560824639345,2.393,-6.257,-9.287
1621787117224.973,0.494,0.15,0.967,2.3167684984855037,-6.251215985658651,-9.349042591333376
1621787117229.863,0.604,0.202,0.983,1.794567070532237,-6.211594300550163,-9.774047073004883
1621787117234.752,0.714,0.243,0.993,1.2724959974037213,-6.171982506027075,-10.198945462693949
1621787117239.642,0.815,0.244,0.997,0.7502945694504544,-6.132360820918588,-10.623949944365457
1621787117240.057,0.8201754806491884,0.24103046192259675,0.997,0.706,-6.129,-10.66
1621787117244.531,0.876,0.209,0.997,0.603164309233409,-6.220787228122246,-10.64611859821608
1621787117249.419,0.934,0.183,0.983,0.4908171868478412,-6.321063998515976,-10.630953284175053
1621787117254.308,0.993,0.166,0.939,0.3784420071418634,-6.421365811807263,-10.615784182782235
1621787117255.85,1.0122435942260626,0.17041656260926027,0.9219646870785675,0.343,-6.453,-10.611
1621787117259.196,1.054,0.18,0.885,0.33049853123067413,-7.0700216450216455,-9.887821815089673
1621787117264.083,1.117,0.199,0.824,0.3122393630179344,-7.9712199134199135,-8.831575355596785
1621787117268.971,1.159,0.204,0.787,0.29397654607297463,-8.872598268398269,-7.775117826221399
1621787117271.641,1.1453376305401488,0.19853505221605955,0.7563962924099336,0.284,-9.365,-7.198
1621787117273.857,1.134,0.194,0.731,0.08033985432163676,-9.187446530473377,-6.757555108794829
1621787117278.743,1.063,0.178,0.651,-0.36874019145415465,-8.795932913721913,-5.786353741707004
1621787117283.63,0.923,0.185,0.543,-0.817909994896618,-8.404341045110804,-4.814958260519926
1621787117287.428,0.7682774751361887,0.223097506122245,0.45980748663101606,-1.167,-8.1,-4.06
1621787117288.515,0.724,0.234,0.436,-1.2034968832655335,-7.9021593478832495,-4.022883358339391
1621787117293.4,0.457,0.323,0.312,-1.3675279114012158,-7.0129873783854855,-3.8560668976504613
1621787117298.286,0.155,0.473,0.187,-1.531591730986373,-6.123637654483303,-3.6892170886761226
1621787117303.17,-0.15,0.632,0.089,-1.6955899676725805,-5.234643439389956,-3.522433976272602
1621787117303.212,-0.15223544113971507,0.633315471132217,0.08850132466883279,-1.697,-5.227,-3.521
1621787117308.054,-0.41,0.785,0.031,-1.2514594105360874,-5.33224822464609,-4.303150800649803
1621787117312.938,-0.62,0.913,0.0,-0.8020549083313995,-5.438409205538795,-5.092084737371393
1621787117317.822,-0.791,1.002,-0.019,-0.3526504061267117,-5.5445701864315,-5.881018674092984
1621787117318.992,-0.8219068546572672,1.0127814609269536,-0.02187505624718764,-0.245,-5.57,-6.07
1621787117322.705,-0.92,1.047,-0.031,-0.28195218124700167,-5.93481452823473,-6.660999535740262
1621787117327.587,-0.995,1.063,-0.042,-0.33053498197124687,-6.414453643665176,-7.438014902737585
1621787117332.47,-1.018,1.025,-0.038,-0.3791299308252991,-6.894212692861233,-8.215224562435196
1621787117334.768,-1.0081148672300846,0.9934617192578886,-0.03470495574336151,-0.402,-7.12,-8.581
1621787117337.352,-0.997,0.958,-0.031,-0.5707489551407077,-7.232390080802452,-8.789888269713012
1621787117342.233,-0.946,0.881,-0.049,-0.8894969815175999,-7.444682455651527,-9.184455001393145
1621787117347.115,-0.841,0.792,-0.075,-1.208324726788644,-7.6570279248320485,-9.579120414228662
1621787117350.54,-0.739254138948632,0.7246372230280598,-0.10587460611213924,-1.432,-7.806,-9.856
1621787117351.996,-0.696,0.696,-0.119,-1.4618227699167106,-7.768883116078893,-9.851475802706133
1621787117356.876,-0.524,0.62,-0.185,-1.5617720531318697,-7.644488032944237,-9.83631321794594
1621787117361.757,-0.34,0.541,-0.244,-1.6617463386692262,-7.520061832368332,-9.821146840263802
1621787117366.31,-0.16642544035228182,0.4775426341072858,-0.2915930244195356,-1.755,-7.404,-9.807
1621787117366.636,-0.154,0.473,-0.295,-1.7454691589363975,-7.390210258157434,-9.764617734966627
1621787117371.517,0.012,0.394,-0.333,-1.602734997599616,-7.183694671147384,-9.129899663946231
1621787117376.395,0.122,0.305,-0.36,-1.460093645951094,-6.977313366267635,-8.495594304120917
1621787117381.274,0.197,0.239,-0.372,-1.3174237374754154,-6.770890743809332,-7.861161956235578
1621787117382.075,0.20996967725794347,0.227507880910683,-0.37397007755816863,-1.294,-6.737,-7.757
1621787117386.153,0.276,0.169,-0.384,-1.289083786421302,-6.435040987034713,-7.165760630140806
1621787117391.03,0.344,0.122,-0.4,-1.2832045788992672,-6.07393387239184,-6.458708567622411
1621787117395.907,0.361,0.084,-0.421,-1.2773253713772323,-5.712826757748966,-5.751656505104017
1621787117397.836,0.3443912912912913,0.06462317317317318,-0.42772257257257257,-1.275,-5.57,-5.472
1621787117400.785,0.319,0.035,-0.438,-1.1170532031915716,-5.412240343946085,-5.1454393833759395
1621787117405.662,0.244,0.003,-0.45,-0.8558309861337051,-5.151327631884732,-4.605353164458904
1621787117410.538,0.15,-0.023,-0.449,-0.5946741498179564,-4.890480223100163,-4.065402122550159
1621787117413.594,0.10425805967160592,-0.028012815378454146,-0.4389743692430917,-0.431,-4.727,-3.727
1621787117415.415,0.077,-0.031,-0.433,-0.3335684955916761,-4.664588360165487,-3.633960425802253
1621787117420.291,0.023,-0.04,-0.428,-0.07268875218866694,-4.497476780761424,-3.3848403861350853
1621787117425.166,-0.054,-0.063,-0.424,0.18813874211692522,-4.330398670530084,-3.135770240327254
1621787117429.35,-0.14669350961538463,-0.0767323717948718,-0.4179920873397436,0.412,-4.187,-2.922
1621787117430.041,-0.162,-0.079,-0.417,0.45758147826626155,-4.187,-2.902653097290259
1621787117434.916,-0.272,-0.098,-0.401,0.7791966577788803,-4.187,-2.7661446332237865
1621787117439.79,-0.379,-0.099,-0.38,1.100747411173808,-4.187,-2.6296635146028398
1621787117444.664,-0.487,-0.099,-0.354,1.4222981645687358,-4.187,-2.4931823959818935
1621787117445.099,-0.4982490981963928,-0.099,-0.35167875751503,1.451,-4.187,-2.481
1621787117449.537,-0.613,-0.099,-0.328,1.633650974554589,-4.344564652432123,-2.5528765409126857
1621787117454.41,-0.714,-0.073,-0.314,1.8341972833418618,-4.517566792265588,-2.6317952272410103
1621787117459.284,-0.785,-0.051,-0.298,2.0347938316974465,-4.690612271479742,-2.7107336837698286
1621787117460.844,-0.7990889957907397,-0.045876728803367406,-0.2919161154539988,2.099,-4.746,-2.736
1621787117464.156,-0.829,-0.035,-0.279,2.2536396501186435,-4.948188712604104,-2.9217779742241663
1621787117469.028,-0.869,-0.019,-0.253,2.4811192946540737,-5.245614479132741,-3.1950630437816967
1621787117473.9,-0.913,0.003,-0.223,2.7085875401293444,-5.543025341584082,-3.4683344189581105
1621787117476.586,-0.9322998195669607,0.025608360064153967,-0.21142010825982357,2.834,-5.707,-3.619
1621787117478.771,-0.948,0.044,-0.202,2.834,-5.874568678548715,-3.767410039244885
1621787117483.642,-0.969,0.063,-0.188,2.834,-6.24812513378938,-4.098256642933594
1621787117488.513,-0.962,0.086,-0.178,2.834,-6.621662866272667,-4.429086664495013
1621787117492.325,-0.9314733306597153,0.1008719671144977,-0.17095538399839583,2.834,-6.914,-4.688
1621787117493.383,-0.923,0.105,-0.169,2.8069675567485377,-6.999737226730384,-4.770374982544879
1621787117498.252,-0.843,0.12,-0.155,2.6825771516345753,-7.3942590339948175,-5.1494253463871775
1621787117503.123,-0.73,0.127,-0.133,2.558130610851655,-7.788958883492886,-5.528646770414734
1621787117507.991,-0.586,0.129,-0.115,2.4337651549238957,-8.183401560875705,-5.90762110750803
1621787117508.06,-0.583871540312876,0.12857430806257522,-0.11482972322503009,2.432,-8.189,-5.913
1621787117512.86,-0.436,0.099,-0.103,2.064008473787131,-8.224700670453487,-6.0356638420709565
1621787117517.729,-0.288,0.086,-0.105,1.6907388024955767,-8.260913399757891,-6.160087065834808
1621787117522.597,-0.143,0.052,-0.108,1.3175439985101034,-8.297118865816183,-6.2844853338299655
1621787117523.791,-0.11037043539325841,0.046111958266452646,-0.11094402086677367,1.226,-8.306,-6.315
1621787117527.464,-0.01,0.028,-0.12,1.1388848303269272,-8.203003244434784,-6.248671023626937
1621787117532.332,0.129,-0.005,-0.115,1.0234318979167314,-8.066502592443106,-6.160765841845447
1621787117537.199,0.265,-0.023,-0.093,0.9080021267347635,-7.930029324101959,-6.0728782948865225
1621787117539.518,0.327421319287685,-0.026811988964133435,-0.07108106345623276,0.853,-7.865,-6.031
1621787117542.066,0.396,-0.031,-0.047,1.1614332417027753,-7.591575470965537,-6.06114639146438
1621787117546.932,0.504,-0.009,0.023,1.7504887170168817,-7.069380732733852,-6.118720915063132
1621787117551.797,0.548,0.065,0.106,2.3394555281181564,-6.547264594884219,-6.176286772585379
1621787117555.238,0.5246690744920993,0.12509480812641083,0.17811376975169302,2.756,-6.178,-6.217
1621787117556.664,0.515,0.15,0.208,2.7995509576401507,-6.063225080385852,-6.213461484691737
1621787117561.528,0.403,0.209,0.297,2.9480984202432543,-5.6717406216505895,-6.201392003355235
1621787117566.393,0.234,0.269,0.37,3.096675707162496,-5.2801775634155055,-6.189320098793047
1621787117570.955,0.0764625884478346,0.3027580167611783,0.42251247051738844,3.236,-4.913,-6.178
1621787117571.258,0.066,0.305,0.426,3.1972428527035426,-4.9508123213175885,-6.180641656308266
1621787117576.122,-0.058,0.34,0.461,2.575036047234307,-5.557850901180858,-6.22305077688005
1621787117580.985,-0.126,0.36,0.496,1.9529541640770667,-6.164767604101927,-6.265451382846488
1621787117585.849,-0.108,0.393,0.506,1.3307473586078309,-6.771806183965196,-6.307860503418272
1621787117586.668,-0.09149442603193733,0.3918210304308527,0.502463091292558,1.226,-6.874,-6.315
1621787117590.711,-0.01,0.386,0.485,0.5066602014173816,-7.070885490488624,-6.703881014546811
1621787117595.573,0.171,0.339,0.417,-0.35841540780803194,-7.307659315553898,-7.171548007584235
1621787117600.436,0.389,0.255,0.3,-1.2236647706079822,-7.544480697500933,-7.639308933233868
1621787117602.377,0.47323047953803665,0.21787471754958573,0.2297414009540547,-1.569,-7.639,-7.826
1621787117605.298,0.6,0.162,0.124,-1.7257978951622932,-7.279648240268624,-8.314807673174979
1621787117610.159,0.75,0.12,-0.066,-1.9867127378435518,-6.681679704016913,-9.128193446088796
1621787117615.02,0.843,0.157,-0.194,-2.2476406852381543,-6.08368113418729,-9.941620072130332
1621787117618.082,0.8492990306865551,0.19542408718798654,-0.23242408718798654,-2.412,-5.707,-10.454
1621787117619.881,0.853,0.218,-0.255,-2.6380381177547285,-5.809509579011593,-10.490417876754119
1621787117624.841,0.806,0.185,-0.346,-3.2612149938987187,-6.092123856009762,-10.590820317266626
1621787117629.812,0.771,0.068,-0.529,-3.88577220866382,-6.375364124466138,-10.691445149481392
1621787117634.088,0.8243412585351476,-0.010291202043523101,-0.6718169180134597,-4.423,-6.619,-10.778
1621787117634.782,0.833,-0.023,-0.695,-4.32335709941307,-6.739825122403674,-10.788158820667215
1621787117639.751,0.983,-0.019,-0.749,-3.610014870905939,-7.604810601222516,-10.860885685612628
1621787117644.722,1.14,0.037,-0.742,-2.8963922543563543,-8.470136073350972,-10.933641136757595
1621787117649.692,1.269,0.045,-0.726,-2.182909831827996,-9.335291548824621,-11.006382294802785
1621787117650.144,1.2753399843505477,0.034946596244131455,-0.728535993740219,-2.118,-9.414,-11.013
1621787117654.684,1.339,-0.066,-0.754,-2.5566685227496255,-8.655404530254657,-11.018346184690342
1621787117659.679,1.354,-0.232,-0.833,-3.0392841017415906,-7.820810815718199,-11.024227965319493
1621787117664.674,1.328,-0.379,-0.916,-3.5219232701357264,-6.986176307706275,-11.030110033439756
1621787117666.279,1.312894744561232,-0.4191735516988511,-0.9339977511610853,-3.677,-6.718,-11.032
1621787117669.668,1.281,-0.504,-0.972,-3.028280557362664,-6.975261676021605,-10.142399624793864
1621787117674.664,1.218,-0.611,-1.012,-2.0719089217362363,-7.354528511127585,-8.830910389276367
1621787117679.659,1.127,-0.681,-1.045,-1.1157709578346973,-7.733702679395433,-7.519741591902809
1621787117682.416,1.0425343664450528,-0.6887288815017598,-1.042239685177943,-0.588,-7.943,-6.796
1621787117684.653,0.974,-0.695,-1.04,-0.01843995159216394,-7.934960456848952,-6.654614930791922
1621787117689.649,0.764,-0.651,-0.993,1.2535132592088347,-7.917006383783375,-6.33887088722487
1621787117694.644,0.525,-0.641,-0.932,2.5252799939490207,-7.899054942893881,-6.023173133651009
1621787117698.555,0.3574421525978787,-0.6464808641673592,-0.8443061733222542,3.521,-7.885,-5.776
1621787117699.639,0.311,-0.648,-0.82,3.5091111010256877,-7.908038939820278,-5.853714441317963
1621787117704.635,0.138,-0.677,-0.623,3.4543150585458835,-8.014225621009954,-6.211901001482557
1621787117709.63,-0.012,-0.698,-0.4,3.3995324044658255,-8.12038635744758,-6.570000045384406
1621787117714.625,-0.161,-0.682,-0.243,3.344747072705818,-8.226552282835618,-6.928116592538803
1621787117714.693,-0.1628269155590305,-0.6817409597341674,-0.2417866008600469,3.344,-8.228,-6.933
1621787117719.621,-0.295,-0.663,-0.154,2.3378189286092494,-8.221892679384577,-7.376391476679626
1621787117724.616,-0.401,-0.661,-0.113,1.3179795161949137,-8.215702455333505,-7.825801742787553
1621787117729.611,-0.473,-0.703,-0.079,0.2980902558206382,-8.209511928715148,-8.275233975280253
1621787117730.831,-0.4844772516248839,-0.7210705663881151,-0.06996471680594243,0.049,-8.208,-8.385
1621787117734.607,-0.52,-0.777,-0.042,-0.1667121549050753,-7.962574782542924,-8.84613737236215
1621787117739.602,-0.553,-0.869,-0.009,-0.45207816352772107,-7.6379013085243175,-9.456176855003404
1621787117744.598,-0.564,-0.932,0.017,-0.7374860146736253,-7.313180228424476,-10.06630578624915
1621787117746.97,-0.5573530101641908,-0.9467183346364347,0.020323494917904614,-0.873,-7.159,-10.356
1621787117749.594,-0.55,-0.963,0.024,-0.7772534256934571,-7.1430693305907615,-10.31292216945461
1621787117754.589,-0.517,-0.951,0.042,-0.5949892918721075,-7.1127435494116575,-10.23091878157234
1621787117759.586,-0.435,-0.911,0.061,-0.4126627998427055,-7.082407392843098,-10.148887337790011
1621787117763.112,-0.3460548387096774,-0.8742924731182795,0.06947096774193548,-0.284,-7.061,-10.091
1621787117764.581,-0.309,-0.859,0.073,-0.20099810929771753,-6.991376703522756,-9.916987264229425
1621787117769.577,-0.185,-0.815,0.079,0.08128005082207734,-6.754597325790692,-9.325193577662487
1621787117774.573,-0.106,-0.796,0.084,0.36357200550572494,-6.5178063769606585,-8.733370970913436
1621787117779.253,-0.0994429730258014,-0.7828859460516029,0.09711405394839719,0.628,-6.296,-8.179
1621787117779.569,-0.099,-0.782,0.098,0.6471956317875185,-6.281779562573736,-8.133087182744957
1621787117784.565,-0.129,-0.759,0.133,0.9505162597936898,-6.0570746891732465,-7.407593762289379
1621787117789.562,-0.176,-0.721,0.175,1.2539110022083069,-5.8323149106089485,-6.681923072269111
1621787117794.557,-0.237,-0.682,0.222,1.5571723386877214,-5.607653961339505,-5.956571467465287
1621787117795.394,-0.25057256645817044,-0.6716111219702894,0.22987543979671618,1.608,-5.57,-5.835
1621787117799.553,-0.318,-0.62,0.269,1.7597554486743199,-5.441175340683939,-5.701022354311297
1621787117804.55,-0.374,-0.56,0.3,1.9420936067879668,-5.286389128363356,-5.54004469349789
1621787117809.546,-0.377,-0.489,0.321,2.1243872226507556,-5.1316407278007174,-5.379106356912746
1621787117811.536,-0.38177971071149336,-0.4575335711493354,0.3341442044566067,2.197,-5.07,-5.315
1621787117814.542,-0.389,-0.41,0.354,2.2645924598493785,-5.07372410247104,-5.309600051416992
1621787117819.539,-0.391,-0.319,0.398,2.3769519553579532,-5.079914708284185,-5.300623672987932
1621787117824.535,-0.356,-0.222,0.433,2.489284003266491,-5.086103801832865,-5.2916494873423465
1621787117827.68,-0.32326622361219703,-0.16597488272087568,0.4449604182955434,2.56,-5.09,-5.286
1621787117829.531,-0.304,-0.133,0.452,2.4789305526148633,-5.07417597773812,-5.249994616012825
1621787117834.528,-0.284,-0.049,0.471,2.260079398687275,-5.031458213605154,-5.152796225159554
1621787117839.525,-0.279,0.023,0.494,2.0412389371162396,-4.988742536523396,-5.055602583103959
1621787117843.823,-0.2764191262705239,0.08752184323690385,0.5086249511336982,1.853,-4.952,-4.972
1621787117844.521,-0.276,0.098,0.511,1.787714182016151,-4.935483985119317,-4.953754559477362
1621787117849.518,-0.271,0.157,0.529,1.3203234431237334,-4.817243414088256,-4.82313277682001
1621787117854.515,-0.264,0.215,0.536,0.8529555394247346,-4.69900861990745,-4.692517375918701
1621787117859.511,-0.264,0.264,0.532,0.3856561413059916,-4.58079115627741,-4.561921120285516
1621787117859.967,-0.26427379323822553,0.26701172562048076,0.5317262067617745,0.343,-4.57,-4.55
1621787117864.508,-0.267,0.297,0.529,-0.02099987901152417,-4.545245757841566,-4.373626024621155
1621787117869.505,-0.278,0.319,0.518,-0.4215367351259793,-4.518006775354648,-4.1795482744018635
1621787117874.502,-0.3,0.332,0.504,-0.8220931611264028,-4.490766461994495,-3.985461041710777
1621787117876.11,-0.3083673050615595,0.332,0.5014254445964432,-0.951,-4.482,-3.923
1621787117879.499,-0.326,0.332,0.496,-1.1487182992106935,-4.482,-3.809658299815526
1621787117884.496,-0.365,0.311,0.48,-1.440260561889497,-4.482,-3.6425321619741737
1621787117889.493,-0.393,0.29,0.464,-1.7317885807602746,-4.482,-3.475414189373091
1621787117892.256,-0.4084829001367989,0.27617598202071525,0.45736447136994335,-1.893,-4.482,-3.383
1621787117894.49,-0.421,0.265,0.452,-1.9743480903565274,-4.4941745441349905,-3.349104962351447
1621787117899.487,-0.457,0.234,0.433,-2.1563188787081558,-4.521408267561765,-3.2732838005382683
1621787117904.484,-0.49,0.206,0.41,-2.3382807765581055,-4.548640660437268,-3.197466343100789
1621787117908.403,-0.513524325908558,0.1895329718640094,0.39666954865181714,-2.481,-4.57,-3.138
1621787117909.482,-0.52,0.185,0.393,-2.4967033872675035,-4.613902661424468,-3.1288452593376683
1621787117914.479,-0.546,0.169,0.382,-2.569438605776501,-4.817251761681536,-3.0864421745047634
1621787117919.476,-0.569,0.152,0.368,-2.642173824285498,-5.020600861938606,-3.0440390896718585
1621787117924.474,-0.59,0.148,0.349,-2.7149232572206263,-5.223989702101921,-3.001627718130954
1621787117924.548,-0.5900740215957394,0.148,0.34861508770215466,-2.716,-5.227,-3.001
1621787117929.471,-0.595,0.148,0.323,-2.68611837290186,-5.430378013004688,-3.087595735672161
1621787117934.468,-0.578,0.148,0.297,-2.6557862392257676,-5.636822228942991,-3.1754970210192046
1621787117939.467,-0.56,0.136,0.278,-2.6254422501134127,-5.843347134432179,-3.26343266293664
1621787117940.693,-0.5511670900918507,0.13354641391440297,0.2701485245260895,-2.618,-5.894,-3.285
1621787117944.464,-0.524,0.126,0.246,-2.524110442435056,-5.907779810687392,-3.48655892581728
1621787117949.462,-0.485,0.11,0.199,-2.3996760818943357,-5.92604256509511,-3.7536904013064385
1621787117954.459,-0.44,0.101,0.154,-2.2752599570568846,-5.944302643118517,-4.020782729004748
