time,gyro_x,gyro_y,gyro_z,acc_x,acc_y,acc_z
1621785974040.245,,,,-0.108,-3.579,-8.591
1621785974065.863,,,,-0.147,-3.619,-8.561
1621785974091.482,,,,-0.127,-3.579,-8.542
1621785974117.103,,,,-0.127,-3.442,-8.542
1621785974142.722,,,,-0.147,-3.481,-8.649
1621785974168.34,,,,-0.147,-3.501,-8.669
1621785974193.959,,,,-0.108,-3.501,-8.63
1621785974219.58,,,,-0.088,-3.521,-8.61
1621785974245.199,,,,-0.088,-3.521,-8.61
1621785974270.819,,,,-0.088,-3.521,-8.649
1621785974296.437,,,,-0.088,-3.54,-8.689
1621785974322.054,,,,-0.088,-3.54,-8.649
1621785974347.672,,,,-0.069,-3.521,-8.649
1621785974373.29,,,,-0.088,-3.56,-8.649
1621785974398.907,,,,-0.108,-3.579,-8.669
1621785974424.524,,,,-0.127,-3.56,-8.708
1621785974450.138,,,,-0.147,-3.54,-8.728
1621785976291.965,-0.044,0.04,0.077,-0.22525952395803037,-3.899597559452722,-8.58237784782493
1621785976296.966,-0.038,0.038,0.075,-0.22547201623529892,-3.9005739480178923,-8.581982450802672
1621785976301.968,-0.031,0.038,0.075,-0.225684550006861,-3.901550527246716,-8.581586976569511
1621785976306.969,-0.031,0.037,0.073,-0.22589704228412955,-3.9025269158118863,-8.581191579547252
1621785976309.392,-0.0285773774653388,0.037,0.07396904901386447,-0.226,-3.903,-8.581
1621785976311.97,-0.026,0.037,0.075,-0.23222253282763416,-3.8998089575242902,-8.582595521237854
1621785976316.972,-0.024,0.035,0.07,-0.2442963326735067,-3.893617265295638,-8.585691367352181
1621785976321.973,-0.017,0.031,0.075,-0.256367775276145,-3.887426781909669,-8.588786609045165
1621785976325.549,-0.019860239199414206,0.023849402001464487,0.07285482060043934,-0.265,-3.883,-8.591
1621785976326.974,-0.021,0.021,0.072,-0.265,-3.877884698487527,-8.592675702219603
1621785976331.975,-0.014,0.03,0.066,-0.265,-3.8599333816841184,-8.59855630600003
1621785976336.977,-0.01,0.023,0.066,-0.265,-3.841978559448801,-8.6044380581116
1621785976341.707,-0.003379320445225542,0.02110837727006444,0.06505418863503222,-0.265,-3.825,-8.61
1621785976341.978,-0.003,0.021,0.065,-0.26466456642944564,-3.824010470966865,-8.609513621322696
1621785976346.979,0.0,0.017,0.061,-0.2584744571868909,-3.8057496487013283,-8.600537962920992
1621785976351.98,-0.002,0.014,0.056,-0.2522843479443362,-3.7874888264357915,-8.591562304519288
1621785976356.982,0.0,0.014,0.061,-0.24609302993215781,-3.7692244382998656,-8.582584893401629
1621785976357.865,-0.000353153680921695,0.013646846319078306,0.06047026947861746,-0.245,-3.766,-8.581
1621785976361.983,-0.002,0.012,0.058,-0.24015835989787132,-3.7609035367346015,-8.5759035367346
1621785976366.984,0.0,0.009,0.061,-0.2342784668610536,-3.7547141756432145,-8.569714175643215
1621785976371.986,-0.002,0.003,0.051,-0.2283971385837954,-3.748523303772416,-8.563523303772415
1621785976374.025,-0.001184631907830502,0.004630736184338996,0.053038420230423745,-0.226,-3.746,-8.561
1621785976376.987,0.0,0.007,0.056,-0.22233377651538044,-3.738850864204992,-8.557517087689611
1621785976381.988,0.0,0.007,0.052,-0.21614413488849943,-3.7267810630325737,-8.551636928144074
1621785976386.99,-0.003,0.009,0.054,-0.20995328458330814,-3.7147089049374507,-8.545755620354143
1621785976390.184,-0.0023613063854715875,0.009638693614528413,0.05208391915641476,-0.206,-3.707,-8.542
1621785976391.991,-0.002,0.01,0.051,-0.206,-3.704763879447088,-8.539763879447088
1621785976396.992,-0.002,0.007,0.049,-0.206,-3.6985748923634714,-8.533574892363472
1621785976401.993,-0.005,0.005,0.049,-0.206,-3.692385905279855,-8.527385905279855
1621785976406.345,-0.006740055639611499,0.006740055639611499,0.045519888720777,-0.206,-3.687,-8.522
1621785976406.995,-0.007,0.007,0.045,-0.20756923983500294,-3.6878047383769244,-8.520430760164997
1621785976411.996,-0.012,0.009,0.044,-0.21963995285798465,-3.693994847619479,-8.508360047142016
1621785976416.997,-0.019,0.003,0.044,-0.2317106658809664,-3.7001849568620337,-8.496289334119034
1621785976421.998,-0.017,0.005,0.037,-0.24378137890394813,-3.7063750661045884,-8.484218621096053
1621785976422.503,-0.017201874267864115,0.004495314330339711,0.03710093713393205,-0.245,-3.707,-8.483
1621785976427.0,-0.019,0.0,0.038,-0.23971129580657347,-3.7014329429542876,-8.461010124669437
1621785976432.001,-0.017,0.005,0.033,-0.23382998111069134,-3.695242085379675,-8.436556237249716
1621785976437.002,-0.03,0.005,0.033,-0.2279486664148092,-3.689051227805062,-8.412102349829997
1621785976438.659,-0.03231886958219445,0.006325068332682546,0.03432506833268255,-0.226,-3.687,-8.404
1621785976442.004,-0.037,0.009,0.037,-0.2218596618466978,-3.687,-8.408140338153302
1621785976447.005,-0.045,0.003,0.031,-0.21566955260414306,-3.687,-8.414330447395857
1621785976452.006,-0.049,0.01,0.033,-0.2094791411691824,-3.687,-8.420520858830818
1621785976454.817,-0.054058435852372584,0.011124096856082797,0.030189757859793012,-0.206,-3.687,-8.424
1621785976457.007,-0.058,0.012,0.028,-0.2032887041934265,-3.6897112958065734,-8.43728534945221
1621785976462.009,-0.061,0.01,0.031,-0.19709663770306007,-3.69590336229694,-8.467626475255006
1621785976467.01,-0.068,0.012,0.03,-0.1909057801284473,-3.7020942198715527,-8.497961677370608
1621785976470.973,-0.068,0.012,0.028415153290372974,-0.186,-3.707,-8.522
1621785976472.011,-0.068,0.012,0.028,-0.18349443974374471,-3.7082849026955156,-8.522
1621785976477.013,-0.063,0.002,0.028,-0.17142155203674603,-3.714476127160643,-8.522
1621785976478.093,0.0,-0.038,-0.096,-0.16881463797896773,-3.7158130061646317,-8.522
1621785976482.014,-0.063,0.005,0.024,-0.15935102139489907,-3.7206661428744106,-8.522
1621785976487.015,-0.066,0.002,0.021,-0.14728049075305208,-3.7268561585881783,-8.522
1621785976487.131,-0.06616262384694227,0.0019535360437307825,0.021069695934403828,-0.147,-3.727,-8.522
1621785976492.017,-0.073,0.0,0.024,-0.147,-3.7209514922553835,-8.533794590102003
1621785976496.46,-0.005,-0.035,-0.096,-0.147,-3.7154515300340005,-8.544519516433699
1621785976497.018,-0.073,-0.003,0.023,-0.147,-3.7147606346807707,-8.545866762372498
1621785976502.019,-0.079,-0.005,0.017,-0.147,-3.708569777106158,-8.557938934642992
1621785976503.287,-0.079,-0.003732181214606522,0.016746436242921305,-0.147,-3.707,-8.561
1621785976507.02,-0.079,0.0,0.016,-0.16063136342344247,-3.7023791988395107,-8.561
1621785976512.022,-0.073,-0.003,0.017,-0.17889685549796763,-3.6961875066108583,-8.561
1621785976514.857,-0.01,-0.038,-0.099,-0.18924920291935507,-3.6926782362985233,-8.561
1621785976517.023,-0.079,-0.002,0.014,-0.19715878148657429,-3.68999702322489,-8.561
1621785976519.444,-0.079,-0.0024841339582112867,0.011579330208943566,-0.206,-3.687,-8.561
1621785976522.024,-0.079,-0.003,0.009,-0.21222762372497164,-3.687,-8.561
1621785976527.025,-0.079,-0.002,0.005,-0.22429979599546657,-3.687,-8.561
1621785976532.027,-0.077,-0.01,0.002,-0.23637491499811106,-3.687,-8.561
1621785976533.287,-0.016,-0.044,-0.106,-0.2394165319229316,-3.687,-8.561
1621785976535.6,-0.053715460418978005,-0.01803197807217908,-0.03922508647131763,-0.245,-3.687,-8.561
1621785976537.028,-0.077,-0.002,0.002,-0.245,-3.69053574127248,-8.561
1621785976542.029,-0.08,-0.003,-0.003,-0.245,-3.702918392020553,-8.561
1621785976547.03,-0.079,0.0,0.0,-0.245,-3.715301042768626,-8.561
1621785976551.742,-0.012,-0.047,-0.103,-0.245,-3.7269679613117725,-8.561
1621785976551.755,-0.01498905723905724,-0.04476936026936027,-0.0988063973063973,-0.245,-3.727,-8.561
1621785976552.032,-0.079,0.003,-0.009,-0.24467412164714772,-3.726656970154892,-8.561
1621785976557.033,-0.073,-0.005,-0.005,-0.2387928069512656,-3.7204661125802794,-8.561
1621785976562.034,-0.073,0.0,-0.012,-0.23291149225538346,-3.7142752550056666,-8.561
1621785976567.036,-0.07,0.002,-0.017,-0.22702902908953532,-3.7080831885153,-8.561
1621785976567.911,-0.05327411827710199,-0.011983933899472114,-0.04140333562849055,-0.226,-3.707,-8.561
1621785976570.227,-0.009,-0.049,-0.106,-0.21467523420973103,-3.702699456029012,-8.561
1621785976572.037,-0.068,0.003,-0.01,-0.20582503777576308,-3.699338621940163,-8.561
1621785976577.038,-0.068,0.002,-0.019,-0.18137299788455727,-3.6900530371713507,-8.561
1621785976582.039,-0.072,0.002,-0.021,-0.15692095799335146,-3.6807674524025384,-8.561
1621785976584.068,-0.072,0.0032169562670831707,-0.02221695626708317,-0.147,-3.677,-8.561
1621785976587.041,-0.072,0.005,-0.024,-0.14332020307329676,-3.673504192919632,-8.550144599066225
1621785976588.741,-0.005,-0.035,-0.112,-0.14121603735098137,-3.671505235483432,-8.543937310185395
1621785976592.042,-0.068,0.005,-0.021,-0.13713009383074204,-3.667623589139205,-8.53188377680069
1621785976597.043,-0.075,0.002,-0.03,-0.13093998458818729,-3.661742985358778,-8.513622954535153
1621785976600.226,-0.07627274502147599,0.003909117532213979,-0.026181764935572043,-0.127,-3.658,-8.502
1621785976602.045,-0.077,0.005,-0.024,-0.12486110397558138,-3.658,-8.506502938998777
1621785976607.046,-0.077,0.0,-0.026,-0.11898014475891144,-3.658,-8.518883905770712
1621785976607.288,-0.007,-0.04,-0.112,-0.11869534142250562,-3.658,-8.519483491742093
1621785976612.047,-0.077,0.0,-0.026,-0.113098898442104,-3.658,-8.531265476963991
1621785976616.383,-0.07960105448154657,0.0017340363210310485,-0.02773403632103105,-0.108,-3.658,-8.542
1621785976617.048,-0.08,0.002,-0.028,-0.108,-3.658,-8.541176827886314
1621785976622.05,-0.077,0.0,-0.024,-0.108,-3.658,-8.534985509874137
1621785976625.861,-0.005,-0.038,-0.117,-0.108,-3.658,-8.530268286417963
1621785976627.051,-0.08,-0.002,-0.03,-0.108,-3.658,-8.528795400631582
1621785976632.052,-0.082,0.0,-0.028,-0.108,-3.658,-8.522605291389027
1621785976632.541,-0.082684351815697,-0.0004888227254978524,-0.027608941819601718,-0.108,-3.658,-8.522
1621785976637.054,-0.089,-0.005,-0.024,-0.108,-3.6660987596501036,-8.541269462615764
1621785976642.055,-0.087,0.0,-0.026,-0.108,-3.6750733332326146,-8.562622758381048
1621785976644.463,-0.01,-0.042,-0.119,-0.108,-3.6793945702587965,-8.572904322339895
1621785976647.056,-0.093,0.0,-0.026,-0.108,-3.6840479068151257,-8.583976054146333
1621785976648.701,-0.09168424135910955,-0.0006578793204452256,-0.026,-0.108,-3.687,-8.591
1621785976652.057,-0.089,-0.002,-0.026,-0.11610017678255745,-3.684923031594216,-8.599100176782557
1621785976657.059,-0.086,-0.002,-0.028,-0.12817383618149675,-3.6818272214919237,-8.611173836181496
1621785976662.06,-0.082,-0.009,-0.028,-0.14024454920447849,-3.6787321668706467,-8.623244549204479
1621785976663.098,-0.014,-0.04,-0.117,-0.14274955804360634,-3.678089856911896,-8.625749558043607
1621785976664.859,-0.04510392410521777,-0.026225405039117848,-0.07656489866321692,-0.147,-3.677,-8.63
1621785976667.061,-0.084,-0.009,-0.026,-0.147,-3.674410865361373,-8.635314539521394
1621785976672.063,-0.079,-0.003,-0.03,-0.147,-3.6685299129804205,-8.647385968092822
1621785976677.064,-0.073,-0.01,-0.035,-0.147,-3.662650108774474,-8.659455039883975
1621785976681.019,-0.027501482290528942,-0.03527695428303947,-0.10409034170697458,-0.147,-3.658,-8.669
1621785976681.758,-0.019,-0.04,-0.117,-0.14791468113073564,-3.6570853188692642,-8.669914681130736
1621785976682.065,-0.073,-0.007,-0.033,-0.14829451402843458,-3.6567054859715653,-8.670294514028434
1621785976687.067,-0.066,-0.007,-0.033,-0.15448545786937012,-3.65051454213063,-8.67648545786937
1621785976692.068,-0.059,-0.012,-0.038,-0.16067549518787677,-3.6443245048121233,-8.682675495187876
1621785976697.069,-0.061,-0.003,-0.038,-0.1668652303322405,-3.6381347696677593,-8.68886523033224
1621785976697.178,-0.059872109826589595,-0.004192341040462427,-0.040610260115606936,-0.167,-3.638,-8.689
1621785976700.448,-0.026,-0.04,-0.119,-0.1748927519151444,-3.638,-8.696892751915144
1621785976702.07,-0.054,-0.01,-0.038,-0.1788078962875663,-3.638,-8.700807896287566
1621785976707.072,-0.054,-0.012,-0.042,-0.19088096641131408,-3.638,-8.712880966411314
1621785976712.073,-0.04,-0.01,-0.045,-0.20295167943429582,-3.638,-8.724951679434296
1621785976713.336,-0.038232230033196646,-0.011767769966803359,-0.044747461433313804,-0.206,-3.638,-8.728
1621785976717.074,-0.033,-0.017,-0.044,-0.206,-3.6289776075427223,-8.72337313207319
1621785976719.171,-0.024,-0.04,-0.12,-0.206,-3.623916322922805,-8.720777601498874
1621785976722.076,-0.024,-0.017,-0.051,-0.206,-3.6169045374189746,-8.717181814061012
1621785976727.077,-0.026,-0.017,-0.056,-0.206,-3.604833824395993,-8.710991704818458
1621785976729.494,-0.02358347978910369,-0.01989982425307557,-0.05503339191564147,-0.206,-3.599,-8.708
1621785976732.078,-0.021,-0.023,-0.054,-0.20919816280896839,-3.5927635825225117,-8.698565419713542
1621785976737.079,-0.024,-0.023,-0.059,-0.21538810660542695,-3.5806931921194174,-8.68030508551399
1621785976737.919,-0.021,-0.045,-0.122,-0.2164275699522572,-3.5786662385930987,-8.677238668640841
1621785976742.081,-0.017,-0.021,-0.063,-0.22157895691061824,-3.5686210340242943,-8.662042077113675
1621785976745.653,-0.016285735207967195,-0.025999853544229644,-0.06657132396016403,-0.226,-3.56,-8.649
1621785976747.082,-0.016,-0.028,-0.068,-0.227680295544173,-3.554782240152305,-8.642986310684012
1621785976752.083,-0.014,-0.03,-0.075,-0.23356089932459997,-3.5365214178867683,-8.621939939259326
1621785976756.697,-0.021,-0.051,-0.12,-0.23898647688983576,-3.5196735717631413,-8.602522082710061
1621785976757.085,-0.019,-0.031,-0.079,-0.2394426514361694,-3.5182570297508424,-8.60088945801792
1621785976761.811,-0.01616490919742238,-0.031,-0.07994503026752588,-0.245,-3.501,-8.581
1621785976762.086,-0.016,-0.031,-0.08,-0.2446767252451684,-3.501663563970444,-8.58183370857825
1621785976767.087,-0.023,-0.031,-0.086,-0.23879576602849847,-3.513735006573082,-8.597000392873872
1621785976772.088,-0.023,-0.031,-0.084,-0.23291480681182852,-3.5258064491757204,-8.612167077169495
1621785976775.503,-0.012,-0.045,-0.12,-0.22889885008839664,-3.5340497287659227,-8.622524018193083
1621785976777.09,-0.017,-0.031,-0.091,-0.22703241209447106,-3.5378808383324016,-8.627337463545839
1621785976777.968,-0.017351103300136693,-0.030824448349931654,-0.09152665495020504,-0.226,-3.54,-8.63
1621785976782.091,-0.019,-0.03,-0.094,-0.22089657464907908,-3.5351517459166253,-8.655006784219513
1621785976787.092,-0.014,-0.035,-0.093,-0.21470646540652433,-3.529271142136198,-8.68533831950803
1621785976792.094,-0.003,-0.037,-0.094,-0.20851514739434596,-3.5233893900246285,-8.715675777767705
1621785976794.126,-0.009321723090277779,-0.04783723958333334,-0.11748068576388888,-0.206,-3.521,-8.728
1621785976794.344,-0.01,-0.049,-0.12,-0.20547377725397759,-3.5199340616170316,-8.727473777253977
1621785976797.095,0.0,-0.04,-0.099,-0.19883382439599293,-3.506483900699575,-8.720833824395992
1621785976802.096,-0.002,-0.04,-0.099,-0.1867631113730112,-3.482032969191484,-8.708763111373012
1621785976807.097,0.002,-0.04,-0.103,-0.17469239835002948,-3.4575820376833932,-8.696692398350029
1621785976810.284,0.0007257552833227587,-0.04254848943335448,-0.10491136707501586,-0.167,-3.442,-8.689
1621785976812.099,0.0,-0.044,-0.106,-0.167,-3.439865410477644,-8.680124601459678
1621785976813.209,-0.009,-0.047,-0.12,-0.167,-3.4385602532525423,-8.674697895102677
1621785976817.1,0.002,-0.049,-0.112,-0.167,-3.433984451260974,-8.655672192085103
1621785976822.101,-0.005,-0.044,-0.115,-0.167,-3.428103492044304,-8.631219782710527
1621785976826.441,-0.005,-0.044,-0.11673525966419368,-0.167,-3.423,-8.61
1621785976827.103,-0.005,-0.044,-0.117,-0.167,-3.4245980901728514,-8.60799214311616
1621785976832.104,-0.003,-0.051,-0.119,-0.167,-3.4366686208146984,-8.59282660461743
1621785976842.599,-0.002742776347810082,-0.050434107965182176,-0.11787979099471291,-0.167,-3.462,-8.561
1621785976858.756,-0.0023467866744529458,-0.049562930683796476,-0.11615525596724258,-0.147,-3.501,-8.542
1621785976874.913,-0.0019507970010958094,-0.048691753402410776,-0.11443072093977225,-0.147,-3.56,-8.689
1621785976891.071,-0.0015547833932776894,-0.047820523465210915,-0.11270608167772433,-0.069,-3.501,-8.728
1621785976907.229,-0.0011587697854595696,-0.04694929352801105,-0.11098144241567642,0.0,-3.481,-8.669
1621785976923.388,-0.0007627322431804661,-0.04607801093499702,-0.10925669891905093,0.0,-3.521,-8.689
1621785976939.544,-0.00036676650428431323,-0.04520688630942549,-0.10753226812615818,-0.01,-3.658,-8.542
1621785976955.702,2.924710353380657e-05,-0.04433565637222562,-0.10580762886411027,0.0,-3.305,-8.247
1621785976971.861,0.0004252906294281559,-0.04346436061525805,-0.10408285930884037,-0.147,-3.079,-8.591
1621785976988.02,0.0008213281717072592,-0.042593078022244026,-0.10235811581221488,-0.186,-3.177,-8.728
1621785977004.178,0.0012173417795253794,-0.041721848085044165,-0.10063347655016697,-0.167,-3.305,-8.669
1621785977020.335,0.0016133314528825153,-0.040850670803658465,-0.09890894152269664,-0.108,-3.442,-8.728
1621785977036.49,0.002009273257317685,-0.03997959883390109,-0.09718461496438148,-0.088,-3.54,-8.826
1621785977052.644,0.0024051911272918707,-0.03910857951995788,-0.0954603926406439,-0.108,-3.521,-8.865
1621785977068.8,0.002801156866188023,-0.03823745489438635,-0.09373596184775115,-0.108,-3.481,-8.748
1621785977084.956,0.0031971226050841765,-0.03736633026881481,-0.0920115310548584,-0.088,-3.442,-8.708
1621785977101.112,0.003593088343980329,-0.036495205643243274,-0.09028710026196567,-0.127,-3.481,-8.846
1621785977117.27,0.003989101951798449,-0.035623975706043406,-0.08856246099991774,-0.147,-3.501,-8.904
1621785977133.428,0.004385115559616569,-0.034752745768843546,-0.08683782173786983,-0.127,-3.56,-8.826
1621785977149.586,0.004781129167434689,-0.033881515831643685,-0.08511318247582192,-0.127,-3.54,-8.728
1621785977165.744,0.005177142775252808,-0.03301028589444382,-0.08338854321377401,-0.127,-3.481,-8.649
1621785977181.902,0.005573162366686175,-0.03213904279329041,-0.08166387789308172,-0.127,-3.423,-8.561
1621785977198.059,0.005969152040043312,-0.03126786551190471,-0.07993934286561138,-0.127,-3.442,-8.522
1621785977214.216,0.006365141713400447,-0.03039668823051901,-0.07821480783814105,-0.167,-3.501,-8.561
1621785977230.373,0.0067611313867575835,-0.02952551094913331,-0.07649027281067072,-0.186,-3.54,-8.561
1621785977246.53,0.00715712106011472,-0.02865433366774761,-0.07476573778320039,-0.186,-3.579,-8.581
1621785977262.688,0.00755313466793284,-0.027783103730547747,-0.07304109852115248,-0.167,-3.579,-8.581
1621785977278.845,0.007949124341289977,-0.02691192644916205,-0.07131656349368215,-0.127,-3.54,-8.542
1621785977295.003,0.008345137949108097,-0.026040696511962187,-0.06959192423163424,-0.127,-3.54,-8.581
1621785977311.161,0.008741151556926216,-0.025169466574762323,-0.06786728496958633,-0.186,-3.56,-8.591
1621785977327.319,0.009137171148359581,-0.024298223473608917,-0.06614261964889401,-0.167,-3.56,-8.542
1621785977343.478,0.009533208690638686,-0.02342694088059489,-0.06441787615226852,-0.147,-3.56,-8.649
1621785977359.636,0.009929222298456806,-0.022555710943395025,-0.0626932368902206,-0.147,-3.599,-8.669
1621785977375.793,0.010325211971813943,-0.021684533662009325,-0.06096870186275028,-0.127,-3.579,-8.649
1621785977391.951,0.010721225579632062,-0.02081330372480946,-0.05924406260070237,-0.127,-3.56,-8.63
1621785977408.111,0.011117293039987396,-0.01994195531202773,-0.057519188810854896,-0.127,-3.521,-8.649
1621785977424.27,0.011513330582266498,-0.0190706727190137,-0.055794445314229404,-0.147,-3.481,-8.669
1621785977440.431,0.011909415993467568,-0.018199284814371344,-0.05406949334844874,-0.147,-3.501,-8.63
1621785977456.59,0.01230545951936192,-0.017327989057403778,-0.05234472379317885,-0.108,-3.481,-8.61
1621785977472.749,0.012701497061641021,-0.01645670646438975,-0.050619980296553346,-0.147,-3.521,-8.61
1621785977488.907,0.01309751066945914,-0.01558547652718989,-0.048895341034505435,-0.147,-3.54,-8.649
1621785977505.067,0.013493572146199229,-0.014714141278361695,-0.04717049330330236,-0.147,-3.54,-8.649
1621785977521.225,0.013889591737632594,-0.013842898177208289,-0.04544582798261006,-0.167,-3.521,-8.649
1621785977537.383,0.014285605345450713,-0.012971668240008428,-0.043721188720562146,-0.088,-3.481,-8.669
1621785977553.541,0.014681618953268836,-0.012100438302808561,-0.041996549458514235,-0.049,-3.481,-8.669
1621785977569.701,0.01507768043000892,-0.011229103053980373,-0.04027170172731115,-0.01,-3.481,-8.649
1621785977585.858,0.015473670103366057,-0.010357925772594673,-0.03854716669984082,-0.01,-3.501,-8.63
1621785977602.015,0.015869659776723194,-0.009486748491208973,-0.03682263167237049,-0.049,-3.521,-8.63
1621785977618.171,0.016265625515619348,-0.008615623865637433,-0.03509820087947775,-0.069,-3.579,-8.669
1621785977634.328,0.016661615188976485,-0.007744446584251739,-0.03337366585200742,-0.049,-3.521,-8.708
1621785977650.488,0.017057682649331815,-0.006873098171470006,-0.03164879206215994,0.01,-3.481,-8.689
1621785977666.647,0.01745372019161092,-0.006001815578455978,-0.029924048565534447,0.049,-3.481,-8.63
1621785977682.806,0.017849757733890022,-0.00513053298544195,-0.028199305068908956,0.029,-3.481,-8.581
1621785977698.961,0.01824569953832519,-0.004259461015684578,-0.026474978510593786,-0.01,-3.501,-8.591
1621785977715.119,0.018641713146143313,-0.0033882310784847103,-0.024750339248545875,-0.069,-3.54,-8.63
1621785977731.276,0.019037702819500447,-0.00251705379709901,-0.023025804221075544,-0.088,-3.521,-8.708
1621785977747.431,0.01943364462393562,-0.0016459818273416374,-0.021301477662760387,-0.029,-3.481,-8.463
1621785977763.587,0.01982961036283177,-0.0007748572017701044,-0.019577046869867637,-0.029,-3.56,-8.483
1621785977779.743,0.020225576101727923,9.626742380143549e-05,-0.0178526160769749,-0.049,-3.687,-8.591
1621785977795.9,0.02062156577508506,0.0009674447051871357,-0.01612808104950457,-0.088,-3.746,-8.649
1621785977812.058,0.021017585366518425,0.0018386878063405346,-0.014403415728812263,-0.049,-3.727,-8.61
1621785977828.216,0.021413598974336544,0.002709917743540402,-0.012678776466764352,-0.049,-3.677,-8.581
1621785977844.374,0.021809612582154664,0.0035811476807402626,-0.010954137204716441,-0.069,-3.658,-8.581
1621785977860.532,0.022205626189972787,0.00445237761794013,-0.009229497942668516,-0.088,-3.638,-8.542
1621785977876.688,0.022601591928868937,0.005323502243511663,-0.007505067149775779,-0.088,-3.677,-8.581
1621785977892.845,0.022997581602226074,0.006194679524897363,-0.0057805321223054484,-0.127,-3.658,-8.522
1621785977909.003,0.023393595210044194,0.007065909462097231,-0.004055892860257537,-0.127,-3.638,-8.561
1621785977925.159,0.023789560948940348,0.007937034087668764,-0.002331462067364787,-0.127,-3.658,-8.591
1621785977941.315,0.024185526687836502,0.008808158713240304,-0.0006070312744720502,-0.167,-3.677,-8.591
1621785977957.472,0.024581516361193635,0.009679335994626004,0.0011175037529982806,-0.147,-3.638,-8.561
1621785977973.629,0.024977506034550772,0.010550513276011704,0.0028420387804686115,-0.127,-3.638,-8.561
1621785977989.786,0.02537349570790791,0.011421690557397404,0.004566573807938942,-0.088,-3.619,-8.561
1621785978005.941,0.02576943751234308,0.01229276252715477,0.0062909003662540985,-0.069,-3.619,-8.542
1621785978022.098,0.026165427185700214,0.013163939808540477,0.00801543539372443,-0.049,-3.619,-8.542
1621785978038.256,0.026561446777133582,0.014035182909693876,0.00974010071441675,-0.069,-3.658,-8.591
1621785978054.414,0.0269574603849517,0.014906412846893737,0.01146473997646466,-0.069,-3.638,-8.591
1621785978070.572,0.02735347399276982,0.01577764278409361,0.013189379238512572,-0.108,-3.579,-8.61
1621785984992.409,0.197,0.389,0.752,-1.234030111639046,-3.9802979653181705,-7.503934961262355
1621785985000.34,0.162,0.4,0.792,-1.2353203350970583,-3.9807577789973556,-7.50266761410679
1621785985004.518,0.15198962470367292,0.40895665158092426,0.8141281980234598,-1.236,-3.981,-7.502
1621785985008.27,0.143,0.417,0.834,-1.2904886626826408,-3.981,-7.496287478912303
1621785985016.199,0.136,0.419,0.873,-1.4056388642667201,-3.981,-7.484215280359134
1621785985024.128,0.126,0.426,0.908,-1.5207890658507992,-3.981,-7.472143081805965
1621785985030.133,0.11767127377947424,0.4381145108662193,0.9329861786615773,-1.608,-3.981,-7.463
1621785985032.059,0.115,0.442,0.941,-1.6176230237766238,-3.9722039548291797,-7.471871225044075
1621785985039.989,0.112,0.449,0.977,-1.6572434364130177,-3.935988421403726,-7.50839629294325
1621785985047.918,0.105,0.457,1.014,-1.6968589698384715,-3.899777347882022,-7.544916862819841
1621785985055.752,0.10598774856861418,0.4500857600197008,1.0446202056270393,-1.736,-3.864,-7.581
1621785985055.849,0.106,0.45,1.045,-1.7358520925445953,-3.8632908027138284,-7.580476635157799
1621785985063.778,0.099,0.466,1.082,-1.72378276985821,-3.805419947781674,-7.5377698010367435
1621785985071.708,0.084,0.476,1.119,-1.7117119606647355,-3.7475419652386033,-7.4950577069675255
1621785985079.637,0.075,0.485,1.147,-1.6996426379783505,-3.689671110306449,-7.45235087284647
1621785985081.373,0.06930874838391922,0.487407837222188,1.1533479344948594,-1.697,-3.677,-7.443
1621785985087.568,0.049,0.496,1.176,-1.666047505598704,-3.6533019964740077,-7.42413832372421
1621785985095.497,0.031,0.503,1.206,-1.62643197217325,-3.622971353695145,-7.3999976080430745
1621785985103.427,0.019,0.511,1.227,-1.5868115595368562,-3.5926369752704055,-7.375853919092772
1621785985106.992,0.014953505557779351,0.517294546910121,1.2404883148074022,-1.569,-3.579,-7.365
1621785985111.356,0.01,0.525,1.257,-1.5422593760719594,-3.5890490242786903,-7.37164257537066
1621785985119.287,0.003,0.536,1.288,-1.4936610035446125,-3.607312106948203,-7.3837147825589815
1621785985127.216,0.0,0.546,1.319,-1.4450760948279147,-3.6255701299691276,-7.39578364523383
1621785985132.614,0.001361411286598319,0.5534877620762908,1.3360176410824791,-1.412,-3.638,-7.404
1621785985135.146,0.002,0.557,1.344,-1.398459932339067,-3.638,-7.433056787535141
1621785985143.076,0.005,0.564,1.379,-1.3560537094391765,-3.638,-7.524059922809358
1621785985151.006,0.002,0.56,1.408,-1.3136461809691713,-3.638,-7.615065859817983
1621785985158.233,0.004734335067894202,0.56,1.4244060104073653,-1.275,-3.638,-7.698
1621785985158.935,0.005,0.56,1.426,-1.2739308652095584,-3.635861730419117,-7.714667537245856
1621785985166.866,0.016,0.546,1.454,-1.261854772140195,-3.61170954428039,-7.902930731763114
1621785985174.795,0.033,0.538,1.48,-1.249781653020179,-3.5875633060403582,-8.091147563172594
1621785985182.725,0.059,0.525,1.497,-1.2377066751818209,-3.563413350363642,-8.279393371524435
1621785985183.846,0.06493718631647011,0.5245759152631093,1.4989790621054901,-1.236,-3.56,-8.306
1621785985190.654,0.101,0.522,1.511,-1.262048019825573,-3.5182700090549495,-8.392117943096792
1621785985198.585,0.148,0.517,1.525,-1.2923919172663585,-3.469657846828385,-8.492438583615307
1621785985206.514,0.204,0.522,1.534,-1.3227283419911358,-3.4210576561978745,-8.592734518419674
1621785985209.46,0.2203459146604273,0.522,1.5418014592697493,-1.334,-3.403,-8.63
1621785985214.444,0.248,0.522,1.555,-1.3053991155755906,-3.376344753971809,-8.626108723207564
1621785985222.375,0.293,0.524,1.567,-1.2598884748444157,-3.3339300751951355,-8.61991679929856
1621785985230.304,0.337,0.55,1.585,-1.2143890419053247,-3.291525841775711,-8.613726400259228
1621785985235.077,0.3640884010222619,0.5626412538103889,1.589815715737291,-1.187,-3.266,-8.61
1621785985238.233,0.382,0.571,1.593,-1.1893407765324795,-3.2574992852241538,-8.594353756861848
1621785985246.163,0.428,0.586,1.597,-1.1952225049557792,-3.2361393241079597,-8.555039045821896
1621785985254.092,0.475,0.604,1.604,-1.2011033279963403,-3.2147826509606587,-8.515730386550779
1621785985260.694,0.5141249499769125,0.6389627212559643,1.6098271202093273,-1.206,-3.197,-8.483
1621785985262.023,0.522,0.646,1.611,-1.2166860769868575,-3.2026024092940806,-8.475841365902008
1621785985269.952,0.559,0.681,1.609,-1.2804471870919782,-3.236030564106474,-8.433127612530617
1621785985277.882,0.599,0.712,1.613,-1.3442181135456077,-3.269463865354008,-8.390407283158767
1621785985285.812,0.637,0.752,1.609,-1.4079870767295357,-3.302896137314514,-8.34768826898701
1621785985286.311,0.6387620147162957,0.753006865552169,1.6088741418059789,-1.412,-3.305,-8.345
1621785985293.742,0.665,0.768,1.607,-1.5230998217808571,-3.327626073365292,-8.433183670551907
1621785985301.671,0.693,0.796,1.602,-1.641645963384067,-3.3517686296186873,-8.527277735949756
1621785985309.601,0.717,0.824,1.611,-1.760210355771155,-3.3759149027419064,-8.62138628760948
1621785985311.928,0.7249226932668329,0.8301620947630922,1.6130540315876973,-1.795,-3.383,-8.649
1621785985317.531,0.744,0.845,1.618,-1.979215993211809,-3.3326371829007813,-8.903723937150716
1621785985325.461,0.775,0.85,1.607,-2.239935804780993,-3.261358984112122,-9.264233227024022
1621785985332.913,0.822,0.859,1.588,-2.4849470891730303,-3.1943753401410304,-9.603021612975589
1621785985336.96,0.8392988836532683,0.8553305398311248,1.5743705765156069,-2.618,-3.158,-9.787
1621785985340.633,0.855,0.852,1.562,-2.665811562077015,-3.1376358161523825,-9.791279429938992
1621785985348.343,0.888,0.857,1.545,-2.7661697628342194,-3.0948906565706102,-9.80026210840183
1621785985356.045,0.918,0.862,1.515,-2.8664230927673264,-3.0521901641916944,-9.809235400278558
1621785985361.851,0.9210184991273996,0.8604907504363002,1.4938705061082025,-2.942,-3.02,-9.816
1621785985363.739,0.922,0.86,1.487,-2.8972354493187367,-3.0640793789871625,-9.77572713042451
1621785985371.423,0.92,0.86,1.463,-2.715039733795385,-3.2434863845790347,-9.611812957785304
1621785985379.098,0.911,0.862,1.457,-2.533063991494054,-3.4226767838859575,-9.448096686225094
1621785985386.65,0.8942549675200612,0.8826850401222774,1.4520749904470767,-2.354,-3.599,-9.287
1621785985386.765,0.894,0.883,1.452,-2.3523991779712095,-3.602378479049134,-9.287274559592149
1621785985394.424,0.892,0.906,1.45,-2.2457728750259354,-3.8274095718929386,-9.305562210387993
1621785985402.073,0.883,0.909,1.443,-2.1392893205418275,-4.05213939908905,-9.323825378162885
1621785985409.714,0.869,0.915,1.421,-2.032914526790037,-4.276639690553585,-9.342069892207522
1621785985411.36,0.8685686500319898,0.9141373000639795,1.4149611004478566,-2.01,-4.325,-9.346
1621785985417.346,0.867,0.911,1.393,-1.864608014438285,-4.5012695477127815,-9.252881052725524
1621785985424.971,0.88,0.908,1.36,-1.6794019416320418,-4.7258086828039625,-9.134262447567009
1621785985432.586,0.915,0.916,1.323,-1.4944389992364369,-4.950053052765189,-9.015799559711631
1621785985435.98,0.9413278551710856,0.9240322270013482,1.307381780830712,-1.412,-5.05,-8.963
1621785985440.192,0.974,0.934,1.288,-1.1039745618487444,-5.205042904487505,-8.617887887021167
1621785985447.791,1.052,0.965,1.258,-0.5482361090377093,-5.484770787925835,-7.995237781028871
1621785985455.38,1.126,1.026,1.223,0.006752455737019769,-5.76412121935927,-7.373427850595647
1621785985460.511,1.1544306235506312,1.068645935325947,1.2054000901829427,0.382,-5.953,-6.953
1621785985462.96,1.168,1.089,1.197,0.6139902995064836,-5.941175008491679,-6.877340096705229
1621785985470.531,1.159,1.187,1.194,1.331192091750085,-5.904617854502588,-6.6434362724529965
1621785985478.095,1.096,1.304,1.203,2.047723191272553,-5.86809488701073,-6.4097511838398376
1621785985484.949,1.0152571982549685,1.4101450315075135,1.237474454677654,2.697,-5.835,-6.198
1621785985485.65,1.007,1.421,1.241,2.7173241351649455,-5.842916624887195,-6.253905765567032
1621785985493.195,0.915,1.513,1.312,2.9361041411811892,-5.928135465757546,-6.855705725458739
1621785985500.732,0.827,1.548,1.388,3.154643457334804,-6.013260553494435,-7.456843617767974
1621785985508.262,0.764,1.531,1.433,3.3729845583074303,-6.098308432768476,-8.057436277950467
1621785985509.297,0.7609712318981752,1.520123969088902,1.4332753425547113,3.403,-6.11,-8.14
1621785985515.781,0.742,1.452,1.435,2.5800783149504873,-6.0522698655502785,-8.74803729570888
1621785985523.292,0.749,1.314,1.361,1.6267992412044119,-5.985394815232268,-9.45239257104903
1621785985530.796,0.784,1.164,1.248,0.6744187565413413,-5.918582803316963,-10.156083900249577
1621785985533.557,0.8101577729997393,1.0998950351837373,1.21115806619755,0.324,-5.894,-10.415
1621785985538.29,0.855,0.99,1.148,0.18572986897534072,-5.849737890068593,-10.378376041782419
1621785985545.774,0.937,0.833,1.065,-0.03289769570356299,-5.779752295709624,-10.320467607511945
1621785985553.252,1.009,0.747,1.005,-0.251354089848367,-5.709821495317661,-10.262604511612402
1621785985557.724,1.0305583379646277,0.7218486057079342,0.9882324038052894,-0.382,-5.668,-10.228
1621785985560.72,1.045,0.705,0.977,-0.38809698942394466,-5.596080410468571,-9.926634522759306
1621785985568.179,1.045,0.712,0.962,-0.40327710684553686,-5.417016984556728,-9.176303004492034
1621785985575.629,1.002,0.761,0.953,-0.4184388403857269,-5.238170413409181,-8.426880175219786
1621785985581.801,0.9248808016531637,0.8289975727359202,0.9604631482271132,-0.431,-5.09,-7.806
1621785985583.072,0.909,0.843,0.962,-0.40816178611051734,-5.080091076572312,-7.735312813622808
1621785985590.505,0.796,0.949,0.986,-0.2746025425712744,-5.022143098517003,-7.321929911345894
1621785985597.929,0.658,1.042,1.009,-0.14120122751839748,-4.9642636416379124,-6.9090358178875695
1621785985605.345,0.527,1.121,1.03,-0.007944680244689417,-4.9064469958370225,-6.496589799179619
1621785985605.787,0.5193017431706594,1.125475730714733,1.031551586647774,0.0,-4.903,-6.472
1621785985612.754,0.398,1.196,1.056,0.20582350176743425,-5.086083794773298,-6.532056149240923
1621785985620.152,0.291,1.253,1.072,0.42439196174986205,-5.2805044645593675,-6.595831082323614
1621785985627.542,0.211,1.292,1.079,0.6427151876749555,-5.474706994135796,-6.659534459859831
1621785985629.684,0.19678145980090617,1.2995445315342131,1.081031220028442,0.706,-5.531,-6.678
1621785985634.924,0.162,1.318,1.086,0.8572176414484817,-5.662627583094894,-6.911099683106174
1621785985642.297,0.136,1.351,1.087,1.0699918469064393,-5.847837153493523,-7.23908786881211
1621785985649.66,0.148,1.363,1.075,1.2824701412177337,-6.03278914766842,-7.566619912008123
1621785985653.49,0.16101649464007167,1.3728925359264543,1.0723967010719857,1.393,-6.129,-7.737
1621785985657.016,0.173,1.382,1.07,1.487378697535506,-6.133588915601401,-7.806139661727793
1621785985664.128,0.211,1.417,1.07,1.6777305260482307,-6.142844271931032,-7.9455870304275535
1621785985671.224,0.257,1.436,1.079,1.8676641425106701,-6.152079293801167,-8.084728026604251
1621785985676.542,0.2825348757025135,1.4615348757025135,1.0850082060476502,2.01,-6.159,-8.189
1621785985678.305,0.291,1.47,1.087,1.9994022689291682,-6.133936752795989,-8.155582337061318
1621785985685.372,0.318,1.503,1.103,1.9569188841753438,-6.033465098341689,-8.021620131122251
1621785985692.425,0.333,1.518,1.124,1.9145206217594377,-5.933194755109911,-7.8879263401465485
1621785985699.332,0.3506677653263019,1.5376308503625578,1.1465754779169413,1.873,-5.835,-7.757
1621785985699.462,0.351,1.538,1.147,1.8668667241844163,-5.832469808573739,-7.752444507953626
1621785985706.484,0.356,1.538,1.161,1.5352778538689673,-5.695677767592343,-7.506156796980318
1621785985713.493,0.372,1.522,1.159,1.2043000053922892,-5.559137794553788,-7.260322922620652
1621785985720.485,0.368,1.494,1.159,0.8741176381774064,-5.42292598544082,-7.01507989215422
1621785985721.97,0.3639568244638046,1.4891056296140792,1.1581488051502746,0.804,-5.394,-6.963
1621785985727.463,0.349,1.471,1.155,0.643477846795387,-5.348311046195947,-6.716230784266881
1621785985734.428,0.311,1.464,1.162,0.43993384444975353,-5.290376908542015,-6.403324479291098
1621785985741.376,0.262,1.463,1.176,0.23688926655517673,-5.2325849206176835,-6.091185934886954
1621785985744.452,0.23227910006337582,1.45678966269981,1.18221033730019,0.147,-5.207,-5.953
1621785985748.31,0.195,1.449,1.19,0.030023933960201157,-5.203717067570523,-5.913950382680953
1621785985755.229,0.126,1.442,1.203,-0.17975279903783078,-5.1978296851082435,-5.843921517603325
1621785985762.134,0.047,1.426,1.213,-0.3891076098841024,-5.191954143888038,-5.774033500984037
1621785985766.781,0.0011300634369351761,1.4165561895311336,1.223792926250133,-0.53,-5.188,-5.727
1621785985769.023,-0.021,1.412,1.229,-0.5725700647463002,-5.220660643498943,-5.808297700845666
1621785985775.898,-0.075,1.393,1.229,-0.7031127004052149,-5.320815682258632,-6.057600026427061
1621785985782.758,-0.119,1.356,1.227,-0.8333725554968288,-5.420753765856237,-6.3063623150105705
1621785985788.953,-0.13438311757783247,1.3161848721514926,1.2288097785385685,-0.951,-5.511,-6.531
1621785985789.604,-0.136,1.312,1.229,-0.9469480670703306,-5.525788076385655,-6.555666511411271
1621785985796.434,-0.122,1.274,1.215,-0.9044445516445981,-5.680910395457671,-6.8144105396233945
1621785985803.25,-0.089,1.244,1.194,-0.8620291547452702,-5.835711114068356,-7.072618138266019
1621785985810.05,-0.026,1.199,1.178,-0.8197125113669128,-5.9901514183689315,-7.330224565839377
1621785985810.968,-0.018291479336762218,1.1916971909506169,1.1766476279538178,-0.814,-6.011,-7.365
1621785985816.838,0.031,1.145,1.168,-0.6875610352489309,-6.087507653830265,-7.385938936837757
1621785985823.609,0.087,1.087,1.154,-0.541711588490783,-6.175760503779463,-7.4100923484028005
1621785985830.365,0.133,1.028,1.141,-0.39618293268425575,-6.263819244554113,-7.434192635351652
1621785985832.834,0.14691411709330535,1.0126212390021363,1.1373383902386038,-0.343,-6.296,-7.443
1621785985837.108,0.171,0.986,1.131,-0.26189902397337295,-6.288322965861557,-7.346544955696487
1621785985843.835,0.195,0.942,1.122,-0.13424814464984483,-6.276239508838214,-7.194727162326272
1621785985850.547,0.215,0.918,1.117,-0.006879863266315789,-6.264182802590743,-7.043245468447803
1621785985854.546,0.22216308903385693,0.9024799737599767,1.117,0.069,-6.257,-6.953
1621785985857.246,0.227,0.892,1.117,0.08615952073565718,-6.2544949604765465,-6.865824624583815
1621785985863.928,0.227,0.869,1.114,0.1286223528345904,-6.248296006885461,-6.650101039614052
1621785985870.596,0.216,0.852,1.105,0.17099674979049173,-6.242109963534235,-6.43482673099137
1621785985876.104,0.19861417929617262,0.8313025944002055,1.093409452864115,0.206,-6.237,-6.257
1621785985877.249,0.195,0.827,1.091,0.21141640642492662,-6.224509103550679,-6.24124820580506
1621785985883.669,0.182,0.799,1.072,0.24178523869568802,-6.154474857701781,-6.152930683384989
1621785985890.069,0.162,0.775,1.061,0.27206052535441977,-6.084656339488787,-6.064885206877453
1621785985896.449,0.14,0.756,1.059,0.30223995663292363,-6.015058875519992,-5.977118493465477
1621785985896.821,0.13853793315169424,0.754479450477762,1.059,0.304,-6.011,-5.972
1621785985902.811,0.115,0.73,1.059,0.2753369334573111,-5.899272536537682,-5.943336933457311
1621785985909.153,0.084,0.712,1.054,0.24498924731182795,-5.780978494623656,-5.9129892473118275
1621785985915.475,0.044,0.7,1.049,0.21473735784278664,-5.663057864244331,-5.882737357842786
1621785985917.301,0.03386075066816439,0.6959443002672657,1.046392764457528,0.206,-5.629,-5.874
1621785985921.778,0.009,0.686,1.04,0.19738812224550248,-5.602943549358186,-5.8609717746790935
1621785985928.062,-0.033,0.674,1.035,0.18530059244274258,-5.566371023288298,-5.842685511644149
1621785985934.326,-0.08,0.677,1.033,0.17325157141825015,-5.529915010957782,-5.824457505478891
1621785985937.576,-0.10549992181391712,0.678040813135262,1.0356020328381548,0.167,-5.511,-5.815
1621785985940.571,-0.129,0.679,1.038,0.196245405563191,-5.547705968206862,-5.869163684793053
1621785985946.796,-0.176,0.682,1.044,0.25702712268453765,-5.623993225410185,-5.9817339057882
1621785985953.003,-0.216,0.693,1.045,0.3176348167698464,-5.700062065945827,-6.093981829017624
1621785985957.649,-0.24754392611887283,0.6997594127397584,1.0517594127397585,0.363,-5.757,-6.178
1621785985959.189,-0.258,0.702,1.054,0.3895856187948491,-5.79420436449425,-6.252486238081195
1621785985965.357,-0.278,0.712,1.066,0.4960629607785314,-5.943210557357712,-6.550809053376585
1621785985971.504,-0.279,0.719,1.082,0.6021778482256954,-6.091709525213801,-6.848116361938465
1621785985977.518,-0.2642837627942172,0.720962164960771,1.0957351547253973,0.706,-6.237,-7.139
1621785985977.634,-0.264,0.721,1.096,0.7063478773584905,-6.238621462264151,-7.143858490566038
1621785985983.743,-0.237,0.716,1.108,0.7246733242303872,-6.324036680734856,-7.399793545183714
1621785985989.833,-0.201,0.702,1.114,0.7429423783515392,-6.40918905163853,-7.6549410129096325
1621785985995.904,-0.152,0.693,1.114,0.76115430734856,-6.494075161370406,-7.909290665342602
1621785985997.186,-0.14013572725438772,0.6936355860399435,1.113152551946742,0.765,-6.512,-7.963
1621785986001.955,-0.096,0.696,1.11,0.7359685252591408,-6.524055442900865,-8.042713540813885
1621785986007.955,-0.038,0.688,1.105,0.699443618776528,-6.539222565084323,-8.143002267088178
1621785986013.935,0.023,0.684,1.101,0.6630405808783707,-6.554339080821693,-8.242956371147525
1621785986016.57,0.048204891838741395,0.6795780891510981,1.0956937069813175,0.647,-6.561,-8.287
1621785986019.894,0.08,0.674,1.089,0.6334624072610459,-6.5354868444535095,-8.25124687045866
1621785986025.833,0.131,0.675,1.087,0.6092747112663488,-6.4899023404635034,-8.187366545139332
1621785986031.752,0.175,0.681,1.077,0.5851685490655992,-6.444471496315937,-8.123701552660428
1621785986035.722,0.20527868581123018,0.681672859684694,1.08036429842347,0.569,-6.414,-8.081
1621785986037.652,0.22,0.682,1.082,0.5609486683682676,-6.378941036945368,-8.04797934875087
1621785986043.53,0.271,0.67,1.075,0.5364300925567844,-6.27217660556372,-7.9474221517518755
1621785986049.388,0.309,0.675,1.077,0.5119950241060149,-6.165775801170495,-7.847207440637327
1621785986054.661,0.3360911903666848,0.678612158715558,1.0724848016055526,0.49,-6.07,-7.757
1621785986055.227,0.339,0.679,1.072,0.48942558600370245,-6.059932638906996,-7.746327992595103
1621785986061.045,0.365,0.689,1.072,0.4835229186765051,-5.956480627330326,-7.636662646989805
1621785986066.843,0.386,0.693,1.073,0.4776403149688421,-5.853380257085496,-7.527370062315855
1621785986072.62,0.391,0.707,1.077,0.47177901337574635,-5.7506532344275545,-7.418473248507287
1621785986073.388,0.39193347184531885,0.7082001780868385,1.0772667062415195,0.471,-5.737,-7.404
1621785986078.378,0.398,0.716,1.079,0.4761201249901115,-5.697386401392295,-7.3697760066450435
1621785986084.115,0.398,0.719,1.075,0.4820068032592358,-5.6518421010995965,-7.330428209793529
1621785986089.832,0.398,0.724,1.08,0.4878729399045434,-5.606456728106953,-7.291217717480158
1621785986091.905,0.3947256951883114,0.7247276232914863,1.0789085650627706,0.49,-5.59,-7.277
1621785986095.53,0.389,0.726,1.077,0.4822784222737819,-5.578318638824439,-7.277
1621785986101.206,0.377,0.737,1.087,0.470187975038003,-5.560027962236979,-7.277
1621785986106.862,0.358,0.749,1.091,0.4581401712136971,-5.541801797477131,-7.277
1621785986110.214,0.35086289798570497,0.7382943469785574,1.0898104829976174,0.451,-5.531,-7.277
1621785986112.498,0.346,0.731,1.089,0.4276200419219607,-5.5284860260131135,-7.277
1621785986118.115,0.326,0.731,1.086,0.37012108997097715,-5.522303343007632,-7.277
1621785986123.711,0.314,0.733,1.084,0.31283706868752015,-5.5161437708266154,-7.277
1621785986128.384,0.30574245038826575,0.7313484900776531,1.0864772648835204,0.265,-5.511,-7.277
1621785986129.37,0.304,0.731,1.087,0.253274501370894,-5.505680097844202,-7.281234207838288
1621785986135.012,0.3,0.724,1.089,0.18618746303962153,-5.475242460082791,-7.305460082791248
1621785986140.633,0.291,0.71,1.086,0.1193471856351809,-5.444916778667814,-7.3295968496317405
1621785986146.235,0.29,0.698,1.086,0.052733347669480124,-5.414693833664857,-7.353651846674911
1621785986146.549,0.28977500765428854,0.6974375191357214,1.085268774876438,0.049,-5.413,-7.355
1621785986151.817,0.286,0.688,1.073,0.002952955089169207,-5.358447449978252,-7.349134134406264
1621785986157.382,0.274,0.674,1.068,-0.04569339930404523,-5.30081546324489,-7.342937146585472
1621785986162.926,0.258,0.668,1.059,-0.09415408873423227,-5.243403436276642,-7.336763810352327
1621785986164.51,0.25599275170158226,0.6659927517015823,1.0567060019446655,-0.108,-5.227,-7.335
1621785986168.45,0.251,0.661,1.051,-0.09491483542912114,-5.2442990311276025,-7.317700968872398
1621785986173.956,0.236,0.66,1.04,-0.07662820037105753,-5.268474582560297,-7.293525417439703
1621785986179.443,0.232,0.653,1.042,-0.05840481000481001,-5.292566522366522,-7.269433477633477
1621785986182.275,0.22578403001071812,0.6519640050017864,1.0409640050017863,-0.049,-5.305,-7.257
1621785986184.91,0.22,0.651,1.04,-0.052000973168358125,-5.312352384262478,-7.265852870846656
1621785986190.358,0.202,0.649,1.04,-0.0582056165716669,-5.327553760600583,-7.284156568886417
1621785986195.788,0.194,0.634,1.037,-0.06438996246350619,-5.34270540803559,-7.302400389267343
1621785986199.836,0.1857679981945385,0.6220261791920559,1.034006544798014,-0.069,-5.354,-7.316
1621785986201.197,0.183,0.618,1.033,-0.09353874927929576,-5.352510427360043,-7.314432028800045
1621785986206.587,0.171,0.604,1.028,-0.19071219642530693,-5.3466117197058125,-7.308222862848223
1621785986211.959,0.154,0.586,1.012,-0.2875643290067641,-5.340732516769558,-7.302034228178481
1621785986217.197,0.14714911960587537,0.57131954201259,1.0022130280083934,-0.382,-5.335,-7.296
1621785986217.311,0.147,0.571,1.002,-0.38213268930245775,-5.335776232419378,-7.295349822417958
1621785986222.643,0.138,0.565,0.986,-0.3883381162096889,-5.37207797982668,-7.264943230572525
1621785986227.957,0.126,0.557,0.974,-0.39452251740304023,-5.408256726807785,-7.234639664725103
1621785986233.251,0.122,0.543,0.972,-0.40068361983236256,-5.444299176019321,-7.204450262821424
1621785986234.382,0.11948366072236806,0.5434193898796054,0.9705321354213814,-0.402,-5.452,-7.198
1621785986238.645,0.11,0.545,0.965,-0.36833277975595685,-5.485912966377211,-7.258207802626209
1621785986244.021,0.11,0.538,0.958,-0.3258751776842639,-5.528680477953078,-7.3341356311485795
1621785986249.378,0.106,0.538,0.958,-0.2835679703883017,-5.571296496981127,-7.409794505509971
1621785986251.729,0.1055598116743612,0.5322775517666957,0.958,-0.265,-5.59,-7.443
1621785986254.719,0.105,0.525,0.958,-0.28887261499935973,-5.59,-7.5165346243045965
1621785986260.041,0.112,0.513,0.949,-0.331364583185123,-5.59,-7.647422292730817
1621785986265.344,0.117,0.494,0.934,-0.3737045089139621,-5.59,-7.777841625997752
1621785986268.888,0.12169209456963428,0.48193461396379755,0.9313188031030661,-0.402,-5.59,-7.865
1621785986270.631,0.124,0.476,0.93,-0.41709709156813674,-5.609102442392336,-7.887183481487875
1621785986275.899,0.129,0.466,0.922,-0.46272033313195826,-5.666829809269008,-7.954221713989816
1621785986281.149,0.143,0.447,0.913,-0.5081892206783465,-5.724361871062397,-8.02103314058859
1621785986285.861,0.15921100275302133,0.42988838598292195,0.9021926648313191,-0.549,-5.776,-8.081
1621785986286.381,0.161,0.428,0.901,-0.5687638127372417,-5.780863508777033,-8.081588577495308
1621785986291.596,0.168,0.408,0.873,-0.7669586672290174,-5.829635596794601,-8.087490932096161
1621785986296.793,0.188,0.384,0.846,-0.9644761703922397,-5.8782410011780275,-8.093373114792245
1621785986301.971,0.208,0.365,0.817,-1.1612699283002952,-5.9266683052400415,-8.099233743946247
1621785986302.648,0.20891821192052978,0.36080245979186376,0.8126712866603595,-1.187,-5.933,-8.1
1621785986307.132,0.215,0.333,0.784,-1.382841912521693,-5.954069888519575,-8.04705515192517
1621785986312.275,0.227,0.302,0.75,-1.6074518045709916,-5.978234814836603,-7.986333029384945
1621785986317.399,0.239,0.276,0.707,-1.8312406682942612,-6.00231140983028,-7.9258328676059655
1621785986319.248,0.24081074878072103,0.2644112078033853,0.6928761595103758,-1.912,-6.011,-7.904
1621785986322.505,0.244,0.244,0.668,-2.003477233849495,-6.030644785577223,-7.8962611450756395
1621785986327.595,0.244,0.211,0.625,-2.146446412899579,-6.061347494310322,-7.884166138605025
1621785986332.666,0.246,0.183,0.586,-2.2888807175688344,-6.091935338480075,-7.87211638181088
1621785986335.661,0.25014966413763107,0.16995819842458804,0.5622876334992509,-2.373,-6.11,-7.865
1621785986337.718,0.253,0.161,0.546,-2.3803009164072138,-6.105050226164601,-7.865
1621785986342.893,0.262,0.143,0.503,-2.398667582094813,-6.092598249427246,-7.865
1621785986348.052,0.265,0.12,0.459,-2.4169770604476297,-6.0801850437643195,-7.865
1621785986352.285,0.26829275472414776,0.10600579242237204,0.42442607539644855,-2.432,-6.07,-7.865
1621785986353.194,0.269,0.103,0.417,-2.403362742343355,-6.066750772688958,-7.852553807249228
1621785986358.319,0.264,0.089,0.375,-2.241935966637583,-6.048435042368495,-7.782395247038642
1621785986363.428,0.265,0.065,0.339,-2.0810167255734164,-6.030176897709292,-7.712457269191524
1621785986368.521,0.265,0.058,0.305,-1.9205973292320433,-6.011975466201328,-7.64273653155085
1621785986368.794,0.26521509306911645,0.056548121783464,0.30333302871434753,-1.912,-6.011,-7.639
1621785986373.597,0.269,0.031,0.274,-1.730289083517666,-5.982185000298918,-7.549614694804807
1621785986378.657,0.269,0.016,0.25,-1.5388520655228075,-5.951827673820769,-7.4554450289950385
1621785986383.7,0.269,0.002,0.223,-1.3480616069827227,-5.921572876188199,-7.361593411849106
1621785986385.129,0.2698529168892991,-0.003117501335794434,0.21617666488560744,-1.294,-5.913,-7.335
1621785986388.726,0.272,-0.016,0.199,-1.2045384847752538,-5.886962693330111,-7.223729458675689
1621785986393.736,0.265,-0.03,0.18,-1.0799396145480908,-5.850698843040116,-7.068755739487675
1621785986398.729,0.25,-0.047,0.166,-0.9557657684871919,-5.814558693813437,-6.914310657322378
1621785986401.293,0.24278779554596291,-0.05318188953203178,0.15878779554596292,-0.892,-5.796,-6.835
1621785986403.706,0.236,-0.059,0.152,-0.8639251714185361,-5.776679687857918,-6.802396973260236
1621785986408.666,0.213,-0.073,0.138,-0.8062189575920468,-5.736967884794527,-6.735383305590764
1621785986413.61,0.195,-0.089,0.14,-0.7486973718369653,-5.6973831376082344,-6.668584044713895
1621785986417.28,0.18084767850948913,-0.10613175759377633,0.13478598681928547,-0.706,-5.668,-6.619
1621785986418.537,0.176,-0.112,0.133,-0.7239607038123167,-5.658701759530792,-6.617490029325513
1621785986423.448,0.15,-0.136,0.134,-0.7941256984102485,-5.622377403920359,-6.611591202346041
1621785986428.342,0.119,-0.14,0.134,-0.8640500077172404,-5.586177650872048,-6.605712609970674
1621785986433.098,0.09462562562562563,-0.1633993993993994,0.134,-0.932,-5.551,-6.6
1621785986433.22,0.094,-0.164,0.134,-0.9328936891794865,-5.551,-6.601199223941704
1621785986438.081,0.059,-0.176,0.126,-0.9684821796849936,-5.551,-6.648954719748239
1621785986443.077,0.026,-0.18,0.119,-1.005057303044654,-5.551,-6.698034158786416
1621785986448.058,0.012,-0.192,0.113,-1.0415251837027757,-5.551,-6.7469696909515875
1621785986449.079,0.009532743362831858,-0.19405604719764014,0.11279439528023599,-1.049,-5.551,-6.757
1621785986453.024,0.0,-0.202,0.112,-1.044309007563603,-5.5460621132248455,-6.800453403621361
1621785986457.975,-0.007,-0.202,0.101,-1.0384213156085262,-5.539864542745817,-6.854992023836809
1621785986462.91,-0.019,-0.211,0.094,-1.03255307510123,-5.533687447474978,-6.909350462220185
1621785986465.057,-0.025106641535638113,-0.21012762263776597,0.08789335846436189,-1.03,-5.531,-6.933
1621785986467.832,-0.033,-0.209,0.08,-1.022983658163974,-5.520650895791861,-6.912477200129623
1621785986472.737,-0.047,-0.204,0.073,-1.0105823804453498,-5.502359011156891,-6.876203462802648
1621785986477.627,-0.051,-0.199,0.068,-0.9982193725599123,-5.484123574525871,-6.840041664737743
1621785986480.878,-0.06233673878205129,-0.19633253205128207,0.061998197115384616,-0.99,-5.472,-6.816
1621785986482.502,-0.068,-0.195,0.059,-1.0022348026684955,-5.474073695367542,-6.7997214913647985
1621785986487.363,-0.082,-0.188,0.054,-1.038856443668558,-5.480280753164163,-6.750996087661325
1621785986492.207,-0.098,-0.182,0.049,-1.0753493359935158,-5.486465989151443,-6.70244198516117
1621785986496.541,-0.11504852405984635,-0.17033522038010515,0.04271896482005661,-1.108,-5.492,-6.659
1621785986497.037,-0.117,-0.169,0.042,-1.1127034074447315,-5.5042224601625,-6.653656673175033
1621785986501.852,-0.129,-0.162,0.04,-1.1583533098192353,-5.622850097625496,-6.601795899729168
1621785986506.652,-0.141,-0.161,0.038,-1.2038620173836367,-5.741110820684008,-6.5500955312716505
1621785986511.436,-0.152,-0.15,0.044,-1.249217956792845,-5.858974554386848,-6.498568715752346
1621785986512.046,-0.15327879594553087,-0.14961636121634073,0.04348848162178765,-1.255,-5.874,-6.492
1621785986516.205,-0.162,-0.147,0.04,-1.2417215346928387,-6.041471256322972,-6.43346635701333
1621785986520.96,-0.175,-0.127,0.056,-1.226541246460726,-6.232928769127986,-6.366549168071772
1621785986525.699,-0.188,-0.112,0.058,-1.211411621544237,-6.423747303789011,-6.299855311297044
1621785986527.394,-0.19194692506459948,-0.10374733850129199,0.06409979328165374,-1.206,-6.492,-6.276
1621785986530.423,-0.199,-0.089,0.075,-1.1714761739130435,-6.622837454545454,-6.303069818181818
1621785986535.133,-0.206,-0.072,0.091,-1.1177940869565217,-6.826280363636363,-6.345161454545455
1621785986539.984,-0.209,-0.045,0.106,-1.0625064347826088,-7.035807999999999,-6.3885119999999995
1621785986542.836,-0.20428309695654367,-0.02967006510876697,0.11779225760864079,-1.03,-7.159,-6.414
1621785986544.821,-0.201,-0.019,0.126,-1.0049850727526723,-7.254082248975812,-6.4627535826963225
1621785986549.645,-0.197,0.002,0.154,-0.9441967382944325,-7.485139948829835,-6.581228805977178
1621785986554.455,-0.187,0.03,0.182,-0.8835837636754619,-7.7155311023560245,-6.699362256510069
1621785986558.39,-0.17387273467725514,0.0423068112400733,0.21153634697617593,-0.834,-7.904,-6.796
1621785986559.251,-0.171,0.045,0.218,-0.8575245088719898,-7.920986818757921,-6.82779440747782
1621785986564.033,-0.141,0.054,0.243,-0.9881665716096324,-8.015322179974651,-7.004362896070976
1621785986568.802,-0.101,0.061,0.26,-1.1184551330798478,-8.109402281368821,-7.180453612167301
1621785986573.557,-0.059,0.058,0.274,-1.2483568441064636,-8.203203041825095,-7.356021482889734
1621785986573.8,-0.05669207003089598,0.057076828012358395,0.2747180226570546,-1.255,-8.208,-7.365
1621785986578.298,-0.014,0.04,0.288,-1.4256007772393609,-8.118427225767244,-7.43424211166019
1621785986583.025,0.031,0.021,0.302,-1.6048778966559516,-8.02429899726527,-7.507005709350861
1621785986587.74,0.084,0.009,0.314,-1.7837105503046586,-7.930404132482528,-7.5795889107454135
1621785986589.066,0.09669782303735648,-2.9563048786825086e-05,0.31512869538109833,-1.834,-7.904,-7.6
1621785986592.439,0.129,-0.023,0.318,-1.9455200826553016,-7.742072839984502,-7.479781350897585
1621785986597.125,0.166,-0.042,0.319,-2.100450342244608,-7.517114103060829,-7.312766531060312
1621785986601.799,0.187,-0.056,0.321,-2.254985083301046,-7.292729659046881,-7.146178080201472
1621785986604.189,0.19418308087425967,-0.06780077572199801,0.32202615441060856,-2.334,-7.178,-7.061
1621785986606.457,0.201,-0.079,0.323,-2.388960559340265,-7.06520215782783,-6.956983734802308
1621785986611.102,0.201,-0.089,0.321,-2.5015202581570457,-6.834191205710747,-6.743957527950715
1621785986615.733,0.187,-0.099,0.318,-2.613736823234134,-6.60388448124124,-6.5315807229701095
1621785986619.169,0.17881571156692747,-0.10048805244237682,0.31502389511524637,-2.697,-6.433,-6.374
1621785986620.351,0.176,-0.101,0.314,-2.7093795984171187,-6.387424153598124,-6.336151546240656
1621785986624.954,0.152,-0.101,0.314,-2.7575838422329704,-6.209958848339766,-6.1887755141921925
1621785986629.543,0.115,-0.106,0.307,-2.805639796765841,-6.0330394743270315,-6.041852850652206
1621785986634.161,0.07112273828547863,-0.106,0.3001746481777411,-2.854,-5.855,-5.894
1621785986634.279,0.07,-0.106,0.3,-2.852625286839867,-5.853400051350354,-5.894
1621785986639.001,0.037,-0.106,0.291,-2.797690726447037,-5.789464913266043,-5.894
1621785986643.711,0.003,-0.103,0.286,-2.742895341560088,-5.725691753454114,-5.894
1621785986648.409,-0.021,-0.098,0.283,-2.68823913217902,-5.662080571914566,-5.894
1621785986649.375,-0.023886816050026058,-0.09263877019280875,0.283,-2.677,-5.649,-5.894
1621785986653.094,-0.035,-0.072,0.283,-2.5537077829577832,-5.728646772209272,-5.814106643356643
1621785986657.767,-0.045,-0.037,0.288,-2.3987851592851595,-5.828726787101787,-5.713716783216784
1621785986662.427,-0.066,-0.005,0.291,-2.2442995985495986,-5.92852445933696,-5.61361013986014
1621785986664.457,-0.07997919512451403,0.004610696648103394,0.2971158978669749,-2.177,-5.972,-5.57
1621785986667.074,-0.098,0.017,0.305,-2.089476524863232,-6.032041103943824,-5.5391917367518575
1621785986671.71,-0.138,0.051,0.319,-1.9344263084837103,-6.138405552380175,-5.484614060586266
1621785986676.333,-0.164,0.086,0.328,-1.7798088511472199,-6.2444731281130075,-5.430188715603822
1621785986679.407,-0.17333753575590635,0.11267867358830384,0.32599909948087724,-1.677,-6.315,-5.394
1621785986680.942,-0.178,0.126,0.325,-1.5825380813522463,-6.32525408985321,-5.4356378194039445
1621785986685.541,-0.164,0.171,0.314,-1.299497899471161,-6.355978846438986,-5.560398952206791
1621785986690.126,-0.138,0.237,0.304,-1.0173291652251273,-6.386609005090693,-5.68477596006524
1621785986694.226,-0.10212879799220378,0.3060520638650077,0.29772253964863565,-0.765,-6.414,-5.796
1621785986694.698,-0.098,0.314,0.297,-0.7533391664173896,-6.414610346661348,-5.799758450493569
1621785986699.258,-0.061,0.389,0.295,-0.6406640243294446,-6.420507943630139,-5.8360752318277
1621785986703.807,-0.026,0.459,0.304,-0.5282663775052349,-6.4263910160534445,-5.872302572539636
1621785986708.342,-0.014,0.532,0.295,-0.4162065510020939,-6.432256406421378,-5.908421029015854
1621785986708.917,-0.013109977324263038,0.5402644962747004,0.2938556851311953,-0.402,-6.433,-5.913
1621785986712.864,-0.007,0.597,0.286,-0.6148164302243686,-6.265457893148204,-5.950412315122246
1621785986717.375,-0.012,0.644,0.269,-0.858040849179998,-6.073976758225173,-5.9931702384545735
1621785986721.873,-0.021,0.689,0.248,-1.1005675956669014,-5.883044873729752,-6.0358055136331625
1621785986723.476,-0.024144636015325672,0.6984339080459769,0.2406625159642401,-1.187,-5.815,-6.051
1621785986726.461,-0.03,0.716,0.227,-1.3396877805893397,-5.785659995102441,-6.054792245530977
1621785986731.096,-0.035,0.731,0.211,-1.5767872010448127,-5.740099714309037,-6.060680989306996
1621785986735.72,-0.049,0.747,0.183,-1.813324626561097,-5.694647424700024,-6.066555775038773
1621785986738.431,-0.06251924196707427,0.7452366206129903,0.1747708961939548,-1.952,-5.668,-6.07
1621785986740.332,-0.072,0.744,0.169,-2.013503628255969,-5.676841146561796,-6.135347605021967
1621785986744.933,-0.117,0.735,0.162,-2.1623539400720713,-5.69823837888536,-6.293501061326576
1621785986749.522,-0.178,0.717,0.164,-2.3108093396738685,-5.719578842578119,-6.451234923403486
1621785986753.268,-0.22953934740882917,0.7047287268074216,0.1738170185540627,-2.432,-5.737,-6.58
1621785986754.101,-0.241,0.702,0.176,-2.409818067233859,-5.75974779839793,-6.684345622501949
1621785986758.668,-0.312,0.668,0.197,-2.2882075061777534,-5.884460669685059,-7.256411629102609
1621785986763.224,-0.37,0.628,0.23,-2.1668829958372724,-6.00888019304443,-7.8271320297858935
1621785986767.769,-0.428,0.576,0.262,-2.0458575385176707,-6.132993034479328,-8.396445660646467
1621785986767.989,-0.4295043356492702,0.5715840469650455,0.26326170086712986,-2.04,-6.139,-8.424
1621785986772.302,-0.459,0.485,0.288,-2.063040296960171,-6.367926027488881,-8.881556666555195
1621785986776.823,-0.469,0.375,0.297,-2.0871917867772463,-6.607892753235461,-9.361180483563523
1621785986781.334,-0.435,0.25,0.283,-2.1112898036986256,-6.847328177774805,-9.839742383707321
1621785986782.59,-0.408203125,0.21566650390625,0.27183463541666664,-2.118,-6.914,-9.973
1621785986785.834,-0.339,0.127,0.243,-2.1444279742440076,-6.892051343424468,-10.085206907595321
1621785986790.322,-0.192,0.028,0.188,-2.1809919428243942,-6.861684657654316,-10.240448841991707
1621785986794.798,-0.021,-0.051,0.14,-2.217458449920777,-6.831398914472575,-10.395276978053468
1621785986797.074,0.06257795757708286,-0.0810676798600481,0.1140092936802974,-2.236,-6.816,-10.474
1621785986799.264,0.143,-0.11,0.089,-2.12532136848009,-6.678337735175648,-10.20477346657829
1621785986803.718,0.288,-0.145,0.044,-1.9002131239484017,-6.398347728547392,-9.657196111422696
1621785986808.161,0.393,-0.171,0.012,-1.6756724621424566,-6.119063682251568,-9.110999405156445
1621785986811.439,0.42776198083067096,-0.16212460063897763,-0.0057507987220447275,-1.51,-5.913,-8.708
1621785986812.593,0.44,-0.159,-0.012,-1.4299505246380662,-5.854532491034666,-8.537934104794793
1621785986817.165,0.463,-0.134,-0.033,-1.1128177712843672,-5.622901215300837,-7.86418246115022
1621785986821.728,0.445,-0.106,-0.045,-0.7963115951653607,-5.391727586664896,-7.191761986983663
1621785986826.144,0.4091053365513542,-0.0662248323947439,-0.04014936980423706,-0.49,-5.168,-6.541
1621785986826.28,0.408,-0.065,-0.04,-0.48280954684190336,-5.168362309655253,-6.531068999449606
1621785986830.822,0.356,-0.023,-0.033,-0.24264582951114966,-5.180463582233934,-6.199370015177545
1621785986835.353,0.29,0.031,-0.021,-0.003063028503761056,-5.192535583835082,-5.868473355905065
1621785986839.875,0.225,0.098,0.003,0.23604213019330522,-5.204583518188034,-5.538236386076688
1621785986840.782,0.20991717641963947,0.10885963297785958,0.008027607860120176,0.284,-5.207,-5.472
1621785986844.385,0.15,0.152,0.028,0.32541395708356435,-5.282388281158105,-5.467040244660652
1621785986848.887,0.084,0.218,0.058,0.3771603569088068,-5.376585320360942,-5.4608430710288856
1621785986853.378,0.023,0.281,0.082,0.4287804775587707,-5.470552486095007,-5.454661020651645
1621785986855.311,-0.00030092643051771173,0.30343792915531337,0.0949449591280654,0.451,-5.511,-5.452
1621785986857.858,-0.031,0.333,0.112,0.42857546419322623,-5.5717404749411825,-5.583722076471285
1621785986862.329,-0.08,0.38,0.143,0.3892078502395017,-5.678374011949696,-5.814968060797888
1621785986866.789,-0.115,0.408,0.166,0.3499391174827779,-5.784739713274996,-6.045633215416124
1621785986869.735,-0.13155462876584537,0.4212437030126763,0.18056807331394392,0.324,-5.855,-6.198
1621785986871.238,-0.14,0.428,0.188,0.26017026501586005,-5.891009209045329,-6.298888775196971
1621785986875.677,-0.162,0.438,0.208,0.07164650908966885,-5.997363893720796,-6.596867935468468
1621785986880.107,-0.169,0.436,0.227,-0.11649360482963261,-6.103502148777244,-6.894240714212627
1621785986884.051,-0.16632237569060773,0.4351074585635359,0.23324779005524862,-0.284,-6.198,-7.159
1621785986884.526,-0.166,0.435,0.234,-0.3023767951625094,-6.207823232323233,-7.185863533292104
1621785986888.935,-0.15,0.421,0.239,-0.47301171579743007,-6.299035353535354,-7.435300762729334
1621785986893.334,-0.119,0.396,0.239,-0.6432498110355254,-6.390035353535354,-7.684157905586477
1621785986897.722,-0.082,0.379,0.229,-0.8130627362055933,-6.480808080808081,-7.932393527107813
1621785986898.263,-0.07532716221491106,0.3749221546868901,0.22875285785981153,-0.834,-6.492,-7.963
1621785986902.1,-0.028,0.346,0.227,-0.8600035115560583,-6.54135360356558,-7.989003511556058
1621785986906.62,0.023,0.328,0.223,-0.8906346124626475,-6.59949018283727,-8.019634612462648
1621785986911.13,0.073,0.314,0.225,-0.9211962250772374,-6.657494876167002,-8.050196225077237
1621785986912.724,0.09035477572273146,0.31152074632532406,0.22145820903617724,-0.932,-6.678,-8.061
1621785986915.631,0.122,0.307,0.215,-0.9083395921391645,-6.628874576899112,-8.002049492278935
1621785986920.123,0.162,0.295,0.208,-0.8717789266288332,-6.552964720542916,-7.9109576646515
1621785986924.606,0.199,0.293,0.201,-0.8352917838438609,-6.477207517302932,-7.820049020763518
1621785986927.222,0.21946856238401924,0.2842277589782775,0.1957366553869665,-0.814,-6.433,-7.767
1621785986929.079,0.234,0.278,0.192,-0.7874323110048658,-6.388763508129461,-7.715154315650272
1621785986933.543,0.257,0.278,0.192,-0.7235748605530407,-6.282437753250937,-7.590539290982147
1621785986937.998,0.271,0.278,0.19,-0.6598431412440873,-6.176321346828747,-7.466169625146229
1621785986941.622,0.2767057822195377,0.2804453352369447,0.18429421778046234,-0.608,-6.09,-7.365
1621785986942.444,0.278,0.281,0.183,-0.6102412568912253,-6.07086311423646,-7.341323132328594
1621785986946.88,0.278,0.278,0.182,-0.622335523733124,-5.967596681971019,-7.213558056973152
1621785986951.307,0.267,0.269,0.176,-0.6344058270323781,-5.864534861492771,-7.086046134940006
1621785986955.725,0.248,0.265,0.18,-0.6464521667889878,-5.76167765280172,-6.958787366229156
1621785986955.926,0.24663251176959292,0.2648632511769593,0.17981766823594572,-0.647,-5.757,-6.953
1621785986960.133,0.218,0.262,0.176,-0.7429505052588162,-5.7306432254073005,-6.871560527943906
1621785986964.532,0.183,0.251,0.178,-0.8432775830068056,-5.703084244174057,-6.786406372447927
1621785986968.923,0.145,0.244,0.18,-0.9434264796865333,-5.675574207740428,-6.701403450883344
1621785986970.132,0.13423478260869565,0.2401355629877369,0.17861984392419175,-0.971,-5.668,-6.678
1621785986973.303,0.106,0.23,0.175,-1.0613473957432082,-5.672494895310607,-6.731039764665167
1621785986977.675,0.075,0.209,0.166,-1.185919397819692,-5.678692507354214,-6.804171586779719
1621785986982.037,0.047,0.201,0.164,-1.3102061948433985,-5.684875930091711,-6.877135975082194
1621785986984.241,0.03637047213188292,0.18480262420096447,0.15539514410676236,-1.373,-5.688,-6.914
1621785986986.391,0.026,0.169,0.147,-1.4227145843859434,-5.722524016934683,-6.945608655504643
1621785986990.734,0.009,0.145,0.129,-1.523125964771678,-5.792254142202554,-7.009450459083228
1621785986995.069,0.0,0.131,0.117,-1.6233623534331063,-5.861862745439657,-7.0731810024914195
1621785986998.254,-0.011779445792651956,0.11406704667306282,0.10374812348326655,-1.697,-5.913,-7.12
1621785986999.395,-0.016,0.108,0.099,-1.6985581093410065,-5.9315333005824975,-7.139271352375605
1621785987003.71,-0.012,0.084,0.084,-1.7044498561302548,-6.001614078180925,-7.21214295740052
1621785987008.017,-0.002,0.07,0.066,-1.710330935504246,-6.071567969682083,-7.284882623341989
1621785987012.169,-6.749999999999985e-05,0.042945000000000004,0.0524725,-1.716,-6.139,-7.355
1621785987012.314,0.0,0.042,0.052,-1.7140480893238874,-6.139818543186757,-7.356542639082734
1621785987016.603,0.021,0.023,0.033,-1.6563188523576489,-6.164027578043567,-7.402167358620568
1621785987020.882,0.045,0.002,0.014,-1.598724343232691,-6.188180114128226,-7.447685599703196
1621785987025.152,0.075,-0.017,-0.007,-1.5412514177693761,-6.212281663516068,-7.49310775047259
1621785987025.988,0.08049315303959205,-0.020531312668309175,-0.009746576519796024,-1.53,-6.217,-7.502
1621785987029.413,0.103,-0.035,-0.021,-1.429673420738975,-6.1975336488001,-7.435864319641364
1621785987033.664,0.119,-0.047,-0.037,-1.3051537544696066,-6.173373116538879,-7.353780460035935
1621785987037.906,0.136,-0.058,-0.052,-1.1808986889153754,-6.149263924714924,-7.271871026275061
1621785987039.712,0.13898713511018806,-0.06226733587169725,-0.055840602284527516,-1.128,-6.139,-7.237
1621785987042.138,0.143,-0.068,-0.061,-1.0669407033195393,-6.116214023396213,-7.162055498826606
1621785987046.363,0.145,-0.08,-0.068,-0.9606015478045896,-6.076530606760897,-7.031534261299511
1621785987050.577,0.136,-0.079,-0.07,-0.8545450457713047,-6.036952670142061,-6.9013599541391235
1621785987053.34,0.12680051091500233,-0.08097131908964236,-0.07459974454249885,-0.785,-6.011,-6.816
1621785987054.782,0.122,-0.082,-0.077,-0.7724265610622982,-6.002688743753045,-6.792984213469969
1621785987058.978,0.096,-0.091,-0.077,-0.7358367041333647,-5.978502228155953,-6.726006170278023
1621785987063.165,0.068,-0.089,-0.08,-0.699325617478846,-5.954367781045339,-6.659172316740938
1621785987066.872,0.041375416447483784,-0.089,-0.07733754164474838,-0.667,-5.933,-6.6
1621785987067.342,0.038,-0.089,-0.077,-0.6690639117556197,-5.93506391175562,-6.604792473059659
1621785987071.51,0.012,-0.084,-0.08,-0.6873678605826019,-5.953367860582602,-6.647294862708754
1621785987075.669,-0.012,-0.08,-0.082,-0.7056321394173981,-5.971632139417398,-6.689705137291247
1621785987079.818,-0.03,-0.084,-0.087,-0.7238535317741555,-5.9898535317741555,-6.732015828017954
1621785987080.307,-0.031180633366751195,-0.0834096833166244,-0.08747225334670047,-0.726,-5.992,-6.737
1621785987083.958,-0.04,-0.079,-0.091,-0.7662391411784086,-6.037713854263906,-6.815014661468344
1621785987088.09,-0.049,-0.079,-0.098,-0.8117789248256548,-6.089449526842751,-6.903306078743617
1621785987092.212,-0.045,-0.08,-0.103,-0.857205699851738,-6.141056815477825,-6.991378397671737
1621785987093.645,-0.0432574363236953,-0.08,-0.10613661461734845,-0.873,-6.159,-7.022
1621785987096.324,-0.04,-0.08,-0.112,-0.9007141935364932,-6.174778883911288,-7.0654930774477815
1621785987100.427,-0.03,-0.086,-0.12,-0.9431606290212562,-6.198945467617942,-7.132106096639198
1621785987104.522,-0.01,-0.094,-0.126,-0.985523717346017,-6.223064598197002,-7.198588315543019
1621785987106.888,-0.004206719273075084,-0.09631731229076997,-0.13468992109038735,-1.01,-6.237,-7.237
1621785987108.606,0.0,-0.098,-0.141,-1.01,-6.23438605549571,-7.226805616433268
1621785987112.682,0.014,-0.108,-0.141,-1.01,-6.228184577095948,-7.2026198506741945
1621785987116.749,0.028,-0.113,-0.154,-1.01,-6.221996471156346,-7.178486237509751
1621785987120.033,0.0352852500451345,-0.117856833363423,-0.15966630559066017,-1.01,-6.217,-7.159
1621785987120.806,0.037,-0.119,-0.161,-1.0041950644539654,-6.211787404815805,-7.148515575595427
1621785987124.853,0.04,-0.126,-0.162,-0.9738007446350727,-6.184494546202922,-7.09361971224906
1621785987128.892,0.042,-0.138,-0.169,-0.9434669310931917,-6.157256019757151,-7.038833130647907
1621785987132.922,0.038,-0.136,-0.173,-0.9132009579225056,-6.1300784111957185,-6.984169077064117
1621785987133.082,0.037880626936395115,-0.13619895510600816,-0.173,-0.912,-6.129,-6.982
1621785987136.941,0.035,-0.141,-0.173,-0.8944202311158029,-6.099799705921164,-6.973359096650141
1621785987140.952,0.019,-0.148,-0.173,-0.876147548400475,-6.0694484702245175,-6.964377608535827
1621785987144.954,0.01,-0.15,-0.176,-0.8579149056497068,-6.0391637415876485,-6.95541580108206
1621785987146.033,0.008649036991745643,-0.15243173341485783,-0.17654038520330173,-0.853,-6.031,-6.953
1621785987148.947,0.005,-0.159,-0.178,-0.8418931596338638,-6.035533404231076,-6.964106840366137
1621785987152.929,-0.002,-0.161,-0.182,-0.8267161684834213,-6.041728094496563,-6.979283831516579
1621785987156.904,-0.005,-0.159,-0.182,-0.8115652322534088,-6.047912150100649,-6.994434767746591
1621785987158.889,-0.009506651884700665,-0.159,-0.1835022172949002,-0.804,-6.051,-7.002
1621785987160.868,-0.014,-0.159,-0.185,-0.7856974799563728,-6.070698474962209,-7.023249535982855
1621785987164.823,-0.019,-0.152,-0.187,-0.7491195346434244,-6.110066263561738,-7.065717150456363
1621785987168.769,-0.024,-0.152,-0.19,-0.7126251315512524,-6.149344138076194,-7.10808777099558
1621785987171.648,-0.02180681959082455,-0.152,-0.19146212027278364,-0.686,-6.178,-7.139
1621785987172.707,-0.021,-0.152,-0.192,-0.6811491478368166,-6.187868975090614,-7.143934487545308
1621785987176.634,-0.017,-0.159,-0.19,-0.6631625279555796,-6.224462443124856,-7.162231221562428
1621785987180.552,-0.01,-0.15,-0.19,-0.6452172823320738,-6.260971735945091,-7.180485867972546
1621785987184.311,-0.00038348635313222197,-0.15384660545874712,-0.19384660545874713,-0.628,-6.296,-7.198
1621785987184.461,0.0,-0.154,-0.194,-0.6272961178253604,-6.296226673920647,-7.198
1621785987188.362,0.002,-0.159,-0.194,-0.608977985466133,-6.302125733493957,-7.198
1621785987192.252,0.014,-0.157,-0.188,-0.5907125869506081,-6.308007810982008,-7.198
1621785987196.133,0.021,-0.159,-0.19,-0.5724884583997202,-6.313876598142463,-7.198
1621785987196.876,0.023685451336359055,-0.1566981845688351,-0.19,-0.569,-6.315,-7.198
1621785987200.006,0.035,-0.147,-0.19,-0.5592097194212206,-6.315,-7.173398782135375
1621785987203.868,0.049,-0.157,-0.188,-0.5471308910774774,-6.315,-7.143046854502379
1621785987207.722,0.056,-0.143,-0.176,-0.5350764983455054,-6.315,-7.112756329175885
1621785987209.345,0.056844244078989144,-0.15988488157978284,-0.17684424407898913,-0.53,-6.315,-7.1
1621785987211.567,0.058,-0.183,-0.178,-0.5334117078367927,-6.304585312919265,-7.085994041512114
1621785987215.402,0.049,-0.145,-0.197,-0.5393005682266593,-6.2866087917291456,-7.061818719911609
1621785987219.227,0.056,-0.131,-0.192,-0.5451736840028412,-6.268680333043958,-7.037708034093599
1621785987221.719,0.0651402072406294,-0.15123903031853653,-0.170455225789945,-0.549,-6.257,-7.022
1621785987223.044,0.07,-0.162,-0.159,-0.565943524171257,-6.241135681189969,-7.0081861713763
1621785987226.852,0.065,-0.159,-0.159,-0.6146417165470202,-6.19553928450693,-6.968483186509436
1621785987230.649,0.052,-0.136,-0.178,-0.6631962932765924,-6.150077355976694,-6.928897289557938
1621785987233.996,0.05376675257731959,-0.136,-0.17534987113402062,-0.706,-6.11,-6.894
1621785987234.438,0.054,-0.136,-0.175,-0.7067255526827411,-6.11,-6.892585172268655
1621785987238.218,0.047,-0.145,-0.161,-0.7129320345539454,-6.11,-6.880482532619807
1621785987241.989,0.038,-0.134,-0.155,-0.7191236846852264,-6.11,-6.868408814863809
1621785987245.749,0.03,-0.133,-0.152,-0.7252972962138977,-6.11,-6.856370272382899
1621785987246.177,0.028403045288912025,-0.13220152264445603,-0.1522281363872983,-0.726,-6.11,-6.855
1621785987249.501,0.016,-0.126,-0.154,-0.7422279797979798,-6.1234774747474745,-6.833271010101011
1621785987253.244,0.005,-0.129,-0.147,-0.7605012929292929,-6.1386536161616165,-6.808803353535353
1621785987256.977,-0.002,-0.129,-0.15,-0.7787269292929293,-6.153790161616161,-6.784399535353535
1621785987258.262,-0.005450468760243887,-0.13038018750409755,-0.14654953123975611,-0.785,-6.159,-6.776
1621785987260.701,-0.012,-0.133,-0.14,-0.798834592591084,-6.178938089322444,-6.800007087143352
1621785987264.417,-0.017,-0.131,-0.143,-0.819913304686068,-6.209316233224039,-6.836584852249353
1621785987268.122,-0.028,-0.127,-0.138,-0.8409296987964076,-6.23960456591247,-6.873054477323178
1621785987270.25,-0.02512134222868089,-0.127,-0.138,-0.853,-6.257,-6.894
1621785987271.818,-0.023,-0.127,-0.138,-0.8556377281780662,-6.262143569947229,-6.908243732161558
1621785987275.505,-0.024,-0.133,-0.141,-0.8618392435473604,-6.274236524917352,-6.941731915155747
1621785987279.184,-0.023,-0.143,-0.143,-0.8680280281719062,-6.286304654935217,-6.975151352128293
1621785987282.14,-0.012524028221512247,-0.143,-0.1446116879659212,-0.873,-6.296,-7.002
1621785987282.852,-0.01,-0.143,-0.145,-0.8717922575302763,-6.296,-7.005562840285685
1621785987286.511,-0.005,-0.148,-0.143,-0.8655871027843909,-6.296,-7.023868046786047
1621785987290.162,0.003,-0.148,-0.145,-0.8593951971845565,-6.296,-7.042134168305559
1621785987293.802,0.009,-0.15,-0.148,-0.8532223372321706,-6.296,-7.060344105165097
1621785987293.933,0.009252671909659204,-0.15,-0.14814438394837667,-0.853,-6.296,-7.061
1621785987297.434,0.016,-0.15,-0.152,-0.853,-6.290014400500887,-7.049328080976729
1621785987301.057,0.017,-0.152,-0.148,-0.853,-6.283820515496191,-7.037250005217573
1621785987304.67,0.014,-0.154,-0.148,-0.853,-6.277643326724408,-7.025204487112595
1621785987305.631,0.015867393955820572,-0.15480031169535166,-0.14719968830464833,-0.853,-6.276,-7.022
1621785987308.273,0.021,-0.157,-0.145,-0.8441185680914198,-6.271673148557358,-7.0085639876254815
1621785987311.868,0.024,-0.161,-0.147,-0.8320328934907506,-6.265785255803186,-6.990280531178315
1621785987315.454,0.028,-0.161,-0.148,-0.8199767662099879,-6.259911757897173,-6.972041774522802
1621785987317.232,0.02601133337884891,-0.15652550010241004,-0.14899433331057554,-0.814,-6.257,-6.963
1621785987319.03,0.024,-0.152,-0.15,-0.8063419628647215,-6.250748541114058,-6.958311405835544
1621785987322.596,0.024,-0.155,-0.147,-0.7911548222811671,-6.238350875331565,-6.9490131564986735
1621785987326.155,0.024,-0.15,-0.14,-0.7759967957559681,-6.2259769761273205,-6.93973273209549
1621785987328.737,0.024,-0.14272226809799066,-0.14,-0.765,-6.217,-6.933
1621785987329.703,0.024,-0.14,-0.14,-0.765,-6.2136979003916695,-6.933
1621785987333.242,0.023,-0.145,-0.143,-0.765,-6.201597992423432,-6.933
1621785987336.771,0.021,-0.134,-0.138,-0.765,-6.189532307428889,-6.933
1621785987340.144,0.019084038274857856,-0.134,-0.1312941339620025,-0.765,-6.178,-6.933
1621785987340.292,0.019,-0.134,-0.131,-0.7647383758580495,-6.177751457065147,-6.933
1621785987343.804,0.014,-0.138,-0.133,-0.7585280404092735,-6.17185163838881,-6.933
1621785987347.306,0.017,-0.141,-0.129,-0.7523354056037647,-6.165968635323576,-6.933
1621785987350.799,0.012,-0.138,-0.127,-0.7461583128264905,-6.1601003971851656,-6.933
1621785987351.454,0.010683513248282631,-0.13461474835272677,-0.12737613907191925,-0.745,-6.159,-6.933
1621785987354.282,0.005,-0.12,-0.129,-0.7351650918749456,-6.163791365496821,-6.933
1621785987357.757,0.002,-0.12,-0.119,-0.7230792693546982,-6.169679330314378,-6.933
1621785987361.222,0.0,-0.122,-0.12,-0.7110291082469737,-6.175549921623269,-6.933
1621785987362.668,-0.0012552274653857022,-0.11907113591410003,-0.11707113591410002,-0.706,-6.178,-6.933
1621785987364.678,-0.003,-0.115,-0.113,-0.706,-6.174565365360969,-6.933
1621785987368.125,-0.009,-0.117,-0.11,-0.706,-6.168675215176532,-6.933
1621785987371.562,-0.009,-0.113,-0.106,-0.706,-6.162802169330757,-6.933
1621785987373.787,-0.009649099067018019,-0.11235090093298199,-0.106,-0.706,-6.159,-6.933
1621785987374.99,-0.01,-0.112,-0.106,-0.6995610463828468,-6.163256257475745,-6.935182696141408
1621785987378.409,-0.016,-0.103,-0.099,-0.6812596243299517,-6.175353807646303,-6.941386568023745
1621785987381.819,-0.019,-0.094,-0.098,-0.6630052496345191,-6.187420258716165,-6.947574491649315
1621785987384.809,-0.012843960936377997,-0.094,-0.09184396093637799,-0.647,-6.198,-6.953
1621785987385.219,-0.012,-0.094,-0.091,-0.6477504245999821,-6.199463327969966,-6.951536672030035
1621785987388.61,-0.016,-0.091,-0.087,-0.6539585232859569,-6.211569120407616,-6.9394308795923845
1621785987391.992,-0.023,-0.087,-0.087,-0.6601496379726468,-6.223641794046661,-6.927358205953339
1621785987395.365,-0.019,-0.084,-0.084,-0.6663246625547511,-6.235683091981764,-6.9153169080182355
1621785987395.734,-0.018780680746062848,-0.08323238261121997,-0.08323238261121997,-0.667,-6.237,-6.914
1621785987398.729,-0.017,-0.077,-0.077,-0.6614673942455128,-6.242532605754487,-6.919255975466762
1621785987402.083,-0.021,-0.08,-0.077,-0.6552718499143141,-6.248728150085686,-6.925141742581402
1621785987405.427,-0.019,-0.075,-0.07,-0.6490947957066835,-6.254905204293316,-6.93100994407865
1621785987406.561,-0.020699721896955504,-0.07262038934426229,-0.0706798887587822,-0.647,-6.257,-6.933
1621785987408.763,-0.024,-0.068,-0.072,-0.6431013559630523,-6.257,-6.9430543977794965
1621785987412.09,-0.023,-0.068,-0.065,-0.637210379032625,-6.257,-6.9582469172316515
1621785987415.406,-0.023,-0.061,-0.061,-0.6313392865268235,-6.257,-6.9733881557992445
1621785987417.292,-0.01958034528552457,-0.062139884904825145,-0.05587051792828685,-0.628,-6.257,-6.982
1621785987418.715,-0.017,-0.063,-0.052,-0.6253237528982346,-6.254323752898235,-6.982
1621785987422.013,-0.016,-0.061,-0.054,-0.6191218750717384,-6.248121875071738,-6.982
1621785987425.302,-0.014,-0.059,-0.051,-0.6129365257914189,-6.241936525791419,-6.982
1621785987427.927,-0.01800029764119354,-0.059,-0.04539958330232904,-0.608,-6.237,-6.982
1621785987428.583,-0.019,-0.059,-0.044,-0.6067550963676798,-6.234572437916976,-6.980817341549296
1621785987431.854,-0.019,-0.056,-0.04,-0.6005477205337286,-6.222468055040771,-6.9749203345070425
1621785987435.115,-0.017,-0.037,-0.037,-0.5943593402520385,-6.210400713491476,-6.9690413732394365
1621785987438.368,-0.019,-0.065,-0.024,-0.5881862490733877,-6.198363185693107,-6.9631769366197185
1621785987438.466,-0.01948419150858175,-0.06397109304426378,-0.024423667570009033,-0.588,-6.198,-6.963
1621785987441.611,-0.035,-0.031,-0.038,-0.5584859026511432,-6.20974540608781,-6.980768691261047
1621785987444.845,-0.035,-0.024,-0.035,-0.5281378407443774,-6.221822696030299,-6.999039463225324
1621785987448.07,-0.031,-0.042,-0.007,-0.4978722588488334,-6.233867162294852,-7.017260578856315
1621785987448.909,-0.03204374240583232,-0.03912970838396112,-0.007,-0.49,-6.237,-7.022
1621785987451.285,-0.035,-0.031,-0.007,-0.5260555018052245,-6.237,-7.008450480213323
1621785987454.491,-0.045,-0.014,-0.014,-0.5747074592349624,-6.237,-6.990167260542275
1621785987457.688,-0.038,-0.017,-0.014,-0.6232223375887864,-6.237,-6.971935554664086
1621785987459.255,-0.03750834993105561,-0.021424850620499463,-0.008100199172667383,-0.647,-6.237,-6.963
1621785987460.875,-0.037,-0.026,-0.002,-0.643996855945122,-6.237,-6.972325552591464
1621785987464.054,-0.038,-0.012,0.002,-0.6381041587271341,-6.237,-6.99062392816311
1621785987467.223,-0.033,-0.012,0.0,-0.6322300161966463,-6.237,-7.008864686547256
1621785987469.505,-0.033,-0.013444221260815823,0.003610553152039555,-0.628,-6.237,-7.022
1621785987470.383,-0.033,-0.014,0.005,-0.6245399321838251,-6.230252867758459,-7.023643532212684
1621785987473.534,-0.033,-0.009,0.002,-0.6121252434889257,-6.206044224803406,-7.029540509342761
1621785987476.676,-0.03,-0.007,0.01,-0.5997451843301349,-6.181903109443763,-7.035421037443186
1621785987479.657,-0.034758749707693506,-0.011758749707693507,0.011903499883077403,-0.588,-6.159,-7.041
1621785987479.808,-0.035,-0.012,0.012,-0.588300529203282,-6.159285502743118,-7.0398279361072005
1621785987482.93,-0.037,-0.002,0.014,-0.5945087148613876,-6.165183279118318,-7.015616012040589
1621785987486.044,-0.045,0.003,0.012,-0.6007013642763509,-6.171066296062533,-6.991464679322232
1621785987489.149,-0.042,0.002,0.016,-0.6068760499101811,-6.176932247414672,-6.967383405350294
1621785987489.714,-0.042913070915831825,0.002,0.017460913465330914,-0.608,-6.178,-6.963
1621785987492.244,-0.047,0.002,0.024,-0.6229842647058823,-6.187904852941176,-6.982809705882353
1621785987495.329,-0.045,0.003,0.017,-0.6412583578431372,-6.199984338235294,-7.0069686764705885
1621785987498.406,-0.044,0.012,0.024,-0.6594832843137255,-6.212031323529412,-7.031062647058824
1621785987499.675,-0.04234550807670884,0.00993188509588605,0.02358637701917721,-0.667,-6.217,-7.041
1621785987501.474,-0.04,0.007,0.023,-0.6812262208251862,-6.220647748929535,-7.058873969754721
1621785987504.532,-0.037,0.009,0.024,-0.7054063559636661,-6.2268477835804275,-7.089254139544094
1621785987507.581,-0.021,0.012,0.021,-0.7295169913125263,-6.233029997772443,-7.119546989084969
1621785987509.539,-0.01971185351750723,0.005559267587536139,0.021,-0.745,-6.237,-7.139
1621785987510.621,-0.019,0.002,0.021,-0.747215224671365,-6.232680311890839,-7.139
1621785987513.651,-0.009,0.0,0.023,-0.7534180536812116,-6.2205847953216376,-7.139
1621785987516.672,-0.005,0.0,0.016,-0.7596033888139151,-6.208523391812866,-7.139
1621785987519.308,-0.0006241387695549976,0.006126205722623003,0.020375861230445005,-0.765,-6.198,-7.139
1621785987519.684,0.0,0.007,0.021,-0.7642224578410582,-6.196483792790064,-7.137483792790063
1621785987522.687,0.003,0.0,0.012,-0.7580122185196405,-6.184373826113299,-7.125373826113299
1621785987525.681,0.007,-0.002,0.016,-0.7518206604059376,-6.172300287791578,-7.113300287791578
1621785987528.665,0.012,0.002,0.009,-0.745649298192467,-6.160266131475311,-7.1012661314753105
1621785987528.979,0.012739019784910927,0.0017888514900254496,0.009316722764961826,-0.745,-6.159,-7.1
1621785987531.639,0.019,0.0,0.012,-0.7341658379866901,-6.15066602922053,-7.08916583798669
1621785987534.605,0.014,0.0,0.012,-0.7220846783446798,-6.141372829495907,-7.07708467834468
1621785987537.562,0.016,0.003,0.014,-0.7100403120936281,-6.132107932379713,-7.065040312093628
1621785987538.554,0.015326816336674674,0.006029326484963964,0.014673183663325325,-0.706,-6.129,-7.061
1621785987540.509,0.014,0.012,0.016,-0.6938297872340425,-6.125080778939776,-7.0568745041471335
1621785987543.447,0.014,0.009,0.014,-0.6755410334346504,-6.119191180258616,-7.050674926588017
1621785987546.375,0.01,0.009,0.021,-0.6573145896656535,-6.113321647519448,-7.044496471073103
1621785987548.032,0.00829757525083612,0.010702424749163879,0.018730100334448163,-0.647,-6.11,-7.041
1621785987549.295,0.007,0.012,0.017,-0.647,-6.11,-7.046249316993209
1621785987552.205,0.007,0.007,0.017,-0.647,-6.11,-7.058345172117711
1621785987555.106,0.0,0.016,0.019,-0.647,-6.11,-7.07040246663024
1621785987557.415,0.003992064832010806,0.01839523889920648,0.022193651865608642,-0.647,-6.11,-7.08
1621785987557.998,0.005,0.019,0.023,-0.647,-6.111193026741343,-7.08
1621785987560.88,0.003,0.017,0.023,-0.647,-6.117090215876522,-7.08
1621785987563.753,0.005,0.024,0.024,-0.647,-6.122969419683942,-7.08
1621785987566.617,0.002,0.024,0.028,-0.647,-6.128830138571165,-7.08
1621785987566.7,0.002029074739182487,0.024203523174277406,0.028,-0.647,-6.129,-7.08
1621785987569.472,0.003,0.031,0.028,-0.647,-6.1320166321271055,-7.062503533662788
1621785987572.317,0.0,0.031,0.031,-0.647,-6.135112705244699,-7.044546309580743
1621785987575.153,0.002,0.026,0.031,-0.647,-6.138199213560763,-7.026644561347575
1621785987575.889,0.0009591642924976259,0.027821462488129153,0.031,-0.647,-6.139,-7.022
1621785987577.981,-0.002,0.033,0.031,-0.6426281786203378,-6.136699041379125,-7.01739808275825
1621785987580.798,-0.002,0.031,0.033,-0.6367410918074166,-6.133600574635483,-7.011201149270965
1621785987583.606,-0.007,0.03,0.038,-0.630873392228995,-6.130512311699471,-7.005024623398942
1621785987584.981,-0.007,0.0334374400558026,0.038982125730229314,-0.628,-6.129,-7.002
1621785987586.406,-0.007,0.037,0.04,-0.6216623235613463,-6.1259896036916395,-6.995820765472312
1621785987589.196,-0.007,0.042,0.044,-0.6092540716612378,-6.120095684039088,-6.983722719869707
1621785987591.977,-0.017,0.045,0.045,-0.596885993485342,-6.114220846905537,-6.971663843648209
1621785987593.975,-0.017,0.047884229074889866,0.046442114537444935,-0.588,-6.11,-6.963
1621785987594.748,-0.017,0.049,0.047,-0.5863493222106361,-6.111650677789364,-6.962131222216124
1621785987597.51,-0.019,0.051,0.051,-0.5804509906152242,-6.117549009384776,-6.959026837165908
1621785987600.263,-0.028,0.047,0.054,-0.5745719499478623,-6.123428050052137,-6.955932605235717
1621785987602.872,-0.028,0.058409608540925265,0.055901601423487546,-0.569,-6.129,-6.953
1621785987603.007,-0.028,0.059,0.056,-0.5692914643956836,-6.129153402313517,-6.953
1621785987605.741,-0.037,0.061,0.063,-0.57519348664318,-6.1322597298121995,-6.953
1621785987608.467,-0.042,0.072,0.065,-0.5810786429581958,-6.135357180504314,-6.953
1621785987611.182,-0.044,0.075,0.066,-0.5869395544952702,-6.138441870786985,-6.953
1621785987611.673,-0.044181457431457426,0.07536291486291485,0.06672582972582973,-0.588,-6.139,-6.953
1621785987613.889,-0.045,0.077,0.07,-0.588,-6.136454494460805,-6.965472977142056
1621785987616.587,-0.049,0.079,0.073,-0.588,-6.133355069415229,-6.980660159865376
1621785987619.275,-0.052,0.077,0.075,-0.588,-6.13026714345814,-6.995790997055112
1621785987620.378,-0.0527881378107283,0.08054662014827736,0.0757881378107283,-0.588,-6.129,-7.002
1621785987622.074,-0.054,0.086,0.077,-0.588,-6.130139188613033,-6.999721622773933
1621785987627.068,-0.056,0.087,0.077,-0.588,-6.133493621068512,-6.993012757862976
1621785987632.061,-0.058,0.094,0.079,-0.588,-6.136847233609918,-6.986305532780165
1621785987635.266,-0.061209623001320226,0.09335807539973595,0.08349347220184831,-0.588,-6.139,-6.982
1621785987637.054,-0.063,0.093,0.086,-0.5924341507720254,-6.137891462306994,-6.982
1621785987642.049,-0.058,0.087,0.082,-0.6048228882833787,-6.1347942779291555,-6.982
1621785987647.042,-0.059,0.096,0.082,-0.6172061762034514,-6.131698455949137,-6.982
1621785987651.394,-0.0624865776734634,0.09774328883673171,0.08548657767346339,-0.628,-6.129,-6.982
1621785987652.035,-0.063,0.098,0.086,-0.6295495398680148,-6.129,-6.980847778046861
1621785987657.028,-0.063,0.098,0.082,-0.6416223739177817,-6.129,-6.971870542471393
1621785987662.022,-0.063,0.098,0.087,-0.6536969788702549,-6.129,-6.962891990070837
1621785987667.015,-0.063,0.094,0.087,-0.6657692226191197,-6.129,-6.953915193437065
1621785987667.524,-0.06401946019949149,0.0942038920398983,0.0872038920398983,-0.667,-6.129,-6.953
1621785987672.008,-0.073,0.096,0.089,-0.677842549004768,-6.129,-6.961062408234315
1621785987677.002,-0.075,0.094,0.091,-0.6899177022629228,-6.129,-6.970041368349353
1621785987681.995,-0.075,0.089,0.086,-0.701991084537955,-6.129,-6.979019011579505
1621785987683.653,-0.0756641240037162,0.089,0.08766031000929049,-0.706,-6.129,-6.982
1621785987686.988,-0.077,0.089,0.091,-0.706,-6.131067691935093,-6.990270767740373
1621785987691.981,-0.077,0.089,0.087,-0.706,-6.134163326471301,-7.002653305885202
1621785987696.974,-0.08,0.093,0.087,-0.706,-6.137259112375878,-7.015036449503512
1621785987699.782,-0.07606341988166837,0.093,0.08812473717666618,-0.706,-6.139,-7.022
1621785987701.967,-0.073,0.093,0.089,-0.7112827932741059,-6.146991918030058,-7.027282793274106
1621785987706.96,-0.079,0.082,0.087,-0.7233541234694958,-6.1652536739666735,-7.039354123469496
1621785987711.953,-0.072,0.077,0.084,-0.7354254536648858,-6.183515429903289,-7.051425453664886
1621785987715.913,-0.06882749853315079,0.0793793761001369,0.0863793761001369,-0.745,-6.198,-7.061
1621785987716.946,-0.068,0.08,0.087,-0.7506999122063454,-6.199216835190119,-7.063497714337612
1621785987721.938,-0.07,0.08,0.082,-0.7782456708646162,-6.2050973904093,-7.075568327682247
1621785987726.932,-0.065,0.075,0.079,-0.8058022069508355,-6.210980246427706,-7.087643663720029
1621785987731.925,-0.059,0.079,0.07,-0.8333547015015742,-6.216862239646403,-7.09971722874788
1621785987732.042,-0.05876573580476353,0.079,0.06990629432190543,-0.834,-6.217,-7.1
1621785987736.917,-0.049,0.079,0.066,-0.8457892697105486,-6.223045779338743,-7.0939542206612565
1621785987741.911,-0.047,0.072,0.061,-0.8578660681845707,-6.229239009325421,-7.087760990674579
1621785987746.903,-0.044,0.07,0.058,-0.8699387338016229,-6.235430119898268,-7.081569880101732
1621785987748.169,-0.042225270157938484,0.06949293433083957,0.05647880299251871,-0.873,-6.237,-7.08
1621785987751.896,-0.037,0.068,0.052,-0.8683775812995821,-6.232377581299582,-7.06197256706837
1621785987756.889,-0.038,0.059,0.049,-0.8621851874280869,-6.2261851874280865,-7.037822230969539
1621785987761.881,-0.033,0.054,0.049,-0.8559937019318112,-6.219993701931811,-7.013675437534064
1621785987764.295,-0.033,0.054,0.045615862305021765,-0.853,-6.217,-7.002
1621785987766.874,-0.033,0.054,0.042,-0.8467634004934833,-6.210763400493483,-6.984729416751184
1621785987771.866,-0.033,0.047,0.038,-0.8346922389912353,-6.198692238991235,-6.951301584898806
1621785987776.859,-0.038,0.047,0.04,-0.8226187160351796,-6.18661871603518,-6.917867213635882
1621785987780.423,-0.0422837441314554,0.04343021322378717,0.0378581279342723,-0.814,-6.178,-6.894
1621785987781.851,-0.044,0.042,0.037,-0.8131145927944292,-6.178,-6.894
1621785987786.843,-0.051,0.03,0.031,-0.8100193763245535,-6.178,-6.894
1621785987791.836,-0.058,0.03,0.035,-0.8069235543445353,-6.178,-6.894
1621785987796.551,-0.06083361862375899,0.03,0.03027730229373502,-0.804,-6.178,-6.894
1621785987796.828,-0.061,0.03,0.03,-0.8041716725202859,-6.178,-6.895012867869687
1621785987801.82,-0.066,0.024,0.028,-0.8072672278067095,-6.178,-6.913276644059586
1621785987806.812,-0.066,0.026,0.026,-0.8103626317064309,-6.178,-6.931539527067943
1621785987811.805,-0.075,0.024,0.024,-0.8134586411529611,-6.178,-6.949805982802471
1621785987812.678,-0.07569953051643193,0.023475352112676057,0.02260093896713615,-0.814,-6.178,-6.953
1621785987816.797,-0.079,0.021,0.016,-0.8191083928787695,-6.198178151871139,-6.970623955431755
1621785987821.789,-0.075,0.016,0.014,-0.8252992006782124,-6.222631842678939,-6.991982242339833
1621785987826.782,-0.072,0.014,0.009,-0.8314912195712728,-6.247090317306528,-7.013344707520892
1621785987828.805,-0.07037902870836797,0.013189514354183989,0.006568543062551963,-0.834,-6.257,-7.022
1621785987831.774,-0.068,0.012,0.003,-0.8303177496517895,-6.260498137830799,-7.032678526009811
1621785987836.766,-0.063,0.003,0.003,-0.8241262641555138,-6.266380049052262,-7.05063383394901
1621785987841.757,-0.059,0.002,0.0,-0.8179362926179373,-6.272260522012959,-7.068584751407982
1621785987844.931,-0.059,0.003906997212850228,-0.0031783286880837126,-0.814,-6.276,-7.08
1621785987846.75,-0.059,0.005,-0.005,-0.8084725519287833,-6.271600602555562,-7.07785670380912
1621785987851.742,-0.058,0.002,-0.009,-0.7933041543026706,-6.259527796281717,-7.071975080239811
1621785987856.733,-0.049,-0.002,-0.01,-0.7781387240356084,-6.247457351783443,-7.066094607279114
1621785987861.057,-0.049,-0.004597936632114219,-0.013463915509485625,-0.765,-6.237,-7.061
1621785987861.726,-0.049,-0.005,-0.014,-0.7641699975775194,-6.235381495276163,-7.056932988129845
1621785987866.718,-0.049,-0.014,-0.021,-0.7579784399224806,-6.223307957848838,-7.026594355620155
1621785987871.709,-0.045,-0.012,-0.017,-0.7517880935077519,-6.211236782340117,-6.996261658187985
1621785987876.702,-0.049,-0.016,-0.024,-0.7455953246124031,-6.199160882994186,-6.965917090600775
1621785987877.182,-0.04928849540207396,-0.016,-0.024,-0.745,-6.198,-6.963
1621785987881.693,-0.052,-0.016,-0.024,-0.7284937923934108,-6.192404675387597,-6.968315558381783
1621785987886.685,-0.056,-0.019,-0.024,-0.7102286973110465,-6.186213117732558,-6.97419753815407
1621785987891.676,-0.054,-0.016,-0.023,-0.691967175387597,-6.180022771317829,-6.980078367248062
1621785987893.307,-0.05530679317259256,-0.014039810241111166,-0.022346603413703724,-0.686,-6.178,-6.982
1621785987896.668,-0.058,-0.01,-0.021,-0.6739090551181103,-6.169869881889764,-6.99429940944882
1621785987901.659,-0.056,-0.01,-0.023,-0.6559548758328286,-6.157797244094488,-7.0125631435493645
1621785987906.651,-0.061,-0.003,-0.019,-0.6379971835251363,-6.145722244094489,-7.030830451241672
1621785987909.43,-0.055433196400625974,-0.0013299589201877936,-0.020113360719874806,-0.628,-6.139,-7.041
1621785987911.643,-0.051,0.0,-0.021,-0.6225093882495457,-6.141745305875228,-7.04909865233192
1621785987916.634,-0.051,-0.005,-0.017,-0.6101271956390066,-6.1479364021804965,-7.067362386432465
1621785987921.625,-0.044,-0.005,-0.017,-0.5977450030284676,-6.154127498485766,-7.08562612053301
1621785987925.553,-0.044,-0.002639409204284247,-0.01621313640142808,-0.588,-6.159,-7.1
1621785987926.617,-0.044,-0.002,-0.016,-0.590640092082147,-6.157679953958926,-7.102574089780093
1621785987931.609,-0.04,-0.003,-0.021,-0.6030269582601321,-6.151486520869934,-7.114651284303629
1621785987936.6,-0.028,-0.003,-0.016,-0.6154120070273217,-6.145293996486339,-7.126726706851639
1621785987941.592,-0.026,-0.005,-0.016,-0.6277988732053068,-6.1391005633973466,-7.138803901375175
1621785987941.673,-0.025853837499388542,-0.0048863180550799785,-0.015902558332925695,-0.628,-6.139,-7.139
1621785987946.583,-0.017,0.002,-0.01,-0.6337871628273283,-6.124075211655838,-7.127121086828116
1621785987951.574,-0.012,-0.002,-0.016,-0.6396698623290472,-6.108904039256668,-7.115046072061429
1621785987956.566,-0.005,-0.002,-0.012,-0.6455537128750359,-6.0937298983749075,-7.102968694624926
1621785987957.793,-0.005491804882822056,-0.0027377073242330838,-0.011508195117177945,-0.647,-6.09,-7.1
1621785987961.556,-0.007,-0.005,-0.01,-0.6516680598461445,-6.076229223453874,-7.095331940153855
1621785987966.547,-0.005,0.0,-0.007,-0.6578598340299231,-6.057963489611726,-7.089140165970077
1621785987971.538,-0.003,-0.005,-0.009,-0.6640513053485978,-6.039698649221636,-7.082948694651402
1621785987973.915,-0.005856947229422409,-0.0026192106421479926,-0.008047684256859196,-0.667,-6.031,-7.08
1621785987976.53,-0.009,0.0,-0.007,-0.6765691853422169,-6.034243791641429,-7.08
1621785987981.521,-0.01,-0.003,-0.005,-0.6948329194427619,-6.040434887946699,-7.08
1621785987986.511,-0.012,-0.002,-0.007,-0.7130930799515445,-6.046624772864931,-7.08
1621785987990.038,-0.014826786675145528,-0.0005866066624272367,-0.0041732133248544735,-0.726,-6.051,-7.08
1621785987991.502,-0.016,0.0,-0.003,-0.7295414275113205,-6.058990913358877,-7.078274689161152
1621785987996.494,-0.017,-0.002,-0.002,-0.7416180733291938,-6.086240780845361,-7.0723911950447516
1621785988001.484,-0.017,0.0,-0.002,-0.7536899940936833,-6.113479986672926,-7.066510002877436
1621785988006.159,-0.016063526995305166,0.0,0.0017458920187793429,-0.765,-6.139,-7.061
1621785988006.476,-0.016,0.0,0.002,-0.765767218924158,-6.137642612672644,-7.061767218924158
1621785988011.466,-0.012,0.0,0.0,-0.7778389568693966,-6.116284922461837,-7.0738389568693965
1621785988016.457,-0.01,-0.002,0.003,-0.7899130573055488,-6.094923052459414,-7.085913057305548
1621785988021.447,-0.009,-0.005,-0.002,-0.8019847952507876,-6.073565362248607,-7.097984795250787
1621785988022.28,-0.010168093118794934,-0.0065018340098792,-0.0016662591089157334,-0.804,-6.07,-7.1
1621785988026.439,-0.016,-0.014,0.0,-0.804,-6.044714417702922,-7.0695540947851505
1621785988031.429,-0.019,-0.01,-0.002,-0.804,-6.014376171940082,-7.0330243702952
1621785988036.419,-0.031,-0.014,-0.002,-0.804,-5.984037926177241,-6.9964946458052495
1621785988038.399,-0.03615625764170783,-0.010430283171125349,-0.0023966352032082946,-0.804,-5.972,-6.982
1621785988041.411,-0.044,-0.005,-0.003,-0.7967139287661276,-5.968450375552729,-6.9655596341389545
1621785988046.401,-0.063,-0.009,0.0,-0.7846429220425223,-5.962569628687383,-6.938322490762615
1621785988051.391,-0.075,-0.009,-0.005,-0.7725713247319644,-5.956688594100188,-6.911084014779817
1621785988054.521,-0.08189955477273839,-0.0077455354958657465,-0.0031183032437986204,-0.765,-5.953,-6.894
1621785988056.381,-0.086,-0.007,-0.002,-0.7695005679838844,-5.964309119549248,-6.898500567983884
1621785988061.373,-0.094,-0.012,-0.002,-0.7815786771276677,-5.994659239961832,-6.910578677127668
1621785988066.363,-0.105,-0.007,0.0,-0.7936520606455326,-6.024997485724672,-6.922652060645532
1621785988070.64,-0.11099960859141837,-0.009571260824893586,-0.004285434708155977,-0.804,-6.051,-6.933
1621785988071.353,-0.112,-0.01,-0.005,-0.8053271642333556,-6.051840537347792,-6.941272657054583
1621785988076.344,-0.105,-0.009,-0.007,-0.8146154964560489,-6.057723147755498,-6.999169927909372
1621785988081.334,-0.103,-0.009,-0.012,-0.8239020112679469,-6.063604607136367,-7.057055870236869
1621785988086.324,-0.098,-0.016,-0.01,-0.8331885260798448,-6.069486066517236,-7.114941812564367
1621785988086.76,-0.09738844592280976,-0.017048378418040404,-0.011135743286210439,-0.834,-6.07,-7.12
1621785988091.315,-0.091,-0.028,-0.023,-0.8393687582352674,-6.07,-7.142040165386887
1621785988096.305,-0.084,-0.031,-0.017,-0.8452503066927166,-6.07,-7.166185469580626
1621785988101.294,-0.08,-0.031,-0.024,-0.8511307041058961,-6.07,-7.1903260484347316
1621785988102.88,-0.07745740985371104,-0.033860413914575074,-0.02368217623171388,-0.853,-6.07,-7.198
1621785988106.284,-0.072,-0.04,-0.023,-0.8386397067732946,-6.061763949472919,-7.177304283290924
1621785988111.275,-0.073,-0.045,-0.03,-0.8175848782260996,-6.049688386041439,-7.146960559796438
1621785988116.265,-0.066,-0.054,-0.028,-0.7965341693929481,-6.037615185387132,-7.116622773536895
1621785988118.999,-0.06709584617642743,-0.054,-0.030739615441068548,-0.785,-6.031,-7.1
1621785988121.255,-0.068,-0.054,-0.033,-0.7794016116572502,-6.033799194171374,-7.086283948560262
1621785988126.245,-0.068,-0.059,-0.026,-0.7670172980505612,-6.039991350974719,-7.0559423802238745
1621785988131.235,-0.084,-0.058,-0.031,-0.7546335903300565,-6.046183204834972,-7.025602296308638
1621785988135.117,-0.08788962277997944,-0.061889622779979454,-0.03022207544400411,-0.745,-6.051,-7.002
1621785988136.225,-0.089,-0.063,-0.03,-0.7423190010298661,-6.049625128733265,-7.006055870236869
1621785988141.215,-0.094,-0.056,-0.026,-0.7302465317743987,-6.043434118858666,-7.024319349366935
1621785988146.205,-0.101,-0.058,-0.028,-0.7181740625189313,-6.037243108984067,-7.042582828497001
1621785988151.194,-0.106,-0.056,-0.026,-0.706103955897498,-6.031053310716666,-7.060842733385837
1621785988151.237,-0.10603444395518372,-0.056043054943979646,-0.026034443955183718,-0.706,-6.031,-7.061
1621785988156.184,-0.11,-0.061,-0.03,-0.706,-6.055247216710341,-7.084940289916539
1621785988161.174,-0.113,-0.065,-0.035,-0.706,-6.079705039458338,-7.1090885199715235
1621785988166.164,-0.112,-0.056,-0.044,-0.706,-6.104162862206334,-7.133236750026508
1621785988167.355,-0.11104516760459995,-0.056477416197700026,-0.04423870809885001,-0.706,-6.11,-7.139
1621785988171.153,-0.108,-0.058,-0.045,-0.7012868287510414,-6.135215466181928,-7.143713171248959
1621785988176.143,-0.101,-0.066,-0.049,-0.6950945997121867,-6.168343891539801,-7.149905400287813
1621785988181.133,-0.093,-0.07,-0.051,-0.6889023706733318,-6.201472316897674,-7.156097629326668
1621785988183.472,-0.09018717885979936,-0.0648431612429655,-0.051,-0.686,-6.217,-7.159
1621785988186.122,-0.087,-0.059,-0.051,-0.686,-6.213876022417449,-7.155711602544684
1621785988191.112,-0.075,-0.063,-0.059,-0.686,-6.207993850348379,-7.149519842471978
1621785988196.101,-0.066,-0.066,-0.061,-0.686,-6.202112829445623,-7.143329294153287
1621785988199.59,-0.05900797494985078,-0.06390239248495523,-0.06379681002005969,-0.686,-6.198,-7.139
1621785988201.091,-0.056,-0.063,-0.065,-0.6805994214488013,-6.187943750283975,-7.129874884516941
1621785988206.08,-0.051,-0.065,-0.068,-0.6626487346085692,-6.15451833340906,-7.099544413648962
1621785988211.07,-0.045,-0.063,-0.072,-0.6446945340542506,-6.1210863737561905,-7.069208005815803
1621785988215.71,-0.05058013212625397,-0.065790066063127,-0.07479006606312699,-0.628,-6.09,-7.041
1621785988216.059,-0.051,-0.066,-0.075,-0.62672220875992,-6.089155358332828,-7.0373832010662145
1621785988221.049,-0.051,-0.07,-0.079,-0.608458729629854,-6.077082889077361,-6.985688268613315
1621785988226.038,-0.063,-0.068,-0.075,-0.5901988247410189,-6.065012782455928,-6.9340034530805115
1621785988231.027,-0.066,-0.066,-0.077,-0.5719389198521839,-6.052942675834495,-6.882318637547707
1621785988231.83,-0.06809234157083435,-0.06712664546121849,-0.07748284805480793,-0.569,-6.051,-6.874
1621785988236.016,-0.079,-0.073,-0.08,-0.5739345491449431,-6.061128811402778,-6.863871188597222
1621785988241.005,-0.084,-0.068,-0.079,-0.5798153713324952,-6.073199972735122,-6.851800027264878
1621785988245.994,-0.098,-0.077,-0.08,-0.5856964813159847,-6.085271724806495,-6.8397282751935045
1621785988247.948,-0.10191680939564474,-0.08052512845608026,-0.08078336187912895,-0.588,-6.09,-6.835
1621785988250.983,-0.108,-0.086,-0.082,-0.5844224087005255,-6.097343476877868,-6.846109362456263
1621785988255.973,-0.108,-0.087,-0.087,-0.5785401475332859,-6.10941759190536,-6.864375331344007
1621785988260.961,-0.115,-0.089,-0.087,-0.5726601887335464,-6.121486981020615,-6.882634150774777
1621785988264.066,-0.115,-0.09148945436750673,-0.08948945436750673,-0.569,-6.129,-6.894
1621785988265.95,-0.115,-0.093,-0.091,-0.5644404381353493,-6.130169118426833,-6.900897798718318
1621785988270.939,-0.11,-0.098,-0.087,-0.5523664914327269,-6.133265002196737,-6.919163512960747
1621785988275.928,-0.113,-0.106,-0.093,-0.5402925447301044,-6.13636088596664,-6.937429227203175
1621785988280.181,-0.11470491803278689,-0.10514754098360655,-0.09811475409836067,-0.53,-6.139,-6.953
1621785988280.917,-0.115,-0.105,-0.099,-0.5263917924013816,-6.139,-6.950305262679513
1621785988285.906,-0.112,-0.106,-0.101,-0.5019361631218566,-6.139,-6.932040931951766
1621785988290.895,-0.119,-0.11,-0.105,-0.4774805338423317,-6.139,-6.91377660122402
1621785988295.884,-0.119,-0.11,-0.106,-0.45302490456280675,-6.139,-6.8955122704962735
1621785988296.297,-0.11957970730752288,-0.11074533796681513,-0.10591718467035387,-0.451,-6.139,-6.894
1621785988300.872,-0.126,-0.119,-0.105,-0.43140982091451774,-6.136160843610799,-6.882927290082119
1621785988305.861,-0.122,-0.117,-0.106,-0.41004660464834397,-6.133064725311354,-6.870852428714282
1621785988310.85,-0.134,-0.113,-0.105,-0.38868338838217026,-6.129968607011908,-6.858777567346444
1621785988312.411,-0.13681629955947136,-0.11487753303964758,-0.10531292217327459,-0.382,-6.129,-6.855
1621785988315.838,-0.143,-0.119,-0.106,-0.3611568660131214,-6.129,-6.855
1621785988320.827,-0.145,-0.124,-0.11,-0.33081352747768905,-6.129,-6.855
1621785988325.816,-0.15,-0.119,-0.101,-0.3004701889422567,-6.129,-6.855
1621785988328.524,-0.15108580098869365,-0.119,-0.101,-0.284,-6.129,-6.855
1621785988330.804,-0.152,-0.119,-0.101,-0.27296350165901545,-6.12631162219899,-6.85768837780101
1621785988335.792,-0.161,-0.115,-0.101,-0.24881887186946047,-6.120430238019484,-6.863569761980516
1621785988340.781,-0.166,-0.12,-0.098,-0.22466951502204444,-6.114547702377164,-6.869452297622836
1621785988344.638,-0.1698661837403945,-0.1161338162596055,-0.0964535265038422,-0.206,-6.11,-6.874
1621785988345.769,-0.171,-0.115,-0.096,-0.20326227670116212,-6.107192078667859,-6.876807921332141
1621785988350.757,-0.168,-0.113,-0.093,-0.1911892301398506,-6.094809466810103,-6.889190533189897
1621785988355.746,-0.176,-0.115,-0.086,-0.17911381990636221,-6.082424430673193,-6.901575569326807
1621785988360.734,-0.175,-0.113,-0.08,-0.1670413642630949,-6.070042424885226,-6.913957575114774
1621785988360.751,-0.17501713083060055,-0.113,-0.07999657383387988,-0.167,-6.07,-6.914
1621785988365.722,-0.18,-0.113,-0.079,-0.15465906508068794,-6.07,-6.895797120994015
1621785988370.711,-0.188,-0.106,-0.07,-0.1422732782786575,-6.07,-6.87752808546102
1621785988375.699,-0.195,-0.101,-0.063,-0.12988991590271992,-6.07,-6.859262625956513
1621785988376.863,-0.197100337722089,-0.10380045029611865,-0.06183314570995057,-0.127,-6.07,-6.855
1621785988380.687,-0.204,-0.113,-0.058,-0.127,-6.065490612925222,-6.864256110311388
1621785988385.676,-0.211,-0.11,-0.056,-0.127,-6.059607364194258,-6.876332252443367
1621785988390.664,-0.213,-0.106,-0.044,-0.127,-6.053725267065687,-6.888406030759906
1621785988392.975,-0.21531714481543132,-0.10692685792617253,-0.043073142073827474,-0.127,-6.051,-6.894
1621785988395.651,-0.218,-0.108,-0.042,-0.127,-6.057476069269579,-6.903797130433465
1621785988400.64,-0.218,-0.101,-0.035,-0.127,-6.069550747693286,-6.922063951638562
1621785988405.628,-0.223,-0.105,-0.031,-0.127,-6.081623062588064,-6.94032719724861
1621785988409.089,-0.227164194448524,-0.10083580555147599,-0.026141773143388652,-0.127,-6.09,-6.953
1621785988410.615,-0.229,-0.099,-0.024,-0.12889399678778146,-6.09,-6.959534288917847
1621785988415.603,-0.23,-0.098,-0.017,-0.1350853965271675,-6.09,-6.980894618018728
1621785988420.592,-0.227,-0.098,-0.012,-0.1412780084244977,-6.09,-7.002259129064518
1621785988425.202,-0.227,-0.09337817594360405,-0.012,-0.147,-6.09,-7.022
1621785988425.579,-0.227,-0.093,-0.012,-0.147,-6.090468245669864,-7.022
1621785988430.567,-0.222,-0.096,-0.002,-0.147,-6.096659999090785,-7.022
1621785988435.555,-0.225,-0.099,0.0,-0.147,-6.102852055583337,-7.022
1621785988440.543,-0.222,-0.091,0.007,-0.147,-6.10904411207589,-7.022
1621785988441.313,-0.222,-0.09038238605766877,0.00808082439907965,-0.147,-6.11,-7.022
1621785988445.53,-0.222,-0.087,0.014,-0.15720630880414527,-6.104765995485054,-7.006559686680909
1621785988450.517,-0.222,-0.091,0.024,-0.16927626016999225,-6.098576276835901,-6.988300016665909
1621785988455.506,-0.23,-0.084,0.031,-0.18135093859370027,-6.092384134054512,-6.970033195460813
1621785988457.427,-0.2315407813570939,-0.084,0.03331117203564085,-0.186,-6.09,-6.963
1621785988460.493,-0.234,-0.084,0.037,-0.20103177320868498,-6.09380551220473,-6.977841497598448
1621785988465.481,-0.234,-0.08,0.052,-0.22548743162775195,-6.099996818133608,-7.001987590721072
1621785988470.469,-0.232,-0.077,0.059,-0.24994309004681892,-6.106188124062486,-7.026133683843695
1621785988473.54,-0.232,-0.07022617124394184,0.06331061829930974,-0.265,-6.11,-7.041
1621785988475.456,-0.232,-0.066,0.066,-0.26725944389726497,-6.11,-7.052653973785893
1621785988480.444,-0.232,-0.079,0.075,-0.27314154102583527,-6.11,-7.08299321160694
1621785988485.431,-0.229,-0.077,0.073,-0.279022198651413,-6.11,-7.1133250246230775
1621785988489.652,-0.22730714250746561,-0.08123214373133598,0.08654285994027512,-0.284,-6.11,-7.139
1621785988490.418,-0.227,-0.082,0.089,-0.2900844319180531,-6.109049307512804,-7.140853850350032
1621785988495.405,-0.222,-0.073,0.096,-0.3297040337000333,-6.10285874473437,-7.152925447767979
1621785988500.393,-0.222,-0.082,0.11,-0.36933139376306934,-6.09666696972452,-7.164999409037185
1621785988505.38,-0.225,-0.075,0.119,-0.4089490559747856,-6.09047671000394,-7.1770704154923175
1621785988505.764,-0.22515401184706516,-0.07369089929994614,0.11907700592353257,-0.412,-6.09,-7.178
1621785988510.367,-0.227,-0.058,0.12,-0.49028808704744875,-6.1011431948717165,-7.206286571597436
1621785988515.355,-0.216,-0.059,0.126,-0.5751244032915575,-6.113218436964856,-7.236939109218483
1621785988520.342,-0.213,-0.061,0.131,-0.6599441102035251,-6.125291314955976,-7.267585645657478
1621785988521.874,-0.21023459994123983,-0.06315086671236901,0.131,-0.686,-6.129,-7.277
1621785988525.328,-0.204,-0.068,0.131,-0.742817844260556,-6.091264375132612,-7.308517823042648
1621785988530.316,-0.192,-0.073,0.126,-0.8248737837592071,-6.036766845503319,-7.354035646085296
1621785988535.303,-0.18,-0.073,0.117,-0.9069136582704374,-5.982279985450577,-7.39954455760662
1621785988537.983,-0.17355147598766338,-0.08428491702158908,0.10947672198560729,-0.951,-5.953,-7.424
1621785988540.29,-0.168,-0.094,0.103,-0.9819333656629335,-5.91504934305242,-7.405669116644188
1621785988545.276,-0.155,-0.101,0.096,-1.0487821692151484,-5.833035764620304,-7.366055010835468
1621785988550.264,-0.141,-0.113,0.079,-1.1156604331156137,-5.750986042705382,-7.3264234470425995
1621785988554.093,-0.13332192686150682,-0.12298149508004112,0.06901850491995888,-1.167,-5.688,-7.296
1621785988555.251,-0.131,-0.126,0.066,-1.1902901700463764,-5.660468718741475,-7.269906383559153
1621785988560.237,-0.129,-0.143,0.051,-1.2905758843320907,-5.541921099693855,-7.15754924070201
1621785988565.225,-0.127,-0.157,0.028,-1.3909008820587434,-5.423327043739201,-7.045148085841593
1621785988570.202,-0.1339873175986681,-0.17596557633924198,0.0070380472039956905,-1.491,-5.305,-6.933
1621785988570.211,-0.134,-0.176,0.007,-1.4912360616485065,-5.304879445951475,-6.932730856077712
1621785988575.198,-0.154,-0.187,-0.007,-1.6215612317577706,-5.238323836513253,-6.784141588494704
1621785988580.185,-0.164,-0.19,-0.024,-1.7518864018670344,-5.17176822707503,-6.635552320911695
1621785988585.171,-0.187,-0.195,-0.045,-1.882179671753527,-5.105228908724445,-6.486999424128995
1621785988586.312,-0.19523733294169482,-0.19339829637244824,-0.04660170362755177,-1.912,-5.09,-6.453
1621785988590.158,-0.223,-0.188,-0.052,-1.9845691685229805,-5.132013729144883,-6.429605991726145
1621785988595.144,-0.264,-0.185,-0.065,-2.0786515736994438,-5.18648249003652,-6.399276795320574
1621785988600.131,-0.309,-0.175,-0.07,-2.172752405631071,-5.2409619190495675,-6.368941658711036
1621785988602.423,-0.333818956232253,-0.16764623519044355,-0.07229805150298639,-2.216,-5.266,-6.355
1621785988605.118,-0.363,-0.159,-0.075,-2.178362470827145,-5.371050525869124,-6.509230230654988
1621785988610.104,-0.403,-0.152,-0.072,-2.1087238353590156,-5.565419695086836,-6.794593883551056
1621785988615.091,-0.44,-0.145,-0.063,-2.039071560634074,-5.759826932985785,-7.080013427090595
1621785988618.533,-0.4531137765592872,-0.145,-0.049886223440712814,-1.991,-5.894,-7.277
1621785988620.078,-0.459,-0.145,-0.044,-1.952088839941263,-5.981308125305922,-7.378536833088595
1621785988625.014,-0.482,-0.152,-0.026,-1.8277674375917767,-6.260258137542829,-7.7029476566324036
1621785988629.951,-0.494,-0.166,0.0,-1.7034214390602056,-6.539263338228096,-8.027422662750856
1621785988634.494,-0.4811148481551093,-0.18532772776733603,0.01748699178949451,-1.589,-6.796,-8.326
1621785988634.887,-0.48,-0.187,0.019,-1.5781014625928478,-6.812446435408531,-8.341706715675015
1621785988639.822,-0.461,-0.213,0.04,-1.4412672792710008,-7.018936028792404,-8.538908921050616
1621785988644.758,-0.419,-0.241,0.075,-1.3044060188375832,-7.225466482885366,-8.736150149322306
1621785988649.693,-0.365,-0.258,0.106,-1.1675718355157363,-7.431956076269239,-8.93335235469791
1621785988650.435,-0.3547742589935177,-0.26070681379583355,0.11051135632638923,-1.147,-7.463,-8.963
1621785988654.627,-0.297,-0.276,0.136,-1.085195784701161,-7.499030542535919,-8.947483197010078
1621785988659.562,-0.216,-0.291,0.173,-1.012434549520571,-7.541448794534816,-8.92921548264559
1621785988664.496,-0.143,-0.298,0.204,-0.9396877125264222,-7.583858652697362,-8.910951383144932
1621785988666.374,-0.1178739420935412,-0.30028418708240534,0.21351744617668894,-0.912,-7.6,-8.904
1621785988669.429,-0.077,-0.304,0.229,-0.9928922761114005,-7.489204418027513,-8.819465654585006
1621785988674.363,-0.019,-0.295,0.248,-1.123543031342872,-7.310256227212843,-8.682932519378657
1621785988679.296,0.04,-0.29,0.253,-1.254161463280125,-7.131352308587886,-8.546433162780723
1621785988682.311,0.07239384341284767,-0.2857215678511333,0.25422240918539046,-1.334,-7.022,-8.463
1621785988684.229,0.093,-0.283,0.255,-1.3411027475979589,-6.964094549243759,-8.405214934796266
1621785988689.161,0.129,-0.281,0.257,-1.3593668265473435,-6.8151958717072505,-8.256625817919916
1621785988694.093,0.161,-0.278,0.262,-1.3776318096142943,-6.666289823313974,-8.108029345510825
1621785988698.243,0.17530453937923865,-0.27210989554972526,0.2678901044502748,-1.393,-6.541,-7.983
1621785988699.025,0.178,-0.271,0.269,-1.3939327315084449,-6.53280178095209,-7.952661680409527
1621785988703.956,0.192,-0.262,0.283,-1.3998145020384392,-6.48110411366214,-7.761349354749717
1621785988708.887,0.195,-0.241,0.298,-1.405695981362842,-6.429409005916072,-7.570046500934923
1621785988713.818,0.194,-0.213,0.298,-1.4115777518928363,-6.377711338626122,-7.378734175275113
1621785988714.172,0.19421542118555934,-0.21120482345367206,0.29828722824741244,-1.412,-6.374,-7.365
1621785988718.748,0.197,-0.188,0.302,-1.4683198013123198,-6.34584009934384,-7.283106411357086
1621785988723.679,0.197,-0.166,0.3,-1.5290086465934876,-6.315495676703256,-7.1948598761268165
1621785988728.608,0.188,-0.133,0.305,-1.5896734531182928,-6.285163273440854,-7.106648295210646
1621785988730.097,0.18769791976225855,-0.1254479940564636,0.3071145616641902,-1.608,-6.276,-7.08
1621785988733.537,0.187,-0.108,0.312,-1.6525144995322731,-6.250717492984097,-7.054717492984097
1621785988738.467,0.18,-0.094,0.316,-1.7163056633286817,-6.214486589274486,-7.018486589274486
1621785988743.396,0.162,-0.075,0.311,-1.7800841908325538,-6.178262862488307,-6.982262862488307
1621785988746.017,0.1556174386920981,-0.06383051771117165,0.31259564032697545,-1.814,-6.159,-6.963
1621785988748.324,0.15,-0.054,0.314,-1.8310999018465126,-6.159,-6.9501026164039015
1621785988753.253,0.126,-0.033,0.318,-1.8676360345991043,-6.159,-6.922545702717625
1621785988758.18,0.103,-0.002,0.326,-1.9041576897122876,-6.159,-6.894999708606834
1621785988761.936,0.08699063475546306,0.008672910163024627,0.330574104355582,-1.932,-6.159,-6.874
1621785988763.107,0.082,0.012,0.332,-1.9528956799214532,-6.159,-6.875471526755032
1621785988768.034,0.059,0.028,0.33,-2.040822226313206,-6.159,-6.88166353706431
1621785988772.961,0.033,0.035,0.321,-2.1287487727049585,-6.159,-6.887855547373588
1621785988777.85,0.024069124423963133,0.03698463901689708,0.321,-2.216,-6.159,-6.894
1621785988777.888,0.024,0.037,0.321,-2.2159072440195793,-6.159092755980421,-6.894397185864879
1621785988782.813,0.007,0.037,0.318,-2.2038352027742403,-6.17116479722576,-6.946090285556459
1621785988787.74,-0.01,0.044,0.318,-2.19175837412346,-6.183241625876541,-6.997803885163647
1621785988792.665,-0.017,0.038,0.318,-2.179686332878121,-6.19531366712188,-7.049496984855227
1621785988793.761,-0.0190027264164973,0.03644232389827988,0.318,-2.177,-6.198,-7.061
1621785988797.59,-0.026,0.031,0.318,-2.1485969858346508,-6.181391457818567,-7.0939763808529905
1621785988802.515,-0.024,0.021,0.316,-2.1120664067895456,-6.1600303565125305,-7.136389002286714
1621785988807.44,-0.023,0.007,0.314,-2.075534016789699,-6.138668196258383,-7.178803726269587
1621785988809.669,-0.018925925925925926,0.011074074074074075,0.31264197530864196,-2.059,-6.129,-7.198
1621785988812.364,-0.014,0.016,0.311,-2.047477566119699,-6.1157830905490655,-7.158179824090135
1621785988817.287,-0.017,0.009,0.312,-2.0264294748798872,-6.091639691773988,-7.085440097011374
1621785988822.211,-0.021,0.01,0.318,-2.005378252260273,-6.067492701122077,-7.012689548252414
1621785988825.574,-0.029197371683610217,0.014781800148772627,0.3152675427721299,-1.991,-6.051,-6.963
1621785988827.134,-0.033,0.017,0.314,-1.9948258186339982,-6.04707608345231,-6.9562312439552345
1621785988832.057,-0.038,0.023,0.319,-2.0068984018790585,-6.034693946790709,-6.934872058213974
1621785988836.98,-0.042,0.031,0.318,-2.01897158384378,-6.022311196057662,-6.913511813199466
1621785988841.477,-0.04839551609543177,0.03282729031298051,0.31891364515649023,-2.03,-6.011,-6.894
1621785988841.902,-0.049,0.033,0.319,-2.02895748502994,-6.012577138031629,-6.894
1621785988846.823,-0.063,0.042,0.323,-2.0168880239520957,-6.030836066328881,-6.894
1621785988851.746,-0.07,0.04,0.323,-2.0048131736526944,-6.049103147551052,-6.894
1621785988856.667,-0.075,0.038,0.321,-1.9927437125748504,-6.067362075848304,-6.894
1621785988857.378,-0.07398848749503771,0.03684398570861453,0.3223005160778087,-1.991,-6.07,-6.894
1621785988861.587,-0.068,0.03,0.33,-1.9806734756565811,-6.098596528951006,-6.912270004607588
1621785988866.508,-0.056,0.033,0.323,-1.9685997081861466,-6.132031577330671,-6.933631285516817
1621785988871.428,-0.04,0.035,0.328,-1.956528935647366,-6.165458332053448,-6.954987267700814
1621785988873.274,-0.031370434696308055,0.03875198491464867,0.3272496030170703,-1.952,-6.178,-6.963
1621785988876.348,-0.017,0.045,0.326,-1.9442633567851546,-6.181868321607423,-6.949654290454392
1621785988881.268,0.019,0.042,0.321,-1.931880180650711,-6.188059909674645,-6.928293311622477
1621785988886.187,0.049,0.038,0.321,-1.9195000768072752,-6.194249961596363,-6.90693763249255
1621785988889.167,0.07202561556791104,0.039211874503574266,0.321,-1.912,-6.198,-6.894
1621785988891.105,0.087,0.04,0.321,-1.9191958515787046,-6.184827932703389,-6.830578935238535
1621785988896.025,0.124,0.042,0.319,-1.9374637781362833,-6.151388338326804,-6.669573480832757
1621785988900.943,0.157,0.035,0.323,-1.9557253591457326,-6.117960359529846,-6.508623953291849
1621785988905.057,0.16871300893743796,0.0567527308838133,0.31547020854021846,-1.971,-6.09,-6.374
1621785988905.86,0.171,0.061,0.314,-1.9720112186875673,-6.080090056861841,-6.3383039803288765
1621785988910.778,0.195,0.056,0.319,-1.9782027047794684,-6.019413493161211,-6.11974452128477
1621785988915.696,0.202,0.056,0.319,-1.9843941908713694,-5.9587369294605805,-5.901185062240664
1621785988920.612,0.204,0.07,0.311,-1.9905832180728447,-5.898084462886123,-5.682712402028585
1621785988920.943,0.20386534260178749,0.07127924528301888,0.311,-1.991,-5.894,-5.668
1621785988925.529,0.202,0.089,0.311,-1.991,-5.854435889551688,-5.478265543324519
1621785988930.446,0.192,0.094,0.309,-1.991,-5.812015681692393,-5.274834327532132
1621785988935.361,0.178,0.113,0.305,-1.991,-5.769612323965315,-5.071483918578194
1621785988936.823,0.1744305797029457,0.1168668719884755,0.30410764492573644,-1.991,-5.757,-5.011
1621785988940.276,0.166,0.126,0.302,-2.0144875753475215,-5.746126122524295,-4.906610776233239
1621785988945.192,0.152,0.131,0.295,-2.0479278509041703,-5.730644513470291,-4.7579873293147985
1621785988950.107,0.127,0.152,0.291,-2.0813614835773158,-5.715165979825317,-4.609393406323041
1621785988952.7,0.11591886923688394,0.16044276629570747,0.28572327106518286,-2.099,-5.707,-4.531
1621785988955.021,0.106,0.168,0.281,-2.0960762086357487,-5.664020266945504,-4.520912919793332
1621785988959.937,0.084,0.175,0.276,-2.089883565014147,-5.572988405707959,-4.499548299298806
1621785988964.85,0.052,0.194,0.271,-2.083694611883381,-5.482010794685693,-4.478196410997662
1621785988968.577,0.02544953535755106,0.20537877056104953,0.271,-2.079,-5.413,-4.462
1621785988969.763,0.017,0.209,0.271,-2.06069133029781,-5.397605771597342,-4.46715631922225
1621785988974.677,-0.01,0.234,0.274,-1.9848335897120355,-5.333823344819099,-4.488520335958651
1621785988979.59,-0.054,0.255,0.284,-1.9089909241939456,-5.270053593403889,-4.509880107063745
1621785988984.448,-0.10048372185496297,0.2876375068343357,0.28993409215169735,-1.834,-5.207,-4.531
1621785988984.502,-0.101,0.288,0.29,-1.834666451265482,-5.207499838449111,-4.5311326102007845
1621785988989.415,-0.143,0.314,0.302,-1.8953527194399569,-5.253014539579968,-4.543207939072237
1621785988994.327,-0.188,0.337,0.309,-1.9560239095315024,-5.298517932148627,-4.555280267712901
1621785988999.239,-0.234,0.356,0.318,-2.0166981152396337,-5.344023586429725,-4.567353196399723
1621785989000.316,-0.24277156350981857,0.35994720357941834,0.31712284364901816,-2.03,-5.354,-4.57
1621785989004.15,-0.274,0.374,0.314,-2.0418422259499223,-5.460821711629912,-4.617368903799689
