time,gyro_x,gyro_y,gyro_z,acc_x,acc_y,acc_z
1621785775395.182,,,,-1.657,-4.933,-9.748
1621785775412.353,,,,-1.314,-5.551,-9.591
1621785775427.692,1.628,0.112,0.347,-0.6873599670284379,-6.329552768237395,-9.328605275449926
1621785775430.124,1.619625608353243,0.1309525705689762,0.347,-0.588,-6.453,-9.287
1621785775433.21,1.609,0.155,0.347,-0.5576423356668168,-6.557871931332815,-9.176953466792211
1621785775438.74,1.59,0.201,0.356,-0.5032411129760783,-6.74580342790082,-8.979749034538283
1621785775444.282,1.562,0.236,0.375,-0.44872220630176984,-6.93414146913934,-8.782117997843915
1621785775448.015,1.5431740908491272,0.2595323864385911,0.3904641396596456,-0.412,-7.061,-8.649
1621785775449.834,1.534,0.271,0.398,-0.5150120089999729,-7.0570613055382365,-8.559924909864728
1621785775455.4,1.517,0.284,0.424,-0.8302002765051912,-7.045009989427743,-8.287379760904335
1621785775460.975,1.501,0.283,0.443,-1.1459139038737836,-7.032938586028355,-8.014380330179728
1621785775466.027,1.4856330159007514,0.26853695614188366,0.45475122313471955,-1.432,-7.022,-7.767
1621785775466.564,1.484,0.267,0.456,-1.4569546611025106,-7.007761338089789,-7.73041167126607
1621785775472.163,1.466,0.244,0.473,-1.7172139597496128,-6.859262260214041,-7.348821525206973
1621785775477.774,1.443,0.215,0.492,-1.9780179713266473,-6.710452379349801,-6.966432725314666
1621785775483.397,1.41,0.182,0.499,-2.239389392205694,-6.561318745372552,-6.583211994346099
1621785775484.163,1.4041528794904017,0.17737669541101528,0.49872804090653033,-2.275,-6.541,-6.531
1621785775489.031,1.367,0.148,0.497,-2.301128877834831,-6.410355610825845,-6.206788617886179
1621785775494.678,1.307,0.122,0.504,-2.3314393720581945,-6.258803139709029,-5.830691056910569
1621785775500.335,1.234,0.094,0.518,-2.3618035943517333,-6.106982028241335,-5.453926829268293
1621785775502.421,1.201993110575267,0.08517051326214262,0.5264615914571134,-2.373,-6.051,-5.315
1621785775506.005,1.147,0.07,0.541,-2.384506383430978,-6.02038131866672,-5.144744529911124
1621785775511.686,1.061,0.052,0.569,-2.4027457255589653,-5.971846120122754,-4.874864094695309
1621785775517.379,0.962,0.03,0.585,-2.421022690739043,-5.923210805999496,-4.604426965844327
1621785775520.798,0.9062533384694401,0.01381548536209553,0.5933919705529874,-2.432,-5.894,-4.442
1621785775523.083,0.869,0.003,0.599,-2.4599144538879796,-5.903634192049834,-4.442
1621785775528.799,0.775,0.002,0.611,-2.529746819405585,-5.927735627936441,-4.442
1621785775534.527,0.686,0.002,0.623,-2.599725333896426,-5.951887504619121,-4.442
1621785775539.297,0.6203386225379675,0.002,0.6379608201812226,-2.658,-5.972,-4.442
1621785775540.266,0.607,0.002,0.641,-2.682980921285551,-5.982720978718383,-4.462921521576649
1621785775546.017,0.545,0.003,0.644,-2.8312425947051647,-6.0463499468943,-4.587090673065576
1621785775551.78,0.485,0.0,0.654,-2.9798126745604026,-6.110111272832173,-4.7115181149443375
1621785775557.554,0.433,-0.003,0.658,-3.1286659848157035,-6.173994151816739,-4.836182762283152
1621785775557.916,0.4302467510548523,-0.002812278481012658,0.658125147679325,-3.138,-6.178,-4.844
1621785775563.34,0.389,0.0,0.66,-3.143788465797324,-6.217650990711671,-4.943561611713977
1621785775569.138,0.342,0.012,0.661,-3.1499758216849263,-6.260034378541746,-5.0499841329807325
1621785775574.948,0.316,0.028,0.661,-3.156176204681943,-6.3025070020713105,-5.156630720529422
1621785775576.657,0.3077781786148748,0.03416636603884391,0.6627618188682411,-3.158,-6.315,-5.188
1621785775580.768,0.288,0.049,0.667,-3.0684450706461344,-6.374034965867598,-5.224980393713287
1621785775586.601,0.269,0.07,0.672,-2.941380139704715,-6.45779667407525,-5.277449992062232
1621785775592.18,0.246,0.089,0.682,-2.819851563740276,-6.537908795046833,-5.327633433878393
1621785775595.111,0.2370732155353394,0.09740167949615115,0.6888263645906229,-2.756,-6.58,-5.354
1621785775597.762,0.229,0.105,0.695,-2.741606481982469,-6.605996456011254,-5.3468032409912345
1621785775603.346,0.213,0.124,0.709,-2.711287036035061,-6.660757087977491,-5.331643518017531
1621785775608.932,0.197,0.152,0.728,-2.6809569851747646,-6.715536873714965,-5.3164784925873825
1621785775613.16,0.17733162975582056,0.16637303979382345,0.7408600882365789,-2.658,-6.757,-5.305
1621785775614.521,0.171,0.171,0.745,-2.6749427710843374,-6.759936746987951,-5.31019578313253
1621785775620.113,0.154,0.194,0.761,-2.744552487978821,-6.772002431249662,-5.331542762980171
1621785775625.707,0.141,0.223,0.771,-2.814186517369928,-6.784072329677454,-5.352897198660111
1621785775631.235,0.1271698006195192,0.24374529907072118,0.7798908424588805,-2.883,-6.796,-5.374
1621785775631.303,0.127,0.244,0.78,-2.8828912729773832,-6.79563257764771,-5.3749560479574905
1621785775636.902,0.122,0.265,0.775,-2.87392168471591,-6.765321555246868,-5.453826565429068
1621785775642.504,0.133,0.283,0.768,-2.8649477943060595,-6.734995994551512,-5.532734912136374
1621785775648.108,0.155,0.304,0.763,-2.855970383956628,-6.704658538887915,-5.611674210036548
1621785775649.338,0.1593871641921017,0.30772908956328643,0.7614644925327644,-2.854,-6.698,-5.629
1621785775653.715,0.175,0.321,0.756,-2.856414582575788,-6.6388427268931895,-5.595920218711702
1621785775659.324,0.192,0.333,0.756,-2.8595085989791658,-6.563039325010438,-5.553532193985428
1621785775664.936,0.206,0.353,0.745,-2.862604366153556,-6.4871930292378766,-5.511120183696281
1621785775667.466,0.2105058480803513,0.3624622809687378,0.7404941519196486,-2.864,-6.453,-5.492
1621785775670.551,0.216,0.374,0.735,-2.890506595667433,-6.361246399612732,-5.440346121263463
1621785775676.167,0.23,0.384,0.721,-2.9387600952035178,-6.194215055064746,-5.3463136606290425
1621785775681.787,0.227,0.403,0.7,-2.987049255718262,-6.0270602686675545,-5.252211706805438
1621785775685.622,0.2290461117624072,0.4057281490165429,0.6904514784420998,-3.02,-5.913,-5.188
1621785775687.41,0.23,0.407,0.686,-3.0181218007559396,-5.875238309935205,-5.150139457343412
1621785775693.035,0.222,0.419,0.665,-3.01221251349892,-5.756430534557236,-5.031020666846652
1621785775698.662,0.202,0.447,0.642,-3.006300917926566,-5.637576349892009,-4.911855345572354
1621785775703.708,0.17733651551312649,0.45613462388402726,0.6310384513391674,-3.001,-5.531,-4.805
1621785775704.186,0.175,0.457,0.63,-3.000464361432929,-5.524438427553379,-4.802911009588422
1621785775709.71,0.138,0.469,0.616,-2.994274699421412,-5.448615067912295,-4.778771327743506
1621785775715.234,0.094,0.485,0.606,-2.9880850374098946,-5.372791708271211,-4.7546316458985896
1621785775720.757,0.047,0.503,0.59,-2.9818961960907684,-5.296978402111915,-4.7304951647539975
1621785775721.557,0.03990407567854301,0.5047377773848466,0.5882622226151534,-2.981,-5.286,-4.727
1621785775726.28,-0.002,0.515,0.578,-3.001906869853082,-5.303995786708982,-4.791837760936773
1621785775731.802,-0.052,0.529,0.56,-3.026349730513529,-5.325035211074936,-4.8676415693141095
1621785775737.325,-0.101,0.545,0.548,-3.0507969139011246,-5.346078356269322,-4.9434587836174115
1621785775739.404,-0.12095878659237641,0.5427405147253914,0.5434810294507827,-3.06,-5.354,-4.972
1621785775742.846,-0.154,0.539,0.536,-3.0789051052941256,-5.439265883061261,-5.1062648294358315
1621785775748.368,-0.197,0.541,0.522,-3.1092353416072576,-5.576061438677632,-5.321671405700524
1621785775753.889,-0.222,0.527,0.511,-3.139560214009113,-5.71283280195947,-5.537039887248396
1621785775757.246,-0.23051304501636155,0.5239596267798708,0.4982304324754577,-3.158,-5.796,-5.668
1621785775759.41,-0.236,0.522,0.49,-3.1603049137695045,-5.842340897892144,-5.785793224746784
1621785775764.93,-0.227,0.511,0.482,-3.1661848754448396,-5.960559074733096,-6.086290213523132
1621785775770.45,-0.211,0.496,0.463,-3.172064837120175,-6.078777251574048,-6.38678720229948
1621785775775.083,-0.18749907120743034,0.4766956656346749,0.4478922600619195,-3.177,-6.178,-6.639
1621785775775.97,-0.183,0.473,0.445,-3.1691908406352685,-6.1926235213581595,-6.669739238773275
1621785775781.49,-0.154,0.447,0.424,-3.1205904846659367,-6.283633105147865,-6.861045098576123
1621785775787.009,-0.106,0.429,0.41,-3.071998726725082,-6.374626588170866,-7.052317113910186
1621785775792.528,-0.049,0.41,0.393,-3.023406968784228,-6.465620071193867,-7.243589129244249
1621785775792.915,-0.046264944029025264,0.4091584443166231,0.39208831467634175,-3.02,-6.472,-7.257
1621785775798.046,-0.01,0.398,0.38,-3.0315093099671415,-6.49760821467689,-7.163774589266155
1621785775803.564,0.031,0.379,0.358,-3.0438871851040528,-6.525148986856517,-7.063513800657174
1621785775809.081,0.052,0.36,0.344,-3.05626286966046,-6.552684884994523,-6.9632707557502735
1621785775810.747,0.05834032386514468,0.35456543668701884,0.33977311742323685,-3.06,-6.561,-6.933
1621785775814.599,0.073,0.342,0.33,-3.034502471959353,-6.58628144729454,-6.820854092770374
1621785775820.115,0.089,0.33,0.318,-2.9979917829605993,-6.62248272367466,-6.6602689436995846
1621785775825.632,0.112,0.332,0.307,-2.9614730138731016,-6.658692011668196,-6.499648255933387
1621785775828.574,0.12213366972070996,0.34000026556898155,0.30593329792413576,-2.942,-6.678,-6.414
1621785775831.148,0.131,0.347,0.305,-2.8754266166258033,-6.689408453983864,-6.361578875998192
1621785775836.663,0.148,0.358,0.312,-2.732782897530374,-6.713852822332105,-6.249258550549947
1621785775842.179,0.168,0.379,0.319,-2.5901202350459545,-6.738300436944402,-6.136923308723821
1621785775846.398,0.17182492253209383,0.39506467463479417,0.3243548915449314,-2.481,-6.757,-6.051
1621785775847.694,0.173,0.4,0.326,-2.46747054954992,-6.749871579870388,-6.023140970309782
1621785775853.208,0.176,0.41,0.332,-2.4099149574581773,-6.719546590488717,-5.904625960787538
1621785775858.722,0.176,0.422,0.344,-2.352359365366435,-6.689221601107047,-5.786110951265294
1621785775864.217,0.16902664424183414,0.43594671151633174,0.35794671151633173,-2.295,-6.659,-5.668
1621785775864.238,0.169,0.436,0.358,-2.295183683186635,-6.658735589807773,-5.667863115077476
1621785775869.751,0.159,0.452,0.367,-2.3434133347844424,-6.58930946712558,-5.631921272803951
1621785775875.264,0.148,0.45,0.375,-2.3916429863822493,-6.519883344443386,-5.595979430530426
1621785775880.884,0.134,0.464,0.38,-2.440810276572299,-6.449107499965989,-5.559338838477968
1621785775882.163,0.13058741532047943,0.4660475508077124,0.38,-2.452,-6.433,-5.551
1621785775886.506,0.119,0.473,0.38,-2.4871287345513164,-6.40480142396561,-5.604768471252015
1621785775892.13,0.117,0.476,0.387,-2.532616980118216,-6.368287049973133,-5.674393336915637
1621785775897.756,0.11,0.487,0.387,-2.5781249731327245,-6.331756824288018,-5.744048428264374
1621785775900.337,0.10449618188129121,0.4902105605692468,0.3856240454703228,-2.599,-6.315,-5.776
1621785775903.383,0.098,0.494,0.384,-2.6383469450744106,-6.292061568190663,-5.8285742159717655
1621785775909.013,0.093,0.503,0.377,-2.7110679960815363,-6.2496667427099135,-5.92574191816852
1621785775914.644,0.091,0.506,0.361,-2.783804814879427,-6.207262724942632,-6.022930688817617
1621785775918.53,0.09306956182551034,0.5087594157673472,0.3506521908724483,-2.834,-6.178,-6.09
1621785775920.277,0.094,0.51,0.346,-2.817118116991046,-6.179918395796472,-6.113500348506783
1621785775925.912,0.103,0.515,0.326,-2.7626672028309476,-6.186105999678301,-6.189298496059193
1621785775931.549,0.122,0.524,0.319,-2.7081974156881667,-6.192295748217254,-6.265122915661358
1621785775936.744,0.13028977100558417,0.5332108566728714,0.3162367429981386,-2.658,-6.198,-6.335
1621785775937.189,0.131,0.534,0.316,-2.6594156948331036,-6.191531739124613,-6.340516328142782
1621785775942.83,0.138,0.538,0.307,-2.677359219141216,-6.109548395303065,-6.410434198722669
1621785775948.473,0.141,0.541,0.293,-2.695308179468984,-6.0275402144951595,-6.480373251034316
1621785775954.117,0.145,0.536,0.276,-2.7132610226679343,-5.945514292982715,-6.550327433154364
1621785775954.978,0.145304971897968,0.53523757025508,0.274932598357112,-2.716,-5.933,-6.561
1621785775959.764,0.147,0.531,0.269,-2.795704044511021,-5.817376698587631,-6.596919256901348
1621785775965.412,0.147,0.517,0.241,-2.8897688850845284,-5.6809207949925105,-6.639310319922962
1621785775971.062,0.141,0.51,0.22,-2.9838621870318853,-5.544423603680719,-6.681714209287396
1621785775973.232,0.13524128547362965,0.5057769426806618,0.21193779966308152,-3.02,-5.492,-6.698
1621785775976.714,0.126,0.499,0.199,-3.0125679795847473,-5.458270061192315,-6.748499625898512
1621785775982.368,0.106,0.494,0.178,-3.0005010421398604,-5.403504729711675,-6.830492918793256
1621785775988.024,0.101,0.492,0.152,-2.9884294150656014,-5.3487181145284985,-6.912518077118349
1621785775991.505,0.101,0.49876755124056094,0.1390801294498382,-2.981,-5.315,-6.963
1621785775993.682,0.101,0.503,0.131,-2.8607975308641973,-5.338326419753087,-7.041191111111111
1621785775999.341,0.105,0.506,0.119,-2.548327727727728,-5.398964124124125,-7.244451171171171
1621785776005.003,0.084,0.508,0.133,-2.2357096429763095,-5.459630603937271,-7.447807687687687
1621785776009.797,0.05437521551724138,0.5181570689655173,0.16347120689655173,-1.971,-5.511,-7.62
1621785776010.667,0.049,0.52,0.169,-1.943544807359019,-5.514752526329823,-7.652585228636182
1621785776016.333,0.012,0.513,0.223,-1.7647123316891082,-5.539195027329689,-7.8648327689641375
1621785776022.0,-0.033,0.475,0.269,-1.585849033462205,-5.563641741101186,-8.07711689108119
1621785776027.669,-0.068,0.4,0.293,-1.4069240901213171,-5.588096880415945,-8.289474176776428
1621785776028.11,-0.07087825562873994,0.39292104696715313,0.29222209307331354,-1.393,-5.59,-8.306
1621785776033.34,-0.105,0.309,0.283,-1.709107661779003,-5.606832447694008,-8.25293499540533
1621785776039.012,-0.127,0.195,0.267,-2.0519240747399685,-5.625087112283085,-8.195386391785528
1621785776044.687,-0.138,0.079,0.244,-2.394932318510528,-5.64335199168964,-8.137805585520795
1621785776046.442,-0.1352179073667914,0.05086995226422397,0.235962843504064,-2.501,-5.649,-8.12
1621785776050.364,-0.129,-0.012,0.218,-2.4923476686100527,-5.627801788094629,-8.052079198588913
1621785776056.042,-0.11,-0.073,0.19,-2.479821850300933,-5.5971135332372866,-7.953751524862325
1621785776061.58,-0.091,-0.12,0.175,-2.467604639890129,-5.567181367730816,-7.857846423137514
1621785776064.574,-0.08235152289857628,-0.1286484771014237,0.1717568210869661,-2.461,-5.551,-7.806
1621785776067.119,-0.075,-0.136,0.169,-2.3369894130808477,-5.517437501705367,-7.719533902698573
1621785776072.656,-0.063,-0.138,0.155,-2.0671735927310433,-5.444413953996016,-7.531405440803296
1621785776078.193,-0.049,-0.094,0.145,-1.7973577723812382,-5.3713904062866655,-7.34327697890802
1621785776082.469,-0.04204846747519295,-0.055380374862183016,0.14345521499448732,-1.589,-5.315,-7.198
1621785776083.729,-0.04,-0.044,0.143,-1.4970933244180016,-5.324648440271827,-7.15447637891979
1621785776089.264,-0.028,0.028,0.145,-1.0933699680685571,-5.367031658524604,-6.963287846947409
1621785776094.8,-0.012,0.098,0.15,-0.6895575721186649,-5.409424224229688,-6.772057149095276
1621785776100.334,-0.005,0.188,0.162,-0.28590544744957835,-5.451799964520619,-6.5809023498266965
1621785776100.36,-0.005042484669343098,0.18845316980632637,0.16206608726342261,-0.284,-5.452,-6.58
1621785776105.868,-0.014,0.284,0.176,0.05105712764650483,-5.51266751300217,-6.4229419714157014
1621785776111.402,-0.026,0.368,0.192,0.38771825218067907,-5.5736254555878615,-6.265132069290307
1621785776116.936,-0.061,0.459,0.216,0.7243645248918191,-5.634580709010743,-6.10732912895696
1621785776118.245,-0.07164874884151992,0.4810074142724745,0.2230991658943466,0.804,-5.649,-6.07
1621785776122.468,-0.106,0.552,0.246,0.9060583479020979,-5.7971263521634615,-6.0794498470279725
1621785776128.0,-0.166,0.637,0.284,1.0397543706293706,-5.991171274038462,-6.091829108391608
1621785776133.532,-0.225,0.691,0.325,1.1734503933566434,-6.185216195913461,-6.104208369755245
1621785776136.12,-0.2498003972632973,0.7050379607150739,0.33950589273890974,1.236,-6.276,-6.11
1621785776139.063,-0.278,0.721,0.356,1.1293026623137132,-6.427813187263513,-6.269716693758794
1621785776144.595,-0.318,0.735,0.387,0.9287339735271217,-6.713190241370361,-6.569950687775759
1621785776150.125,-0.328,0.74,0.394,0.728236097640936,-6.998466540084965,-6.870078681000451
1621785776153.993,-0.31471065295130457,0.7316067281797713,0.40029495386517155,0.588,-7.198,-7.08
1621785776155.655,-0.309,0.728,0.403,0.5081207152682256,-7.256809133425035,-7.200333975240715
1621785776161.185,-0.265,0.714,0.398,0.24235313617606596,-7.452473892709766,-7.600698968363137
1621785776166.713,-0.195,0.702,0.38,-0.02330884456671256,-7.64806090784044,-8.000904883081155
1621785776171.742,-0.11214597550503909,0.685243006281918,0.366035838568265,-0.265,-7.826,-8.365
1621785776172.115,-0.106,0.684,0.365,-0.2851283422459893,-7.82766844919786,-8.374433155080213
1621785776177.513,-0.009,0.668,0.333,-0.5763833468656382,-7.851810734384187,-8.51092992132598
1621785776182.909,0.094,0.646,0.297,-0.8675329674944704,-7.875944284234398,-8.647377299325251
1621785776188.303,0.19,0.621,0.251,-1.1585772041324858,-7.900069098748495,-8.78377528907803
1621785776189.182,0.20597681369441173,0.618554569332488,0.24252250701929173,-1.206,-7.904,-8.806
1621785776193.694,0.288,0.606,0.199,-1.3941264651449723,-7.794648253042454,-8.67643631877068
1621785776199.083,0.372,0.581,0.15,-1.6188053670573719,-7.664049772867478,-8.521698783018339
1621785776204.471,0.445,0.543,0.101,-1.843443553362122,-7.533474959340475,-8.366989288318097
1621785776206.595,0.4706427696911985,0.5299813630798531,0.0796967759488505,-1.932,-7.482,-8.306
1621785776209.855,0.51,0.51,0.047,-1.924688013366844,-7.364445753359262,-8.109326308251779
1621785776215.236,0.559,0.468,0.005,-1.912618553516519,-7.170405975765575,-7.784688785610985
1621785776220.615,0.6,0.421,-0.035,-1.900554021987897,-6.976445430420803,-7.460183822187275
1621785776223.983,0.6144063294587723,0.38592371957864147,-0.05692267526334908,-1.893,-6.855,-7.257
1621785776225.992,0.623,0.365,-0.07,-1.8260016030373338,-6.770991647331787,-7.11062180974478
1621785776231.367,0.632,0.325,-0.099,-1.646753005695001,-6.5462343387471,-6.718999226604795
1621785776236.739,0.614,0.271,-0.12,-1.4676021092596498,-6.321599535962877,-6.327590100541377
1621785776241.345,0.595984175344459,0.233252557864581,-0.1260052748851803,-1.314,-6.129,-5.992
1621785776242.108,0.593,0.227,-0.127,-1.2751399419783687,-6.094056754168544,-5.960049374718341
1621785776247.475,0.55,0.199,-0.134,-1.0017640970031547,-5.848235212933754,-5.735280559936909
1621785776252.84,0.496,0.176,-0.133,-0.7285001689950429,-5.602514308246958,-5.510603762956286
1621785776258.203,0.422,0.15,-0.12,-0.4553481579540334,-5.356894040108156,-5.286018983776476
1621785776258.681,0.4137952174903211,0.14768125711682986,-0.11768125711682988,-0.431,-5.335,-5.266
1621785776263.563,0.33,0.124,-0.094,-0.21806193055202955,-5.265900891371189,-5.166440876138896
1621785776268.92,0.215,0.101,-0.068,0.015587472849849071,-5.1900808862937575,-5.0571981749457
1621785776274.275,0.072,0.093,-0.028,0.24915168824574768,-5.114288525006347,-4.947995303376492
1621785776275.991,0.024548197474167623,0.091708794489093,-0.012182732491389209,0.324,-5.09,-4.913
1621785776279.591,-0.075,0.089,0.021,0.3425193092621664,-5.203430769230769,-4.983289196517768
1621785776284.885,-0.22,0.087,0.068,0.3697519623233909,-5.370230769230769,-5.08664949336378
1621785776290.177,-0.354,0.086,0.12,0.396974568288854,-5.53696923076923,-5.189971656914514
1621785776293.098,-0.41474778434268833,0.08213423190546529,0.14429911373707532,0.412,-5.629,-5.247
1621785776295.466,-0.464,0.079,0.164,0.29908510303602326,-5.710565060706164,-5.4672811503425
1621785776300.751,-0.548,0.079,0.206,0.04709863142991977,-5.8925896863872325,-5.958871465957356
1621785776306.034,-0.595,0.063,0.239,-0.2047947144879661,-6.07454704191514,-6.45028010639667
1621785776310.17,-0.6036181843407482,0.037928918281459556,0.24761818434074828,-0.402,-6.217,-6.835
1621785776311.313,-0.606,0.031,0.25,-0.4737057020057307,-6.25188022922636,-6.92971323782235
1621785776316.589,-0.579,-0.012,0.244,-0.8046821919770774,-6.4128790830945555,-7.366887048710602
1621785776321.862,-0.52,-0.058,0.227,-1.1354595845272206,-6.573781088825215,-7.803797879656161
1621785776327.131,-0.431,-0.089,0.199,-1.465991934097421,-6.734563896848138,-8.240385042979943
1621785776327.211,-0.4294687746302564,-0.08946998006398071,0.19865130511382076,-1.471,-6.737,-8.247
1621785776332.397,-0.33,-0.12,0.176,-1.4947821125608234,-6.865667326931634,-8.336945169300549
1621785776337.66,-0.211,-0.159,0.15,-1.51891689273565,-6.996242676082619,-8.428224145602778
1621785776342.92,-0.098,-0.185,0.119,-1.5430382379537526,-7.126745338672867,-8.519452310209706
1621785776344.22,-0.07327051502345237,-0.1872256536478893,0.1128176287558631,-1.549,-7.159,-8.542
1621785776348.177,0.002,-0.194,0.094,-1.4646100451629607,-7.131491672180191,-8.393268532635274
1621785776353.432,0.082,-0.199,0.068,-1.3525413514368725,-7.094960993009809,-8.195755199493714
1621785776358.682,0.148,-0.187,0.058,-1.240576791416161,-7.058464257975434,-7.998425394816327
1621785776361.194,0.16715131211613624,-0.17503042992741485,0.046987995533221666,-1.187,-7.041,-7.904
1621785776363.929,0.188,-0.162,0.035,-1.1251773826335054,-6.995157641430589,-7.786811435488055
1621785776369.173,0.202,-0.136,0.023,-1.006631603216231,-6.907254243638145,-7.562100636905963
1621785776374.414,0.201,-0.099,0.016,-0.8881575693824031,-6.819404046226116,-7.337525836479437
1621785776378.137,0.201,-0.07554546725704964,0.00960330925192263,-0.804,-6.757,-7.178
1621785776379.652,0.201,-0.066,0.007,-0.7704501644999059,-6.737571677029436,-7.140132759395336
1621785776384.866,0.197,-0.042,0.002,-0.6549989419829848,-6.670715205008913,-7.009824543096077
1621785776390.076,0.185,-0.005,0.002,-0.539634215980405,-6.603908822122701,-6.879613954229894
1621785776394.982,0.18782656601650413,0.012901584771192798,0.00011562265566391608,-0.431,-6.541,-6.757
1621785776395.283,0.188,0.014,0.0,-0.4283666477792791,-6.534855511484985,-6.752611079632132
1621785776400.486,0.185,0.038,0.0,-0.38285001961382553,-6.428650045765593,-6.676750032689709
1621785776405.687,0.187,0.047,0.002,-0.33735261299742836,-6.322489430327333,-6.60092102166238
1621785776410.883,0.169,0.059,0.0,-0.2918979209344898,-6.2164284821804765,-6.525163201557483
1621785776411.786,0.16691407351696907,0.06056444486227319,0.0008691360345962207,-0.284,-6.198,-6.512
1621785776416.077,0.157,0.068,0.005,-0.35181851539066367,-6.099983051341042,-6.476683188211654
1621785776421.267,0.129,0.07,0.005,-0.4338482046652494,-5.98142693438947,-6.433965840589417
1621785776426.453,0.094,0.061,0.012,-0.5158084393837911,-5.862971198928332,-6.391284661754856
1621785776428.553,0.07860310880829016,0.058974093264248705,0.010784455958549223,-0.549,-5.815,-6.374
1621785776431.636,0.056,0.056,0.009,-0.6591932584269663,-5.82587191011236,-6.374
1621785776436.815,0.021,0.045,0.007,-0.8443001313293448,-5.844134962790019,-6.374
1621785776441.991,-0.009,0.035,0.002,-1.0293022909674596,-5.862387684225887,-6.374
1621785776445.284,-0.01982146396715277,0.02354197932889707,0.002,-1.147,-5.874,-6.374
1621785776447.164,-0.026,0.017,0.002,-1.1989158416565522,-5.898324993053829,-6.414879502215463
1621785776452.333,-0.044,0.003,0.0,-1.3416456429229489,-5.965200561543074,-6.527267610370998
1621785776457.499,-0.038,-0.021,0.003,-1.484294546890309,-6.032038225874851,-6.639592018484126
1621785776461.979,-0.03539630137634205,-0.04182958898926359,0.003,-1.608,-6.09,-6.737
1621785776462.661,-0.035,-0.045,0.003,-1.6272790063750275,-6.09,-6.752676983952517
1621785776467.82,-0.021,-0.07,-0.003,-1.773145086832271,-6.09,-6.871289953836008
1621785776472.975,-0.007,-0.091,-0.016,-1.918893822818202,-6.09,-6.989807503480619
1621785776478.127,0.003,-0.12,-0.026,-2.064552824796659,-6.09,-7.108252084707262
1621785776478.638,0.00438964241676942,-0.12129038224414303,-0.02709186189889026,-2.079,-6.09,-7.12
1621785776483.275,0.017,-0.133,-0.037,-2.089880883130619,-6.084420059933016,-7.169103472589459
1621785776488.419,0.035,-0.15,-0.049,-2.10195165697162,-6.078229919501734,-7.223576708384747
1621785776493.56,0.042,-0.162,-0.063,-2.114015556143134,-6.072043304541983,-7.278018920030554
1621785776495.258,0.04497490613563994,-0.16728872201891545,-0.06630545126182215,-2.118,-6.07,-7.296
1621785776498.697,0.051,-0.178,-0.073,-2.0713397620870384,-6.082235351274955,-7.275676874153466
1621785776503.831,0.058,-0.192,-0.086,-2.001680657794005,-6.100501516400683,-7.2453364642836116
1621785776508.961,0.07,-0.199,-0.091,-1.932077866438961,-6.1187529150226725,-7.215020581826748
1621785776511.841,0.07505585714285715,-0.20461761904761905,-0.09549409523809524,-1.893,-6.129,-7.198
1621785776514.088,0.079,-0.209,-0.099,-1.8636703257790368,-6.118408728753541,-7.1660904007318225
1621785776519.211,0.084,-0.215,-0.113,-1.796794971671388,-6.094259295325779,-7.093332492327668
1621785776524.331,0.084,-0.229,-0.12,-1.7299578611898017,-6.070123672096317,-7.0206161915722385
1621785776528.388,0.07844910522548318,-0.242480744452398,-0.1255508947745168,-1.677,-6.051,-6.963
1621785776529.447,0.077,-0.246,-0.127,-1.6675708202102648,-6.049717118395955,-6.946001818746396
1621785776534.56,0.072,-0.255,-0.133,-1.6220486181963358,-6.043523621523311,-6.863937985183871
1621785776539.669,0.058,-0.255,-0.138,-1.576563367786009,-6.037335152079729,-6.781940765056411
1621785776544.774,0.04,-0.265,-0.134,-1.5311128953555428,-6.031151414334087,-6.700006239926659
1621785776544.899,0.03958358051861066,-0.26497550473638887,-0.134,-1.53,-6.031,-6.698
1621785776549.877,0.023,-0.264,-0.134,-1.53,-6.063630767862964,-6.7040427347894385
1621785776554.976,0.005,-0.265,-0.129,-1.53,-6.097055300358593,-6.710232463029369
1621785776560.072,-0.007,-0.265,-0.122,-1.53,-6.130459028539253,-6.7164183386183804
1621785776561.375,-0.009558853142829745,-0.264744114685717,-0.12123234405715107,-1.53,-6.139,-6.718
1621785776565.164,-0.017,-0.264,-0.119,-1.577475869442547,-6.166194915505925,-6.763171215586112
1621785776570.252,-0.026,-0.26,-0.115,-1.6412256838228743,-6.202711799471355,-6.823826378782929
1621785776575.337,-0.033,-0.262,-0.113,-1.7049387900567254,-6.23920765644026,-6.884446615782127
1621785776577.816,-0.03202421679800115,-0.262,-0.113,-1.736,-6.257,-6.914
1621785776580.418,-0.031,-0.262,-0.113,-1.757732567312129,-6.275559929748314,-6.927959605280783
1621785776585.496,-0.017,-0.265,-0.113,-1.8001455341063004,-6.311781222557935,-6.955202970812806
1621785776590.57,0.002,-0.26,-0.119,-1.8425238364564573,-6.347972911426317,-6.982424070132614
1621785776594.219,0.010633068592057763,-0.2578417328519856,-0.119,-1.873,-6.374,-7.002
1621785776595.642,0.014,-0.257,-0.119,-1.857696907770104,-6.374,-7.002
1621785776600.708,0.037,-0.258,-0.127,-1.8032211548501618,-6.374,-7.002
1621785776605.773,0.058,-0.258,-0.129,-1.7487559032801803,-6.374,-7.002
1621785776610.586,0.07606878919440424,-0.2532450554751568,-0.1309019778099373,-1.697,-6.374,-7.002
1621785776610.834,0.077,-0.253,-0.131,-1.6944633417055377,-6.370734242315512,-6.999463341705537
1621785776615.89,0.084,-0.255,-0.138,-1.6427589552685087,-6.304168714866642,-6.947758955268508
1621785776620.944,0.096,-0.241,-0.134,-1.5910720458079177,-6.23762568771678,-6.896072045807918
1621785776625.993,0.098,-0.236,-0.138,-1.5394400639875614,-6.171153375792369,-6.8444400639875616
1621785776626.916,0.0959881487931118,-0.23471973105016203,-0.13580525322884923,-1.53,-6.159,-6.835
1621785776631.04,0.087,-0.229,-0.126,-1.465462962962963,-6.141537037037037,-6.775524691358025
1621785776636.083,0.07,-0.222,-0.119,-1.3865453074433656,-6.12018284789644,-6.70279665587918
1621785776641.122,0.049,-0.197,-0.099,-1.3076887810140236,-6.0988451995685,-6.630124955052139
1621785776643.211,0.039461538461538465,-0.19492642140468228,-0.09402341137123746,-1.275,-6.09,-6.6
1621785776646.159,0.026,-0.192,-0.087,-1.2891442280256498,-6.082927885987175,-6.607072114012825
1621785776651.191,-0.002,-0.182,-0.077,-1.3132872246166785,-6.070856387691661,-6.619143612308339
1621785776656.22,-0.024,-0.166,-0.077,-1.3374161648320293,-6.058791917583985,-6.6312080824160144
1621785776659.468,-0.03692717290968275,-0.16147548948161106,-0.07247548948161105,-1.353,-6.051,-6.639
1621785776661.245,-0.044,-0.159,-0.07,-1.363736472960973,-6.06918627052573,-6.669127857798649
1621785776666.267,-0.052,-0.145,-0.059,-1.394077075901928,-6.120579536731837,-6.754267304826839
1621785776671.285,-0.051,-0.138,-0.054,-1.4243926039644197,-6.171930329164221,-6.839336388675667
1621785776675.689,-0.04134032713465096,-0.12834032713465096,-0.052243695842663807,-1.451,-6.217,-6.914
1621785776676.3,-0.04,-0.127,-0.052,-1.4546919071055524,-6.219976129197333,-6.918784410228624
1621785776681.311,-0.028,-0.119,-0.049,-1.4849661353682215,-6.244380864225403,-6.95801733869147
1621785776686.319,-0.012,-0.108,-0.049,-1.515222663716681,-6.268771330955284,-6.997227329510393
1621785776691.356,0.002,-0.103,-0.051,-1.545653241221535,-6.29330210261736,-7.036662873827908
1621785776691.91,0.0036506620107667684,-0.1024497793297444,-0.05111004413405112,-1.549,-6.296,-7.041
1621785776696.39,0.017,-0.098,-0.052,-1.5382514380979557,-6.290487916973311,-7.019502876195912
1621785776701.42,0.035,-0.091,-0.051,-1.5261831753803636,-6.284299064297622,-6.995366350760728
1621785776706.448,0.037,-0.089,-0.058,-1.5141195986843092,-6.278112614709902,-6.971239197368619
1621785776708.165,0.03973471371634101,-0.08729080392728687,-0.058341839214542626,-1.51,-6.276,-6.963
1621785776711.471,0.045,-0.084,-0.059,-1.4900247166317944,-6.256024716631794,-6.908985203136996
1621785776716.492,0.054,-0.073,-0.061,-1.4596863606942332,-6.225686360694233,-6.826947812081345
1621785776721.51,0.058,-0.07,-0.056,-1.4293657068023422,-6.195365706802342,-6.744958288802252
1621785776724.384,0.05570716268198861,-0.06713395335248576,-0.056,-1.412,-6.178,-6.698
1621785776726.524,0.054,-0.065,-0.056,-1.4276003197683187,-6.148253627560409,-6.670765543455309
1621785776731.535,0.042,-0.054,-0.047,-1.4641315876798697,-6.0785965489155025,-6.606990618118194
1621785776736.544,0.017,-0.044,-0.047,-1.500648616851187,-6.008966620410872,-6.543240550242843
1621785776740.57,-0.0007002488169000343,-0.048022783822022734,-0.045390886471190904,-1.53,-5.953,-6.492
1621785776741.548,-0.005,-0.049,-0.045,-1.535934097161341,-5.948216391063817,-6.493211040237008
1621785776746.55,-0.03,-0.038,-0.04,-1.5662830194383144,-5.923751443514012,-6.499404697844554
1621785776751.548,-0.058,-0.03,-0.042,-1.5966082408778983,-5.899305601741286,-6.50559351854651
1621785776756.542,-0.087,-0.028,-0.042,-1.6269082801777561,-5.874880059856706,-6.511777200036277
1621785776756.722,-0.08768484374235828,-0.02760351151758204,-0.04207208881498509,-1.628,-5.874,-6.512
1621785776761.534,-0.106,-0.017,-0.044,-1.636657306434024,-5.914898309705562,-6.573496728462377
1621785776766.522,-0.122,-0.012,-0.047,-1.6456313007391252,-5.957292696595178,-6.637243032836544
1621785776771.508,-0.136,-0.014,-0.052,-1.6546017811704834,-5.99967048346056,-6.70096437659033
1621785776772.841,-0.13546486327550722,-0.014802705086739195,-0.052,-1.657,-6.011,-6.718
1621785776776.49,-0.134,-0.017,-0.052,-1.6458841903952401,-6.04003721692672,-6.7667734503066
1621785776781.469,-0.138,-0.028,-0.068,-1.6307165320866979,-6.079658854957198,-6.8333254204359175
1621785776786.445,-0.133,-0.028,-0.065,-1.6155577985550362,-6.119257179284804,-6.8998382308299435
1621785776788.926,-0.13100920756195514,-0.028995396219022432,-0.06748849054755608,-1.608,-6.139,-6.933
1621785776791.43,-0.129,-0.03,-0.07,-1.5775801213662022,-6.145052935034276,-6.9528660431894185
1621785776796.424,-0.134,-0.038,-0.073,-1.516906463279914,-6.157125754755527,-6.992489656633525
1621785776801.415,-0.117,-0.042,-0.08,-1.4562713639321438,-6.169190902074726,-7.0320880888606405
1621785776805.059,-0.11407834597504282,-0.04346082701247859,-0.08657372155615366,-1.412,-6.178,-7.061
1621785776806.404,-0.113,-0.044,-0.089,-1.4038147609084568,-6.174742608932958,-7.056072151975499
1621785776811.389,-0.108,-0.045,-0.091,-1.3734778192182904,-6.162669744382789,-7.037808074835501
1621785776816.372,-0.099,-0.047,-0.094,-1.3431512780860548,-6.150601018830165,-7.01955025925589
1621785776821.162,-0.0913036187113857,-0.047,-0.10458252427184465,-1.314,-6.139,-7.002
1621785776821.351,-0.091,-0.047,-0.105,-1.3106602449178038,-6.139693822358626,-6.999577501595308
1621785776826.327,-0.086,-0.052,-0.101,-1.2227176760156797,-6.157963581391109,-6.9357881734479925
1621785776831.3,-0.091,-0.035,-0.105,-1.13482257133307,-6.176223479899116,-6.872033273572579
1621785776836.27,-0.096,-0.026,-0.101,-1.0469835607280684,-6.194471725060015,-6.808319061654867
1621785776837.231,-0.09658038830179405,-0.025032686163676578,-0.09945229786188253,-1.03,-6.198,-6.796
1621785776841.237,-0.099,-0.021,-0.093,-0.995525211619268,-6.207742874977164,-6.781260778880702
1621785776846.201,-0.105,-0.01,-0.082,-0.9528083247061689,-6.219815038669996,-6.762997762012058
1621785776851.162,-0.117,-0.003,-0.073,-0.9101145484440656,-6.231880671091894,-6.744744625784057
1621785776853.267,-0.1220947409887729,-0.000452629505613551,-0.06705613551309829,-0.892,-6.237,-6.737
1621785776856.12,-0.129,0.003,-0.059,-0.885047867472085,-6.230047867472085,-6.754469461223992
1621785776861.075,-0.138,0.002,-0.054,-0.8729741442430898,-6.21797414424309,-6.784808560619928
1621785776866.027,-0.15,0.003,-0.045,-0.8609069650375252,-6.205906965037525,-6.8151312160595525
1621785776869.272,-0.15721232302303784,0.012179320211139065,-0.03975467416506339,-0.853,-6.198,-6.835
1621785776870.976,-0.161,0.017,-0.037,-0.8331565127013725,-6.204294439519457,-6.841294439519457
1621785776875.922,-0.169,0.026,-0.024,-0.7755620701250268,-6.222563644422706,-6.859563644422707
1621785776880.865,-0.173,0.031,-0.016,-0.718004585333048,-6.240821126157797,-6.877821126157797
1621785776885.245,-0.17122629757785468,0.03277370242214533,-0.006244636678200693,-0.667,-6.257,-6.894
1621785776885.804,-0.171,0.033,-0.005,-0.6676635389967045,-6.2597240021969975,-6.892637998901502
1621785776890.741,-0.178,0.038,0.0,-0.6735255248382767,-6.283788996704503,-6.880605501647748
1621785776895.703,-0.175,0.033,0.012,-0.6794170786036862,-6.307975375320395,-6.868512312339803
1621785776900.663,-0.185,0.035,0.019,-0.6853066031978519,-6.332153423654339,-6.856423288172831
1621785776901.247,-0.18617809298660362,0.034175334909377464,0.01947123719464145,-0.686,-6.335,-6.855
1621785776905.62,-0.195,0.028,0.023,-0.6969299487429828,-6.351121674395899,-6.828221625579693
1621785776910.574,-0.201,0.024,0.037,-0.7093115694410544,-6.369384564925555,-6.797886654869417
1621785776915.525,-0.206,0.024,0.042,-0.7216858677080791,-6.387636654869417,-6.767569624115206
1621785776917.251,-0.2066976858933241,0.021558099373365572,0.045488429466620614,-0.726,-6.394,-6.757
1621785776920.473,-0.208,0.017,0.052,-0.7437503744688656,-6.40973328646104,-6.78059992969156
1621785776925.418,-0.211,0.014,0.056,-0.7709939779292636,-6.433881025891847,-6.816821538837771
1621785776930.361,-0.213,0.016,0.061,-0.7982268211414422,-6.458019227829915,-6.853028841744872
1621785776933.224,-0.213,0.01368172383117525,0.062159138084412376,-0.814,-6.472,-6.874
1621785776935.301,-0.213,0.012,0.063,-0.8318461243989832,-6.464444706458825,-6.908519875662266
1621785776940.239,-0.208,0.002,0.068,-0.8742765595810492,-6.4464814565277315,-6.990593345175022
1621785776945.172,-0.201,-0.012,0.063,-0.916665038434447,-6.428535969129942,-7.072585658285609
1621785776949.168,-0.1920877184297807,-0.026583733478540664,0.063,-0.951,-6.414,-7.139
1621785776950.104,-0.19,-0.03,0.063,-0.9567638215622507,-6.408177363932012,-7.147116401791741
1621785776955.032,-0.185,-0.04,0.061,-0.9871088237098852,-6.37752271890532,-7.1898471191016755
1621785776959.958,-0.182,-0.061,0.059,-1.0174417991041296,-6.346880223353992,-7.232560900779284
1621785776964.88,-0.176,-0.077,0.058,-1.0477492176474197,-6.316263545437811,-7.275238694238204
1621785776965.083,-0.1758761474718404,-0.07778439934501066,0.057752294943680844,-1.049,-6.315,-7.277
1621785776969.8,-0.173,-0.096,0.052,-1.0724589871666794,-6.326877968185661,-7.2476020287404905
1621785776974.718,-0.166,-0.11,0.049,-1.0969172366095443,-6.3392618919542,-7.216951817413356
1621785776979.632,-0.148,-0.117,0.056,-1.12135605932529,-6.35163597940521,-7.186325950972105
1621785776980.968,-0.14772801829116755,-0.12080774392365426,0.056,-1.128,-6.355,-7.178
1621785776984.544,-0.147,-0.131,0.056,-1.1501015305022633,-6.315081929603055,-7.155898469497736
1621785776989.452,-0.136,-0.147,0.058,-1.1804358697995256,-6.260294398423306,-7.125564130200474
1621785776994.358,-0.136,-0.147,0.063,-1.21075813752964,-6.205528669971977,-7.09524186247036
1621785776996.824,-0.13247926106657373,-0.1530355524573022,0.063,-1.226,-6.178,-7.08
1621785776999.261,-0.129,-0.159,0.063,-1.2455538314412635,-6.1311939782823295,-7.073995280108589
1621785777004.161,-0.126,-0.161,0.059,-1.2848691386969397,-6.037084896347483,-7.061922075518263
1621785777009.059,-0.126,-0.173,0.065,-1.3241707335883515,-5.943008637709773,-7.0498530818114515
1621785777012.652,-0.12453197007481297,-0.17667007481296756,0.062063940149625935,-1.353,-5.874,-7.041
1621785777013.954,-0.124,-0.178,0.061,-1.3764901242581602,-5.839218131800197,-7.03374690900099
1621785777018.846,-0.124,-0.194,0.051,-1.464746568991098,-5.708536659248269,-7.006495796241346
1621785777023.735,-0.134,-0.215,0.047,-1.55295456231454,-5.577926928783382,-6.979259643916914
1621785777028.449,-0.14654204766901513,-0.22850682056663169,0.03349317943336831,-1.638,-5.452,-6.953
1621785777028.621,-0.147,-0.229,0.033,-1.6422789459015885,-5.447186185860713,-6.950434815594711
1621785777033.504,-0.154,-0.244,0.016,-1.7636674821168672,-5.310624082618524,-6.8776636267921845
1621785777038.384,-0.175,-0.251,0.002,-1.8849892546372278,-5.174137088533119,-6.804932462143499
1621785777043.261,-0.195,-0.265,-0.026,-2.006232124609048,-5.03773885981482,-6.7322485987675345
1621785777044.217,-0.19813782051282053,-0.2671572516025641,-0.029726161858974358,-2.03,-5.011,-6.718
1621785777048.136,-0.211,-0.276,-0.045,-2.0959879310612286,-4.964683942726836,-6.661723500302499
1621785777053.008,-0.234,-0.295,-0.068,-2.178024758388533,-4.907103377131068,-6.591760017374308
1621785777057.878,-0.257,-0.298,-0.094,-2.2600245877480103,-4.849548779920265,-6.5218280874299985
1621785777059.955,-0.26639119963875374,-0.2988537454217049,-0.10296432692790126,-2.295,-4.825,-6.492
1621785777062.744,-0.279,-0.3,-0.115,-2.312399036369288,-4.851098554553932,-6.471050139881878
1621785777067.608,-0.307,-0.314,-0.127,-2.3427449176251165,-4.896617376437675,-6.434511221635064
1621785777072.469,-0.339,-0.328,-0.141,-2.3730725209822814,-4.942108781473423,-6.397994311470313
1621785777075.663,-0.36201724137931035,-0.3358916256157636,-0.14691871921182265,-2.393,-4.972,-6.374
1621785777077.326,-0.374,-0.34,-0.15,-2.4064690677504244,-5.037542392675293,-6.402104747668208
1621785777082.181,-0.421,-0.34,-0.155,-2.445794553183538,-5.228905778483674,-6.484161862942028
1621785777087.033,-0.459,-0.349,-0.147,-2.485096308061226,-5.420153688045966,-6.566169461702558
1621785777091.342,-0.49187274740763115,-0.3649921473874962,-0.14344618946944526,-2.52,-5.59,-6.639
1621785777091.883,-0.496,-0.367,-0.143,-2.5261192548909484,-5.619144247870448,-6.65493772036569
1621785777096.73,-0.518,-0.384,-0.141,-2.5809412618178413,-5.880245670691753,-6.797722721457768
1621785777101.574,-0.543,-0.394,-0.147,-2.6357301319853974,-6.141189272676215,-6.940421417204905
1621785777106.415,-0.553,-0.407,-0.148,-2.690485865393616,-6.401975053823832,-7.0830338076071016
1621785777106.991,-0.5509758227336968,-0.4079525540076721,-0.147880930749041,-2.697,-6.433,-7.1
1621785777111.252,-0.536,-0.415,-0.147,-2.549703488372093,-6.652308139534884,-7.247023740310078
1621785777116.088,-0.511,-0.422,-0.131,-2.382531695423856,-6.901208364591148,-7.413885955863966
1621785777120.92,-0.48,-0.422,-0.11,-2.2154949362340584,-7.149907539384846,-7.580613387721931
1621785777122.612,-0.4666873230893651,-0.422,-0.10194232713303679,-2.157,-7.237,-7.639
1621785777125.75,-0.442,-0.422,-0.087,-2.0682406357657377,-7.363396554963984,-7.631150532414657
1621785777130.577,-0.391,-0.433,-0.058,-1.9317074224866897,-7.557824804259317,-7.6190761666144695
1621785777135.401,-0.332,-0.422,-0.04,-1.7952570779830879,-7.752135045411839,-7.6070091293454425
1621785777138.203,-0.30235868739555377,-0.420256393376209,-0.02372633817795108,-1.716,-7.865,-7.6
1621785777140.222,-0.281,-0.419,-0.012,-1.6740934078001946,-7.89548931630636,-7.565618430548147
1621785777145.041,-0.237,-0.405,0.028,-1.5740699225000785,-7.968261821091274,-7.483555818769414
1621785777149.856,-0.192,-0.391,0.072,-1.474132581343541,-8.040971651344483,-7.4015638825264345
1621785777153.765,-0.16356849315068495,-0.3723164383561644,0.09961917808219178,-1.393,-8.1,-7.335
1621785777154.668,-0.157,-0.368,0.106,-1.400964966050547,-8.0817445303659,-7.3316279705771406
1621785777159.478,-0.12,-0.335,0.148,-1.4433887998239658,-7.984510342009305,-7.313667515402993
1621785777164.286,-0.08,-0.311,0.178,-1.4857932541179428,-7.887320570853765,-7.295715264679995
1621785777169.09,-0.042,-0.293,0.208,-1.5281654092795172,-7.790204828366654,-7.277776688042248
1621785777169.298,-0.04026697177726926,-0.2924800915331808,0.20903981693363843,-1.53,-7.786,-7.277
1621785777173.891,-0.002,-0.281,0.232,-1.602585590551181,-7.666900377952755,-7.236115055118111
1621785777178.69,0.03,-0.264,0.258,-1.6784237007874014,-7.542463968503937,-7.193398078740158
1621785777183.486,0.052,-0.255,0.295,-1.75421937007874,-7.418097196850394,-7.150705007874016
1621785777184.801,0.05309761565111066,-0.25390238434888934,0.30323211738332995,-1.775,-7.384,-7.139
1621785777188.278,0.056,-0.251,0.325,-1.9381664062869857,-7.194538181129575,-7.112704587416561
1621785777193.068,0.061,-0.26,0.349,-2.1629469772286134,-6.933532642143636,-7.076479619372249
1621785777197.856,0.065,-0.253,0.354,-2.387624437816598,-6.672646830469157,-7.040271268285755
1621785777200.272,0.07004897959183673,-0.25552448979591835,0.354,-2.501,-6.541,-7.022
1621785777202.641,0.075,-0.258,0.354,-2.525083972241104,-6.491298044547022,-6.960179357877931
1621785777207.422,0.087,-0.262,0.36,-2.5736862422738267,-6.39099781849223,-6.835423212507311
1621785777212.201,0.099,-0.257,0.374,-2.622266175563951,-6.290743688645094,-6.710724402851768
1621785777215.716,0.10562383070081276,-0.25405607524408325,0.38503971783468793,-2.658,-6.217,-6.619
1621785777216.977,0.108,-0.253,0.389,-2.654727647105409,-6.187385206303952,-6.561242971410469
1621785777221.75,0.106,-0.239,0.393,-2.6423414904569573,-6.0752904886354635,-6.342627306565297
1621785777226.52,0.103,-0.225,0.405,-2.6299629365645045,-5.9632645759087675,-6.124145830363507
1621785777231.13,0.08946728780587693,-0.20856742090713626,0.40789986689874064,-2.618,-5.855,-5.913
1621785777231.289,0.089,-0.208,0.408,-2.6160757195899844,-5.852454983973851,-5.907827203198883
1621785777236.053,0.068,-0.178,0.421,-2.558486020754657,-5.776287962933579,-5.7530161848243475
1621785777240.815,0.037,-0.154,0.428,-2.5009199327219065,-5.700152169083812,-5.598268636349212
1621785777245.574,0.0,-0.133,0.442,-2.443389260893021,-5.6240632160198025,-5.443616292723176
1621785777246.516,-0.006536984754376059,-0.12765155792823776,0.44398090447102306,-2.432,-5.609,-5.413
1621785777250.33,-0.033,-0.106,0.452,-2.4637954523771666,-5.570000890443632,-5.3983442836699
1621785777255.083,-0.065,-0.094,0.457,-2.5034186675147083,-5.521400540626491,-5.380080457942439
1621785777259.834,-0.101,-0.08,0.466,-2.5430256002544125,-5.472820162187947,-5.361824137382732
1621785777261.87,-0.11472557087019132,-0.07356613865459782,0.4621396831927587,-2.56,-5.452,-5.354
1621785777264.581,-0.133,-0.065,0.457,-2.6015628434448814,-5.486842043228262,-5.392202443336572
1621785777269.327,-0.166,-0.049,0.447,-2.674324020833665,-5.547837583422264,-5.459080802127965
1621785777274.069,-0.178,-0.037,0.435,-2.747029052450504,-5.608786056735103,-5.525907554592804
1621785777277.198,-0.18592293029725412,-0.0251156045541188,0.4303782906599351,-2.795,-5.649,-5.57
1621785777278.808,-0.19,-0.019,0.428,-2.8228927334535645,-5.662367460938124,-5.604102813731906
1621785777283.545,-0.195,0.0,0.419,-2.9049510828798057,-5.701693537832964,-5.7044307579360645
1621785777288.278,-0.188,0.016,0.391,-2.986945991668928,-5.740989211101712,-5.804681136983897
1621785777292.495,-0.17908628341418104,0.034718804830219836,0.37406393848694397,-3.06,-5.776,-5.894
1621785777293.009,-0.178,0.037,0.372,-3.06461084019506,-5.776,-5.9042313534255335
1621785777297.737,-0.173,0.052,0.358,-3.1070305699896075,-5.776,-5.998359804940443
1621785777302.462,-0.169,0.063,0.34,-3.149421824286514,-5.776,-6.092425069949637
1621785777307.184,-0.168,0.075,0.323,-3.1917889839315694,-5.776,-6.186436869453994
1621785777307.765,-0.1657850307763927,0.07721496922360731,0.3223847307712202,-3.197,-5.776,-6.198
1621785777311.904,-0.15,0.093,0.318,-3.226338289724568,-5.818649180432936,-6.272432327634552
1621785777316.621,-0.148,0.106,0.307,-3.2597725881655477,-5.867252743907324,-6.357256381086668
1621785777321.335,-0.136,0.124,0.297,-3.2931843905721747,-5.915823604813254,-6.442023361266444
1621785777323.002,-0.1349384328358209,0.12152300995024876,0.29133830845771147,-3.305,-5.933,-6.472
1621785777326.046,-0.133,0.117,0.281,-3.3520362165286075,-5.982037757657484,-6.517234829512619
1621785777330.754,-0.126,0.122,0.272,-3.42478616836833,-6.057883452128684,-6.587198612984011
1621785777335.459,-0.112,0.117,0.26,-3.4974908495472934,-6.133681949528029,-6.657118859564632
1621785777338.21,-0.10263876629108469,0.11173430603873515,0.25590446025234953,-3.54,-6.178,-6.698
1621785777340.161,-0.096,0.108,0.253,-3.5525974101182336,-6.215792230354701,-6.72820807528352
1621785777344.862,-0.075,0.11,0.243,-3.5829535269042063,-6.30686058071262,-6.801000804311108
1621785777349.559,-0.045,0.105,0.23,-3.6132828440440763,-6.397848532132229,-6.8737292688812035
1621785777353.387,-0.018088161864142305,0.09195183605534173,0.22347591802767086,-3.638,-6.472,-6.933
1621785777354.253,-0.012,0.089,0.222,-3.6531493246945814,-6.47817406440383,-6.944776456177674
1621785777358.944,0.017,0.072,0.209,-3.735217064758405,-6.511620539599652,-7.008572510717855
1621785777363.632,0.058,0.066,0.182,-3.817229281500822,-6.545044386422977,-7.072325403732714
1621785777368.318,0.101,0.056,0.164,-3.89920733004545,-6.578454308093995,-7.136051735808916
1621785777368.535,0.10294442416975132,0.056138887440696526,0.1634444502372139,-3.903,-6.58,-7.139
1621785777373.001,0.143,0.059,0.152,-3.7727323827670842,-6.649712375662059,-7.078149367006847
1621785777377.681,0.187,0.058,0.15,-3.6362266180080094,-6.722763079705464,-7.014384769409637
1621785777382.358,0.22,0.077,0.143,-3.499806307324635,-6.795768053223098,-6.950660089135771
1621785777383.654,0.22859644815878818,0.07783191433794724,0.14688226691042047,-3.462,-6.816,-6.933
1621785777387.032,0.251,0.08,0.157,-3.3411107371691156,-6.8531622548702344,-6.825542877483658
1621785777391.704,0.281,0.091,0.164,-3.1739050546890173,-6.9045625202252285,-6.676915604168015
1621785777396.373,0.304,0.099,0.176,-3.006812957090156,-6.955927868746359,-6.52838929519125
1621785777398.743,0.3172081850533808,0.1056040925266904,0.1831120996441281,-2.922,-6.982,-6.453
1621785777401.038,0.33,0.112,0.19,-2.9280964300768457,-6.932771327129471,-6.41703106254661
1621785777405.702,0.353,0.12,0.199,-2.9404844849388803,-6.832737784118543,-6.343941538860608
1621785777410.362,0.361,0.127,0.202,-2.9528628124898675,-6.732782789144321,-6.270909406309782
1621785777413.802,0.3706006079983228,0.12183044184705696,0.19978447507731015,-2.962,-6.659,-6.217
1621785777415.02,0.374,0.12,0.199,-3.0199466040708915,-6.620017739079582,-6.201925778521418
1621785777419.674,0.38,0.112,0.197,-3.2413609382868467,-6.471066277879758,-6.14432708458552
1621785777424.326,0.379,0.094,0.187,-3.4626707386409787,-6.322185139459705,-6.086755584073815
1621785777428.831,0.3702770103471821,0.08721545249225274,0.16664635747675824,-3.677,-6.178,-6.031
1621785777428.974,0.37,0.087,0.166,-3.682054683939848,-6.17453801835818,-6.029693411887247
1621785777433.62,0.358,0.072,0.141,-3.8462025258772217,-6.062112232276545,-5.987262743310982
1621785777438.264,0.358,0.065,0.124,-4.01027273614999,-5.949739616561422,-5.944852141787644
1621785777442.905,0.346,0.052,0.101,-4.174248063277131,-5.837431986849815,-5.902466066662327
1621785777443.832,0.34340109514031486,0.05279966303374928,0.09620202179750435,-4.207,-5.815,-5.894
1621785777447.542,0.333,0.056,0.077,-4.1876707653169385,-5.810291596679767,-5.813709332854977
1621785777452.177,0.321,0.047,0.058,-4.163521941912232,-5.804409190978621,-5.713398835635427
1621785777456.809,0.309,0.054,0.033,-4.1393883824464694,-5.7985305034164485,-5.613151742469953
1621785777458.803,0.29823127637130803,0.06390722573839662,0.02696951476793249,-4.129,-5.796,-5.57
1621785777461.438,0.284,0.077,0.019,-3.9905762086035907,-5.851369516558564,-5.478305259202379
1621785777466.064,0.253,0.098,0.014,-3.7475618475011023,-5.948575260999559,-5.317327593249138
1621785777470.688,0.222,0.138,0.01,-3.504650089042103,-6.045739964383159,-5.156417893378208
1621785777473.746,0.189573224852071,0.16314729501267963,0.019264792899408283,-3.344,-6.11,-5.05
1621785777475.309,0.173,0.176,0.024,-3.2216888168557536,-6.1716272285251215,-5.070647217720151
1621785777479.927,0.119,0.225,0.047,-2.860314866656844,-6.353707676440254,-5.131650360984234
1621785777484.542,0.065,0.278,0.08,-2.49917017828201,-6.535672609400325,-5.192614802809292
1621785777488.659,0.015011751627759251,0.3288808956646022,0.12998824837224077,-2.177,-6.698,-5.247
1621785777489.154,0.009,0.335,0.136,-2.1757027505781625,-6.715928652265906,-5.315820744968755
1621785777493.763,-0.042,0.396,0.201,-2.163627072774689,-6.882820712165199,-5.956450934081254
1621785777498.369,-0.099,0.431,0.257,-2.151559071003297,-7.049606685364694,-6.596673899850744
1621785777502.973,-0.152,0.456,0.314,-2.139496186586626,-7.216321934097657,-7.2366253833915595
1621785777503.544,-0.15646705570291777,0.45724084880636606,0.31722620689655173,-2.138,-7.237,-7.316
1621785777507.575,-0.188,0.466,0.34,-2.4758397100877625,-7.282316651875226,-8.17294602767643
1621785777512.173,-0.194,0.44,0.347,-2.8612114682970122,-7.334009088518555,-9.150459290668245
1621785777516.768,-0.161,0.4,0.328,-3.2463172270979195,-7.385665844919962,-10.127297833875687
1621785777518.399,-0.13223292041044182,0.387569780424265,0.3148594821627944,-3.383,-7.404,-10.474
1621785777521.36,-0.08,0.365,0.291,-3.582982359045313,-7.382423481741365,-10.91671818945496
1621785777525.95,0.049,0.328,0.244,-3.892955839963104,-7.34897978949449,-11.602933208150088
1621785777530.536,0.204,0.288,0.183,-4.202665513663092,-7.315564559964422,-12.28856421406335
1621785777533.221,0.31116330333848036,0.26340514349608646,0.14200857249347745,-4.384,-7.296,-12.69
1621785777535.121,0.387,0.246,0.113,-4.327237587657784,-7.170018265819652,-12.5967658114017
1621785777539.702,0.583,0.215,0.037,-4.190396633941094,-6.866305651348899,-12.371999900998267
1621785777544.281,0.78,0.195,-0.045,-4.053606732117812,-6.562706344361026,-12.14731784506229
1621785777548.017,0.9155620897593254,0.195,-0.10543129302524148,-3.942,-6.315,-11.964
1621785777548.856,0.946,0.195,-0.119,-3.8211136976109783,-6.236492072414649,-11.762901545837812
1621785777553.428,1.072,0.197,-0.173,-3.1622552037695297,-5.808605588162354,-10.666868149127883
1621785777557.998,1.152,0.218,-0.211,-2.503678168140861,-5.38090189303133,-9.571302967677937
1621785777562.565,1.169,0.253,-0.211,-1.8455585021079606,-4.953495230222369,-8.476498636025461
1621785777562.784,1.1682802503477052,0.25559109874826147,-0.21018428372739917,-1.814,-4.933,-8.424
1621785777567.129,1.154,0.307,-0.194,-1.2647262561502908,-4.565638172390371,-7.52475957126054
1621785777571.691,1.098,0.367,-0.169,-0.6880150588936933,-4.179925798916555,-6.580600069579047
1621785777576.25,0.998,0.424,-0.127,-0.11167422096317292,-3.7944611268492285,-5.637046899590809
1621785777577.521,0.9631203301709814,0.44213742831108965,-0.11304813206839257,0.049,-3.687,-5.374
1621785777580.805,0.873,0.489,-0.077,0.3752702716164165,-3.6059349017133746,-5.122095231770487
1621785777585.358,0.735,0.548,-0.016,0.8276243192987117,-3.4935430336034,-4.772844468056847
1621785777589.908,0.595,0.604,0.054,1.2796872924691194,-3.381223485854695,-4.423818435383185
1621785777592.226,0.5246477852348993,0.6366271140939598,0.09121530201342282,1.51,-3.324,-4.246
1621785777594.455,0.457,0.668,0.127,1.5412832454549992,-3.4268095008399726,-4.254959764474976
1621785777599.0,0.319,0.726,0.197,1.6050695430881057,-3.6364372848089688,-4.273228655544652
1621785777603.542,0.187,0.764,0.258,1.6688147236406579,-3.845929941285075,-4.291485770363101
1621785777606.904,0.09885730421686746,0.78622084767642,0.2839243222891566,1.716,-4.001,-4.305
1621785777608.081,0.068,0.794,0.293,1.610416580552685,-4.083763258775293,-4.392504066802227
1621785777612.616,-0.037,0.813,0.312,1.2036105203506784,-4.4026447214907165,-4.729651555051835
1621785777617.15,-0.131,0.812,0.319,0.7968920630687689,-4.721457515250508,-5.066726440881363
1621785777621.552,-0.20582549178119103,0.8197740770681756,0.31219768256534625,0.402,-5.031,-5.394
1621785777621.68,-0.208,0.82,0.312,0.387323624217119,-5.039068943632568,-5.407731206680585
1621785777626.207,-0.276,0.803,0.302,-0.13203522338204599,-5.324607916492693,-5.893642972860126
1621785777630.732,-0.328,0.775,0.283,-0.6511419958246346,-5.610008300626305,-6.379318897703549
1621785777635.254,-0.361,0.733,0.257,-1.1699126680584553,-5.895223899791232,-6.86468036743215
1621785777636.17,-0.3674864397622907,0.7248919502971367,0.25152706645056727,-1.275,-5.953,-6.963
1621785777639.773,-0.393,0.693,0.23,-1.7060149123834707,-6.11750196656011,-7.2342059448693705
1621785777644.289,-0.398,0.66,0.194,-2.2462584311034495,-6.323692329578738,-7.574141408224405
1621785777648.803,-0.398,0.627,0.148,-2.786239100235987,-6.529782372926744,-7.913911479690037
1621785777650.757,-0.39020094191522764,0.6122684458398744,0.12243642072213501,-3.02,-6.619,-8.061
1621785777653.313,-0.38,0.593,0.089,-3.1353410527727936,-6.629357872319018,-8.16773875203327
1621785777657.821,-0.358,0.562,0.023,-3.3387771535894557,-6.647626867673939,-8.356002297385675
1621785777662.325,-0.318,0.52,-0.037,-3.542025958781212,-6.665879043482636,-8.544092515888854
1621785777665.316,-0.29009642082429504,0.4967470173535792,-0.07021854663774403,-3.677,-6.678,-8.669
1621785777666.827,-0.276,0.485,-0.087,-3.562818331513064,-6.6760241787784596,-8.659848828026549
1621785777671.327,-0.222,0.461,-0.119,-3.2227639586658827,-6.670139813492397,-8.632594925648997
1621785777675.824,-0.155,0.442,-0.15,-2.8829309753843573,-6.664259279173318,-8.60535876669747
1621785777679.846,-0.08070004890506982,0.423201217192849,-0.17327468347552027,-2.579,-6.659,-8.581
1621785777680.317,-0.072,0.421,-0.176,-2.5497038321659486,-6.633503889412715,-8.564760439116379
1621785777684.808,0.0,0.405,-0.197,-2.270319537984914,-6.390359021417026,-8.409891096443966
1621785777689.296,0.086,0.38,-0.218,-1.9911478650323278,-6.147399195177801,-8.25513961476293
1621785777693.782,0.136,0.361,-0.243,-1.7120825026939657,-5.90453188981681,-8.100447063577585
1621785777694.346,0.14015241311689727,0.3583575552892472,-0.2456424447107528,-1.677,-5.874,-8.081
1621785777698.264,0.169,0.34,-0.264,-1.419519393315675,-5.698826548344103,-7.809982032291262
1621785777702.743,0.168,0.342,-0.271,-1.1251687446223406,-5.498569061798795,-7.500155534560424
1621785777707.22,0.154,0.346,-0.264,-0.8309464511666358,-5.298398900005061,-7.190464140502421
1621785777708.817,0.14650458365164248,0.346356924588017,-0.264,-0.726,-5.227,-7.08
1621785777711.694,0.133,0.347,-0.264,-0.6341646917628763,-5.187955053330854,-6.908082709308812
1621785777716.165,0.103,0.356,-0.26,-0.49145955813992803,-5.127282154870772,-6.640936222721817
1621785777720.633,0.051,0.368,-0.253,-0.3488479352254095,-5.066649013675011,-6.373964789803749
1621785777723.26,0.019816710411198597,0.38447419072615924,-0.24593963254593176,-0.265,-5.031,-6.217
1621785777725.098,-0.002,0.396,-0.241,-0.24497872340425533,-5.040946876270497,-6.188307087681257
1621785777729.561,-0.052,0.415,-0.222,-0.19635904255319148,-5.065101876948096,-6.118629201111261
1621785777734.021,-0.103,0.436,-0.213,-0.14777393617021276,-5.089239700501423,-6.049000863938203
1621785777737.672,-0.14723586765994742,0.45074528921998247,-0.20562735539000876,-0.108,-5.109,-5.992
1621785777738.478,-0.157,0.454,-0.204,-0.11461231072180349,-5.117797735451891,-6.000237370136484
1621785777742.931,-0.213,0.466,-0.197,-0.15114728050519455,-5.166407822367081,-6.045751273171725
1621785777747.383,-0.274,0.473,-0.19,-0.1876762409180417,-5.2150099137638355,-6.091257689957222
1621785777751.831,-0.332,0.483,-0.185,-0.2241711482311401,-5.263566697222788,-6.136721684660827
1621785777752.054,-0.33435697022959465,0.4833510381193013,-0.18474925848621335,-0.226,-5.266,-6.139
1621785777756.276,-0.379,0.49,-0.18,-0.23747179792481715,-5.30365102908658,-6.291957305664229
1621785777760.72,-0.403,0.482,-0.173,-0.24954726994386803,-5.34328334750808,-6.452963599251573
1621785777765.16,-0.414,0.473,-0.171,-0.26161146453478484,-5.382878652832114,-6.613819527130464
1621785777766.407,-0.4154053042808407,0.46906514801364585,-0.1715621217123363,-0.265,-5.394,-6.659
1621785777769.597,-0.419,0.459,-0.173,-0.24740674268377905,-5.474839903870737,-6.689509825978763
1621785777774.031,-0.422,0.447,-0.169,-0.2229517649264543,-5.587208978882241,-6.7319190912034905
1621785777778.462,-0.431,0.436,-0.168,-0.19851429155800993,-5.699497622334714,-6.774298000715857
1621785777780.731,-0.4407335464667622,0.42472957777532794,-0.16492624848418036,-0.186,-5.757,-6.796
1621785777782.891,-0.45,0.414,-0.162,-0.21562027737924438,-5.8236456241033,-6.8108101386896225
1621785777787.318,-0.468,0.384,-0.157,-0.27632376853180296,-5.960228479196557,-6.841161884265902
1621785777791.74,-0.487,0.363,-0.155,-0.33695695839311335,-6.096653156384505,-6.871478479196557
1621785777795.025,-0.4959165009940358,0.34070874751491054,-0.15797216699801192,-0.382,-6.198,-6.894
1621785777796.161,-0.499,0.333,-0.159,-0.41639707039939766,-6.251825045347206,-6.92760084191793
1621785777800.578,-0.51,0.302,-0.164,-0.5501412779355899,-6.461109962695507,-7.058249118724118
1621785777804.992,-0.504,0.272,-0.175,-0.6837967760703652,-6.670256066258257,-7.188810739587255
1621785777809.292,-0.48743177290836653,0.24178735059760956,-0.1779238047808765,-0.814,-6.874,-7.316
1621785777809.404,-0.487,0.241,-0.178,-0.8147715344242049,-6.878330040135844,-7.321093701759803
1621785777813.812,-0.445,0.194,-0.187,-0.8451202360124866,-7.048654385784364,-7.521457068368152
1621785777818.219,-0.382,0.155,-0.204,-0.8754622139892285,-7.218940996878324,-7.721776045418682
1621785777822.623,-0.312,0.129,-0.225,-0.9057840211313506,-7.3891144043086,-7.921961853795754
1621785777823.526,-0.2932460173088584,0.11901146574058763,-0.22724232401741912,-0.912,-7.424,-7.963
1621785777827.052,-0.22,0.08,-0.236,-0.887903790898137,-7.424,-8.048229184045478
1621785777832.093,-0.119,0.028,-0.255,-0.8534553712114191,-7.424,-8.170074520344796
1621785777837.133,-0.012,-0.014,-0.274,-0.8190136249884141,-7.424,-8.291896252355794
1621785777839.33,0.030711255327392478,-0.03361231111972104,-0.2814090953118946,-0.804,-7.424,-8.345
1621785777842.174,0.086,-0.059,-0.291,-0.7868863237741167,-7.363927503860165,-8.221711679433943
1621785777847.214,0.175,-0.108,-0.307,-0.7565579924145892,-7.2574688713328435,-8.003223904537755
1621785777852.255,0.244,-0.157,-0.314,-0.7262252537214985,-7.15099476816526,-7.784704378850796
1621785777855.616,0.2766769521410579,-0.18234130982367758,-0.31733438287153654,-0.706,-7.08,-7.639
1621785777857.295,0.293,-0.195,-0.319,-0.6878535210422945,-7.04463498703129,-7.516717477023644
1621785777862.335,0.335,-0.227,-0.314,-0.633379780806309,-6.938473095548659,-7.14963875020615
1621785777867.376,0.358,-0.257,-0.304,-0.5788954856894406,-6.832290634042489,-6.782488897884527
1621785777871.9,0.366974234792716,-0.2812304339403332,-0.2878463773731112,-0.53,-6.737,-6.453
1621785777872.417,0.368,-0.284,-0.286,-0.5337147868321641,-6.724236373448462,-6.430266774599748
1621785777877.458,0.372,-0.319,-0.269,-0.5699295736643282,-6.599806080230257,-6.208644660310608
1621785777882.498,0.365,-0.34,-0.258,-0.6061373448461954,-6.4753998920669185,-5.98706547940277
1621785777887.538,0.353,-0.363,-0.239,-0.6423451160280627,-6.35099370390358,-5.765486298494933
1621785777888.186,0.34888586930194254,-0.365185631933343,-0.23655723489802838,-0.647,-6.335,-5.737
1621785777892.578,0.321,-0.38,-0.22,-0.6523934369706328,-6.268930397109749,-5.7634278411561
1621785777897.619,0.288,-0.384,-0.201,-0.6585840916245672,-6.193094877599052,-5.793762048960379
1621785777902.66,0.248,-0.393,-0.19,-0.6647747462785015,-6.117259358088356,-5.8240962567646575
1621785777904.472,0.23469763611703157,-0.393,-0.18568571982173998,-0.667,-6.09,-5.835
1621785777907.7,0.211,-0.393,-0.178,-0.6961381926121373,-6.103677110817942,-5.972960422163588
1621785777912.741,0.187,-0.417,-0.169,-0.7416415507315903,-6.1250358299352365,-6.188404893259774
1621785777917.781,0.173,-0.435,-0.166,-0.787136093787479,-6.146390411369633,-6.4038076277284715
1621785777920.757,0.16768562294129044,-0.45330507653555513,-0.17013340437899632,-0.814,-6.159,-6.531
1621785777922.821,0.164,-0.466,-0.173,-0.9071545807534893,-6.173828688364841,-6.557108630796216
1621785777927.862,0.157,-0.506,-0.194,-1.1346747822436771,-6.210046189826544,-6.620876197472377
1621785777932.902,0.147,-0.55,-0.227,-1.3621509077552734,-6.246256675112064,-6.68463141088107
1621785777937.042,0.14535751646648584,-0.585313395970554,-0.26313463773731116,-1.549,-6.276,-6.737
1621785777937.943,0.145,-0.593,-0.271,-1.562484006058986,-6.306640485312899,-6.7235708069737745
1621785777942.984,0.136,-0.672,-0.316,-1.637911877394636,-6.478039591315453,-6.648449553001277
1621785777948.099,0.126,-0.752,-0.379,-1.714453978437138,-6.651970625798212,-6.572218598710981
1621785777953.216,0.131,-0.836,-0.429,-1.7910216519647153,-6.825959770114943,-6.4959621758888
1621785777953.482,0.13183149606299213,-0.8388062992125984,-0.4310267716535433,-1.795,-6.835,-6.492
1621785777958.332,0.147,-0.89,-0.468,-1.728700792982767,-6.616447304301599,-7.1365104328179685
1621785777963.449,0.178,-0.92,-0.475,-1.6587538947710392,-6.385870139842584,-7.816480943309854
1621785777968.566,0.195,-0.932,-0.48,-1.5888069965593112,-6.155292975383571,-8.49645145380174
1621785777970.015,0.19075424456314385,-0.9368118561617703,-0.48452880579931323,-1.569,-6.09,-8.689
1621785777973.685,0.18,-0.949,-0.496,-2.1327153064839965,-5.69384573934097,-8.821717225699777
1621785777978.803,0.122,-0.988,-0.545,-2.918796858391402,-5.141422286524152,-9.00678681941656
1621785777983.921,0.037,-1.026,-0.632,-3.7048784102988073,-4.588998833707334,-9.191856413133342
1621785777986.552,0.009759395268981307,-1.0378213945059138,-0.6792855780236551,-4.109,-4.305,-9.287
1621785777989.04,-0.016,-1.049,-0.724,-3.9821916366534804,-4.394954212670484,-9.157183134557478
1621785777994.159,-0.017,-1.038,-0.784,-3.7212956544842655,-4.580026332880675,-8.890097449371199
1621785777999.279,0.035,-1.002,-0.81,-3.460337456456279,-4.765142587235047,-8.622948072267816
1621785778003.092,0.10128210385770826,-0.9729550331410042,-0.830852796719279,-3.266,-4.903,-8.424
1621785778004.399,0.124,-0.963,-0.838,-3.211740217776204,-4.85426887098678,-8.343439624645892
1621785778009.52,0.209,-0.953,-0.86,-2.999120529390935,-4.663313488550519,-8.02775973796034
1621785778014.64,0.267,-0.962,-0.901,-2.7865515226628896,-4.472403623701605,-7.7121550991501415
1621785778019.639,0.2894517543859649,-0.9737139588100686,-0.9175947749809307,-2.579,-4.286,-7.404
1621785778019.761,0.29,-0.974,-0.918,-2.569235556145552,-4.286,-7.393151437379235
1621785778024.883,0.283,-0.963,-0.927,-2.159519492012921,-4.286,-6.937945749811939
1621785778030.004,0.248,-0.922,-0.915,-1.7499010723188342,-4.286,-6.48284854787085
1621785778035.127,0.185,-0.869,-0.876,-1.3401068926353674,-4.286,-6.027556071802587
1621785778036.191,0.16506252382767822,-0.853839210827297,-0.8622929851315287,-1.255,-4.286,-5.933
1621785778040.25,0.089,-0.796,-0.81,-0.8078351765018137,-4.596122533840573,-5.80086083340706
1621785778045.373,-0.031,-0.728,-0.721,-0.24345970096434577,-4.987534253443038,-5.634085405054705
1621785778050.496,-0.176,-0.637,-0.604,0.32091577457312215,-5.3789459730455045,-5.46730997670235
1621785778052.748,-0.24149949959491018,-0.597876137825859,-0.5472923795453462,0.569,-5.551,-5.394
1621785778055.619,-0.325,-0.548,-0.475,0.512831402034498,-5.829762671384343,-5.557131637918325
1621785778060.743,-0.461,-0.463,-0.347,0.4125791242812914,-6.327311012826183,-5.848296432257113
1621785778065.868,-0.578,-0.398,-0.234,0.3123077399380805,-6.824954179566563,-6.139516718266254
1621785778069.308,-0.6384130144817073,-0.3758485613567073,-0.16620317263719514,0.245,-7.159,-6.335
1621785778070.993,-0.668,-0.365,-0.133,0.047430351009095845,-7.226857340822313,-6.6353221440891605
1621785778076.119,-0.719,-0.342,-0.061,-0.553666932024236,-7.433310424129848,-7.54903953827783
1621785778081.244,-0.71,-0.344,-0.012,-1.154649698524317,-7.639724175548774,-8.462582857901022
1621785778085.869,-0.644137638710292,-0.35933781016335664,0.006946706672381769,-1.697,-7.826,-9.287
1621785778086.37,-0.637,-0.361,0.009,-1.7492274824236886,-7.817376110955532,-9.35762511238522
1621785778091.496,-0.513,-0.391,0.01,-2.283357156543399,-7.729179727917225,-10.079907070319985
1621785778096.623,-0.342,-0.436,-0.002,-2.8175885890312027,-7.640966542367385,-10.802326631980781
1621785778101.75,-0.15,-0.485,-0.04,-3.351820021519006,-7.552753356817545,-11.524746193641576
1621785778102.433,-0.12508922110074272,-0.493925252332889,-0.046793848790706534,-3.423,-7.541,-11.621
1621785778106.878,0.037,-0.552,-0.091,-3.486038308531015,-7.367443465448652,-11.307954442316193
1621785778112.006,0.209,-0.606,-0.143,-3.5587681597171064,-7.167204258140563,-10.94678109621335
1621785778117.134,0.335,-0.658,-0.18,-3.6314945484013554,-6.9669745837630765,-10.585624944747313
1621785778119.003,0.3612407160540849,-0.6663824509617217,-0.18364454389640067,-3.658,-6.894,-10.454
1621785778122.262,0.407,-0.681,-0.19,-3.4534989909702887,-6.743573777011799,-9.925640181478045
1621785778127.392,0.443,-0.696,-0.192,-3.131588757788678,-6.506784038181095,-9.093935569402095
1621785778132.521,0.466,-0.7,-0.187,-2.8097551224829496,-6.270050642980246,-8.262428859722775
1621785778135.577,0.47314848657909764,-0.6904686845612031,-0.18044722063582713,-2.618,-6.129,-7.767
1621785778137.651,0.478,-0.684,-0.176,-2.510029675994109,-6.018652577319587,-7.515527982326952
1621785778142.781,0.466,-0.66,-0.168,-2.2429572312223858,-5.745700206185567,-6.893493667157585
1621785778147.911,0.394,-0.627,-0.147,-1.9758974963181148,-5.472760824742267,-6.271488954344624
1621785778152.154,0.31213198839035067,-0.593095065899034,-0.13211490698006376,-1.755,-5.247,-5.757
1621785778153.042,0.295,-0.586,-0.129,-1.7235173124484748,-5.23334679366388,-5.71812851843128
1621785778158.173,0.187,-0.548,-0.105,-1.5415894476504532,-5.154449505358615,-5.493503297609233
1621785778163.305,0.08,-0.497,-0.07,-1.3596356141797197,-5.07554095512896,-5.26884601342598
1621785778168.437,-0.016,-0.447,-0.03,-1.1776731244847487,-4.996628650924508,-5.044178041455659
1621785778168.738,-0.020281860996146713,-0.4434806621949479,-0.027947052947052946,-1.167,-4.992,-5.031
1621785778173.569,-0.089,-0.387,0.005,-1.2441876471973623,-5.086081547338672,-5.09944942298634
1621785778178.702,-0.145,-0.333,0.037,-1.3261965967969853,-5.186039625529911,-5.172174340555817
1621785778183.834,-0.183,-0.295,0.059,-1.4081938442063118,-5.28598344029675,-5.244888880711257
1621785778185.324,-0.1917065481002425,-0.2842619240097009,0.06219240097008892,-1.432,-5.315,-5.266
1621785778188.968,-0.213,-0.258,0.07,-1.5956502376782586,-5.315,-5.36946209657243
1621785778194.103,-0.232,-0.225,0.084,-1.8262582672298342,-5.315,-5.515255897805707
1621785778199.237,-0.223,-0.194,0.084,-2.0568224403596815,-5.315,-5.661021972361624
1621785778201.913,-0.2157027438299491,-0.18201165057777355,0.08191506966569975,-2.177,-5.315,-5.737
1621785778204.371,-0.209,-0.171,0.08,-2.230773030236151,-5.290261443389981,-5.737
1621785778209.506,-0.19,-0.15,0.077,-2.343109953652615,-5.238580269256235,-5.737
1621785778214.641,-0.175,-0.124,0.073,-2.45544687706908,-5.18689909512249,-5.737
1621785778218.506,-0.1757527101559528,-0.10819308672499048,0.07601084062381133,-2.54,-5.148,-5.737
1621785778219.776,-0.176,-0.103,0.077,-2.528753519365705,-5.148,-5.696451464379753
1621785778224.912,-0.194,-0.073,0.086,-2.4832616025065826,-5.148,-5.532432988629176
1621785778230.05,-0.218,-0.045,0.094,-2.43775454906518,-5.148,-5.368359938806431
1621785778235.103,-0.2524343299900176,-0.014501022008841562,0.11269292199458097,-2.393,-5.148,-5.207
1621785778235.186,-0.253,-0.014,0.113,-2.3929000088227506,-5.150699761785725,-5.206020086462959
1621785778240.323,-0.29,0.017,0.127,-2.3867120254095227,-5.317775313942887,-5.145377849013323
1621785778245.46,-0.318,0.07,0.143,-2.3805240419962943,-5.48485086610005,-5.084735611563685
1621785778250.598,-0.339,0.105,0.155,-2.3743348822162753,-5.651958180160574,-5.024081845719495
1621785778251.706,-0.3426663974151858,0.11017609046849758,0.1573723747980614,-2.373,-5.688,-5.011
1621785778255.736,-0.356,0.129,0.166,-2.5896928968335637,-5.802291550289595,-5.179889424631758
1621785778260.876,-0.358,0.155,0.182,-2.8660626525152146,-5.948058801046658,-5.39529071237468
1621785778266.015,-0.349,0.164,0.176,-3.1423798988622,-6.093798356510746,-5.610651074589128
1621785778268.314,-0.3364738242280285,0.16936836104513064,0.16526327790973872,-3.266,-6.159,-5.707
1621785778271.154,-0.321,0.176,0.152,-3.436995575546442,-6.224320309858741,-5.883125442812835
1621785778276.294,-0.267,0.175,0.119,-3.7464574385206744,-6.342534741514898,-6.201871161676294
1621785778281.434,-0.199,0.178,0.082,-4.055934000676162,-6.460754788258294,-6.520632020696447
1621785778284.923,-0.14537396095568328,0.16985427255023036,0.06163568137557593,-4.266,-6.541,-6.737
1621785778286.574,-0.12,0.166,0.052,-4.227944809345383,-6.592667621776505,-6.767205686577033
1621785778291.716,-0.037,0.155,0.012,-4.109412063771949,-6.7535998089780325,-6.86128911909485
1621785778296.857,0.052,0.148,-0.017,-3.990907457203732,-6.914493791786056,-6.955350216736464
1621785778301.538,0.13302203019656253,0.15164143955939607,-0.04157971702592346,-3.883,-7.061,-7.041
1621785778301.999,0.141,0.152,-0.044,-3.859613268679744,-7.069156226581441,-7.030402453897583
1621785778307.14,0.218,0.154,-0.065,-3.598779369627507,-7.160123209169055,-6.9122072588347665
1621785778312.282,0.293,0.157,-0.087,-3.337883535375799,-7.2511117919329955,-6.793983998236721
1621785778317.425,0.353,0.138,-0.103,-3.076938152964514,-7.342117654837999,-6.675738285210492
1621785778318.153,0.36177475083056476,0.13545249169435217,-0.1066797342192691,-3.04,-7.355,-6.659
1621785778322.569,0.415,0.12,-0.129,-3.1468204668654787,-7.14401629181296,-6.588583523086189
1621785778327.713,0.475,0.087,-0.166,-3.2712455230568085,-6.8982613300818265,-6.506562030820761
1621785778332.856,0.522,0.068,-0.22,-3.3956528624524394,-6.652541361225779,-6.424552217537571
1621785778334.772,0.5324292358803987,0.053101091599430474,-0.24272083531086855,-3.442,-6.561,-6.394
1621785778338.0,0.55,0.028,-0.281,-3.5429787334038307,-6.387588444366115,-6.352054987663024
1621785778343.145,0.545,-0.012,-0.358,-3.7039245682058515,-6.111194924215721,-6.285200563976031
1621785778348.291,0.517,-0.059,-0.408,-3.8649009517095525,-5.834748942544942,-6.218333450828339
1621785778351.395,0.48623156496156406,-0.0873552244471861,-0.4345453165037487,-3.962,-5.668,-6.178
1621785778353.436,0.466,-0.106,-0.452,-3.8560513392857145,-5.707776785714286,-6.194819196428571
1621785778358.582,0.426,-0.14,-0.485,-3.5889238428101504,-5.808065671992481,-6.237225299577068
1621785778363.728,0.389,-0.176,-0.496,-3.3217963463345868,-5.908354558270677,-6.279631402725564
1621785778368.02,0.3814935952177626,-0.1893447196128665,-0.496,-3.099,-5.992,-6.315
1621785778368.874,0.38,-0.192,-0.496,-2.9886925245170004,-6.016649715191732,-6.347763579775677
1621785778374.021,0.394,-0.204,-0.482,-2.3238834341417585,-6.165210405778378,-6.545225497680428
1621785778379.169,0.412,-0.197,-0.449,-1.658948206001527,-6.3137992835750785,-6.742724881085208
1621785778384.316,0.431,-0.183,-0.389,-0.9941391156262847,-6.462359974161725,-6.940186798989958
1621785778384.65,0.4308702518139138,-0.18072940674349125,-0.38309645753307725,-0.951,-6.472,-6.953
1621785778389.464,0.429,-0.148,-0.298,-0.5452818860891386,-6.520327335965131,-7.194057909335055
1621785778394.612,0.408,-0.138,-0.162,-0.11143776874422162,-6.572004916276544,-7.4518269177147385
1621785778399.761,0.346,-0.134,-0.009,0.32248864853759096,-6.623692299790141,-7.709644824701721
1621785778401.286,0.3175687055476529,-0.12778065433854907,0.025058321479374104,0.451,-6.639,-7.786
1621785778404.91,0.25,-0.113,0.106,0.5941035656639766,-6.794954570799707,-8.087236272927367
1621785778410.06,0.178,-0.08,0.195,0.7974698899486428,-7.016583624358034,-8.515327028613353
1621785778415.21,0.168,-0.042,0.283,1.0008265737344095,-7.2382021716801175,-8.943397490829053
1621785778417.924,0.17221597534960892,-0.03356804930078218,0.3277947380895947,1.108,-7.355,-9.169
1621785778420.36,0.176,-0.026,0.368,0.9299913440237086,-7.297615630639222,-9.183346092340194
1621785778425.51,0.208,-0.031,0.405,0.5536719825119937,-7.176302152257156,-9.21367446193571
1621785778430.661,0.298,-0.024,0.412,0.17728126054488635,-7.05496566951776,-9.24400858262056
1621785778434.565,0.40941177306981374,0.0032845158538319374,0.41957903218161996,-0.108,-6.963,-9.267
1621785778435.812,0.445,0.012,0.422,-0.04994262751884551,-6.885839879154078,-9.182573343501598
1621785778440.965,0.63,0.068,0.435,0.18995889185463294,-6.567003021148036,-8.833710101780424
1621785778446.117,0.815,0.143,0.452,0.429803581380342,-6.2482416918429005,-8.484929501657232
1621785778451.212,0.9653145524333033,0.22112401080415106,0.47573387669999523,0.667,-5.933,-8.14
1621785778451.269,0.967,0.222,0.476,0.6724517543216575,-5.927616864360805,-8.134716361450376
1621785778456.422,1.066,0.311,0.504,1.1642046537542337,-5.442053428734806,-7.658127648343915
1621785778461.575,1.105,0.408,0.532,1.655934255091418,-4.956512997961966,-7.181561514889374
1621785778466.728,1.082,0.51,0.559,2.147687154523994,-4.470949562335967,-6.704972801782913
1621785778467.863,1.0632851053753256,0.5333385744731234,0.5649447312337201,2.256,-4.364,-6.6
1621785778471.883,0.997,0.616,0.586,2.4404064556795024,-4.37824081267682,-6.4484198243890996
1621785778477.037,0.864,0.737,0.616,2.6768333162315483,-4.396498907928876,-6.2540794206892505
1621785778482.192,0.689,0.86,0.653,2.9132937744616605,-4.414759597766018,-6.0597114000498395
1621785778484.518,0.6032637935117215,0.9028681032441392,0.6764646459862657,3.02,-4.423,-5.972
1621785778487.347,0.499,0.955,0.705,2.652021264746831,-4.669394621528541,-6.108527412618158
1621785778492.502,0.295,1.021,0.768,1.9814533010918152,-5.118399750860995,-6.35732143328204
1621785778497.658,0.099,1.042,0.812,1.3107583058547667,-5.567489939180772,-6.606162585183557
1621785778501.177,-0.013614707135754522,1.0324448127278754,0.8222377006487049,0.853,-5.874,-6.776
1621785778502.814,-0.066,1.028,0.827,0.4426321503926855,-5.990616384362911,-6.9417387029656545
1621785778507.971,-0.188,0.979,0.808,-0.8501642832024381,-6.35799712812097,-7.463871234321885
1621785778513.128,-0.251,0.89,0.757,-2.1429607167975613,-6.725377871879029,-7.986003765678115
1621785778517.839,-0.23729669081096433,0.7931632817308147,0.6921376698385646,-3.324,-7.061,-8.463
1621785778518.285,-0.236,0.784,0.686,-3.3680831489972602,-7.063086459721958,-8.491595197984266
1621785778523.443,-0.154,0.67,0.595,-3.8781536703631545,-7.087228147019616,-8.822460117486779
1621785778528.601,-0.044,0.579,0.501,-4.388200049807363,-7.111368691677776,-9.153309376968489
1621785778533.76,0.058,0.518,0.405,-4.898342996938313,-7.1355138068939254,-9.484221276533408
1621785778534.505,0.06955298906612392,0.5145341032801628,0.3924361243905903,-4.972,-7.139,-9.532
1621785778538.918,0.138,0.494,0.318,-4.816348129164531,-6.825049117668595,-9.360729999267775
1621785778544.078,0.171,0.496,0.244,-4.63435530497181,-6.457968353225453,-9.160475990334627
1621785778549.237,0.168,0.501,0.197,-4.45238831368529,-6.090939693929853,-8.960250406385004
1621785778551.176,0.17100619824934943,0.5070123964986989,0.1782112609415661,-4.384,-5.953,-8.885
1621785778554.397,0.176,0.517,0.147,-4.279693767294769,-5.759647150114933,-8.69551034391883
1621785778559.557,0.182,0.525,0.089,-4.112596653050468,-5.449898610562071,-8.391950586375016
1621785778564.719,0.159,0.511,0.021,-3.9454283831861905,-5.14001816957292,-8.088261562788245
1621785778567.851,0.13654090371421812,0.4921829193281287,-0.010564135320558315,-3.844,-4.952,-7.904
1621785778569.879,0.122,0.48,-0.031,-3.736766192894887,-4.9616048421329975,-7.766857443974414
1621785778575.041,0.065,0.449,-0.079,-3.463788632404819,-4.986055213197301,-7.417743284980312
1621785778580.202,0.005,0.424,-0.119,-3.1908756239296223,-5.010499802391791,-7.068711682304551
1621785778584.53,-0.0427911464245176,0.3804010594021945,-0.13744570563753308,-2.962,-5.031,-6.776
1621785778585.364,-0.052,0.372,-0.141,-2.928656344665096,-5.0540456148566575,-6.748055317343011
1621785778590.527,-0.129,0.323,-0.152,-2.7222302255132953,-5.196717940087512,-6.575053517334231
1621785778595.69,-0.213,0.276,-0.159,-2.515813867384719,-5.339383518943995,-6.40205989785316
1621785778600.854,-0.271,0.229,-0.157,-2.30934870414002,-5.48208282967234,-6.229025375733539
1621785778601.213,-0.2730157934556459,0.22615008511443163,-0.15727804047664082,-2.295,-5.492,-6.217
1621785778606.017,-0.3,0.188,-0.161,-2.1792572206127643,-5.5202159014426595,-6.332742779387235
1621785778611.181,-0.311,0.154,-0.169,-2.0548504960056184,-5.550543908933953,-6.457149503994382
1621785778616.345,-0.312,0.117,-0.175,-1.9304378895619347,-5.580873350305797,-6.581562110438065
1621785778617.899,-0.30989397806768765,0.10586816978634903,-0.1753008602760446,-1.893,-5.59,-6.619
1621785778621.51,-0.305,0.08,-0.176,-1.7889370602776193,-5.615312606959498,-6.610562464346834
1621785778626.676,-0.309,0.045,-0.187,-1.6400646510743488,-5.651524814603537,-6.598491728465488
1621785778631.841,-0.304,0.017,-0.188,-1.4912203841034417,-5.687730176839703,-6.586423274386766
1621785778634.59,-0.29921077504725896,0.0015680529300567108,-0.1949177693761815,-1.412,-5.707,-6.58
1621785778637.007,-0.295,-0.012,-0.201,-1.2870592261121347,-5.719884969728876,-6.530342195314557
1621785778642.173,-0.279,-0.03,-0.202,-1.0200140972770613,-5.747424965634231,-6.424204907724255
1621785778647.339,-0.267,-0.045,-0.209,-0.7529689684419877,-5.774964961539586,-6.318067620133953
1621785778651.285,-0.25249329176114893,-0.051871598639455785,-0.209,-0.549,-5.796,-6.237
1621785778652.507,-0.248,-0.054,-0.209,-0.4880386819484241,-5.779460674814339,-6.198213086953979
1621785778657.675,-0.244,-0.049,-0.22,-0.23026217765042983,-5.709523712063622,-6.034201625635927
1621785778662.842,-0.253,-0.045,-0.223,0.027465616045845187,-5.639599964914333,-5.8702211566575055
1621785778667.985,-0.2639469954648526,-0.046990362811791385,-0.22001445578231293,0.284,-5.57,-5.707
1621785778668.01,-0.264,-0.047,-0.22,0.2845411971058978,-5.570117781188336,-5.706254549440912
1621785778673.178,-0.291,-0.031,-0.209,0.3968555141416356,-5.594560841920631,-5.551551633413725
1621785778678.347,-0.328,-0.016,-0.199,0.509191054593291,-5.619008521523058,-5.39681948403128
1621785778683.516,-0.363,-0.005,-0.182,0.6215319008989257,-5.643457355843017,-5.24208002631002
1621785778684.688,-0.3716118980169972,-0.003413597733711048,-0.17905382436260622,0.647,-5.649,-5.207
1621785778688.687,-0.401,0.002,-0.169,0.7527916885849553,-5.740430825881115,-5.293883219358232
1621785778693.857,-0.44,0.014,-0.152,0.8895587702378864,-5.858632240341341,-5.406205505874102
1621785778699.027,-0.463,0.021,-0.119,1.0263323104798645,-5.976839236659068,-5.518533096615816
1621785778701.396,-0.4666649669499528,0.023290604343720493,-0.09746831916902737,1.089,-6.031,-5.57
1621785778704.198,-0.471,0.026,-0.072,1.0494241379310345,-6.098413120981881,-5.671958153126827
1621785778709.368,-0.471,0.03,-0.031,0.976403448275862,-6.222795821157217,-5.860079251899474
1621785778714.541,-0.469,0.037,-0.009,0.9033379310344827,-6.347254880187025,-6.048315838690824
1621785778718.105,-0.46555382436260623,0.03286458923512748,0.0006492917847025492,0.853,-6.433,-6.178
1621785778719.712,-0.464,0.031,0.005,0.7776244138998846,-6.465976818918801,-6.2223216137655015
1621785778724.885,-0.449,0.017,0.005,0.5349727436058486,-6.572136924672441,-6.365003271935847
1621785778730.057,-0.419,-0.002,0.002,0.29237833218912956,-6.678271979667255,-6.507651261302056
1621785778734.819,-0.37389197224975224,-0.025934871867478414,0.0001588560101939687,0.069,-6.776,-6.639
1621785778735.23,-0.37,-0.028,0.0,0.04488761829652997,-6.782513538380652,-6.642367376445847
1621785778740.403,-0.302,-0.063,0.0,-0.2586876971608833,-6.864519102698914,-6.684762705923589
1621785778745.578,-0.225,-0.094,-0.005,-0.562363301787592,-6.946551758382989,-6.7271720411263
1621785778750.751,-0.15,-0.133,-0.003,-0.8659386172450052,-7.028557322701251,-6.769567370604042
1621785778751.536,-0.139382931546917,-0.13664013775534276,-0.004061706845308298,-0.912,-7.041,-6.776
1621785778755.926,-0.08,-0.157,-0.01,-1.0227957950065703,-6.945694612352169,-6.825096714848883
1621785778761.101,-0.003,-0.185,-0.005,-1.153400759234925,-6.8333495838808584,-6.882971426485618
1621785778766.277,0.054,-0.206,0.005,-1.2840303693969923,-6.720983355234341,-6.940857059424734
1621785778768.257,0.07274834874504624,-0.21212190979430082,0.01494810341573882,-1.334,-6.678,-6.963
1621785778771.452,0.103,-0.222,0.031,-1.19916366502233,-6.546983391225663,-7.015330248985668
1621785778776.628,0.129,-0.23,0.072,-0.9807114918707494,-6.334719664905572,-7.100111970577075
1621785778781.804,0.138,-0.229,0.113,-0.7622593187191686,-6.122455938585481,-7.184893692168481
1621785778784.985,0.13492761141240275,-0.22961447771751947,0.14741075218108937,-0.628,-5.992,-7.237
1621785778786.981,0.133,-0.23,0.169,-0.589349773821684,-5.953349773821684,-7.2593073836276085
1621785778792.157,0.113,-0.223,0.22,-0.4891144900043777,-5.853114490004378,-7.317159229534511
1621785778797.336,0.089,-0.223,0.258,-0.3888224719101123,-5.752822471910113,-7.375043820224719
1621785778801.716,0.06277665142156633,-0.21623268423782357,0.2850692630487057,-0.304,-5.668,-7.424
1621785778802.514,0.058,-0.215,0.29,-0.3386148055207026,-5.662421580928482,-7.43987703889586
1621785778807.692,0.044,-0.194,0.297,-0.5632615038954218,-5.626218187388755,-7.542917466662776
1621785778812.87,0.026,-0.187,0.29,-0.7879187943158938,-5.590013086866447,-7.645962752764728
1621785778818.049,0.012,-0.185,0.269,-1.0126078608736249,-5.553802865396399,-7.749022613871786
1621785778818.45,0.012928864375618725,-0.18569664828171403,0.26559416395606467,-1.03,-5.551,-7.757
1621785778823.228,0.024,-0.194,0.225,-1.4079960029758867,-5.660059269740777,-7.667354422254963
1621785778828.409,0.04,-0.215,0.162,-1.8178602500328225,-5.778313153710376,-7.570150967892518
1621785778833.588,0.068,-0.258,0.077,-2.2275699843911836,-5.896522457732199,-7.472984157780338
1621785778835.186,0.07293525586655358,-0.27157195363302233,0.043995476392422954,-2.354,-5.933,-7.443
1621785778838.769,0.084,-0.302,-0.03,-2.471500459377871,-6.079822067637923,-7.201578291114319
1621785778843.949,0.099,-0.354,-0.152,-2.6413701273132957,-6.2920817984279065,-6.852556459727873
1621785778849.13,0.12,-0.405,-0.284,-2.811271820448878,-6.504381546134663,-6.503468827930175
1621785778851.927,0.13511335154998586,-0.42551097710355223,-0.3493112691981532,-2.903,-6.619,-6.315
1621785778854.312,0.148,-0.443,-0.405,-2.953274915442034,-6.592509534639608,-6.418398268019595
1621785778859.495,0.213,-0.478,-0.51,-3.0625324090272916,-6.534940430370889,-6.643103481455563
1621785778864.677,0.298,-0.492,-0.585,-3.171764170748775,-6.477384884534639,-6.86775577326802
1621785778868.673,0.38437060070671375,-0.5058809893992933,-0.6197024734982333,-3.256,-6.433,-7.041
1621785778869.859,0.41,-0.51,-0.63,-3.4358259576701067,-6.266413197481196,-7.039654845198531
1621785778875.042,0.496,-0.553,-0.691,-4.221847180922395,-5.538260465862049,-7.0337751588828645
1621785778880.226,0.527,-0.599,-0.775,-5.008016500495598,-4.809970541076322,-7.027894364760073
1621785778885.41,0.497,-0.67,-0.873,-5.794148795988573,-4.081714914582241,-7.022013847589062
1621785778885.422,0.49681633229725913,-0.6701483469906754,-0.8732095695582556,-5.796,-4.08,-7.022
1621785778890.594,0.419,-0.733,-0.962,-5.583900664568031,-4.2615348023784545,-6.240597644864172
1621785778895.779,0.309,-0.778,-1.012,-5.371260668065758,-4.443532353969919,-5.457203421942404
1621785778900.963,0.209,-0.805,-1.005,-5.158670732773697,-4.625487058412032,-4.673993631223038
1621785778902.174,0.18657528957528957,-0.8017297297297298,-0.9951891891891891,-5.109,-4.668,-4.491
1621785778906.148,0.113,-0.791,-0.963,-4.481110190108529,-4.754074018500983,-4.619043994464272
1621785778911.334,0.021,-0.744,-0.908,-3.661694121931677,-4.866403336004079,-4.786145458518464
1621785778916.521,-0.098,-0.705,-0.848,-2.842123752640396,-4.978753805812514,-4.953278388812003
1621785778918.933,-0.1621860465116279,-0.6863953488372093,-0.8107906976744186,-2.461,-5.031,-5.031
1621785778921.707,-0.236,-0.665,-0.768,-2.1283858522305237,-5.227258895151541,-5.190025968162421
1621785778926.894,-0.4,-0.642,-0.684,-1.506424913706471,-5.594246792211007,-5.487391372103523
1621785778932.081,-0.555,-0.593,-0.586,-0.8844639751824179,-5.961234689270474,-5.784756776044625
1621785778935.696,-0.659539678057046,-0.5581534406476514,-0.5135191565471148,-0.451,-6.217,-5.992
1621785778937.268,-0.705,-0.543,-0.482,-0.3535800387342915,-6.47269223712376,-6.144646484062149
1621785778942.456,-0.831,-0.49,-0.379,-0.03207449798319578,-7.316528242540737,-6.648410699983982
1621785778947.645,-0.906,-0.44,-0.278,0.2894915614579237,-8.16052308767638,-7.152269742111164
1621785778952.462,-0.9124992941176471,-0.39079105882352944,-0.1805105882352941,0.588,-8.944,-7.62
1621785778952.833,-0.913,-0.387,-0.173,0.5556609873307121,-8.954846075433233,-7.688595893403233
1621785778958.022,-0.85,-0.337,-0.098,0.10346797728265617,-9.106505606523955,-8.64776505024028
1621785778963.212,-0.726,-0.298,-0.073,-0.3488101354303189,-9.25819367991845,-9.607114722586282
1621785778968.401,-0.546,-0.286,-0.079,-0.8010031454783747,-9.409853211009173,-10.566283879423327
1621785778969.227,-0.5109524526880709,-0.28791168439883247,-0.08553158836267771,-0.873,-9.434,-10.719
1621785778973.587,-0.326,-0.298,-0.12,-1.2105880289709834,-9.311709075449064,-11.035437935589668
1621785778978.49,-0.096,-0.337,-0.159,-1.5902375074021773,-9.174181433061541,-11.391302145492643
1621785778983.392,0.127,-0.377,-0.187,-1.969811369744454,-9.036681182526307,-11.747095476700222
1621785778985.306,0.21172273134774378,-0.38793196533519275,-0.19012341866719792,-2.118,-8.983,-11.886
1621785778988.294,0.344,-0.405,-0.195,-2.204988775997903,-8.740525862999338,-11.427091750050106
1621785778993.195,0.525,-0.435,-0.208,-2.3476719754552042,-8.342808051063043,-10.674368233607252
1621785778998.096,0.663,-0.466,-0.215,-2.490348067405683,-7.945110050723856,-9.921682212731842
1621785779001.141,0.7183085048079318,-0.47780743361068206,-0.215,-2.579,-7.698,-9.454
1621785779002.996,0.752,-0.485,-0.215,-2.462996422127292,-7.5452033681353425,-9.059822185895163
1621785779007.895,0.81,-0.497,-0.209,-2.1566358280770475,-7.141673858396435,-8.018815076415342
1621785779012.793,0.784,-0.501,-0.197,-1.85033630461268,-6.7382247891059945,-6.978015483552581
1621785779016.972,0.6850084754212783,-0.48137237012663275,-0.14665086249875361,-1.589,-6.394,-6.09
1621785779017.69,0.668,-0.478,-0.138,-1.5435856318647414,-6.352169782796495,-6.004570174626681
1621785779022.588,0.503,-0.449,-0.056,-1.233792006047143,-6.066825404171295,-5.421811535850919
1621785779027.484,0.312,-0.394,0.021,-0.9241219147229421,-5.781594810563989,-4.839285280143157
1621785779032.38,0.124,-0.337,0.098,-0.6144518233987413,-5.4963642169566835,-4.256759024435394
1621785779032.798,0.1099856330439988,-0.3322146064052679,0.10466536964980545,-0.588,-5.472,-4.207
1621785779037.274,-0.04,-0.281,0.176,-0.6686486740962554,-5.363902478930633,-4.354148458000185
1621785779042.168,-0.182,-0.218,0.25,-0.7568330040440836,-5.245704534930386,-4.515046182817276
1621785779047.062,-0.281,-0.168,0.302,-0.8450173339919118,-5.127506590930139,-4.675943907634366
1621785779048.615,-0.30162992715297876,-0.15022652429897215,0.314060572797126,-0.873,-5.09,-4.727
1621785779051.955,-0.346,-0.112,0.34,-1.0677969546282855,-5.106479568829725,-4.905106109275103
1621785779056.847,-0.398,-0.063,0.361,-1.3530938320412638,-5.1306153133397165,-5.165957809556167
1621785779061.739,-0.435,-0.009,0.367,-1.638404947956883,-5.1547522624085,-5.426822528338018
1621785779064.424,-0.43664731139847224,0.012415048180138803,0.3724910379949074,-1.795,-5.168,-5.57
1621785779066.629,-0.438,0.03,0.377,-1.8619696735620819,-5.2158554125662375,-5.63431879065025
1621785779071.519,-0.438,0.063,0.382,-2.0105027885491817,-5.321994700984103,-5.776972469835777
1621785779076.408,-0.419,0.098,0.389,-2.1589988258740287,-5.428107494322483,-5.919590539016514
1621785779080.227,-0.4174380429355966,0.11674348477284074,0.3975907638542187,-2.275,-5.511,-6.031
1621785779081.298,-0.417,0.122,0.4,-2.3188727123778903,-5.516356946333622,-6.007741359589464
1621785779086.186,-0.419,0.143,0.408,-2.519095090886608,-5.54080450105107,-5.901595647335229
1621785779091.073,-0.429,0.157,0.414,-2.719277466922221,-5.565247171386175,-5.7954711419562255
1621785779095.959,-0.443,0.169,0.421,-2.9194198404847285,-5.589684957338939,-5.689367843452454
1621785779096.022,-0.4432578324089342,0.1691418078249138,0.42109024134312695,-2.922,-5.59,-5.688
1621785779100.845,-0.463,0.18,0.428,-3.0869610317313048,-5.502937233252922,-5.720992206346261
1621785779105.731,-0.478,0.199,0.426,-3.254076452031917,-5.4147374280942655,-5.754415290406383
1621785779110.615,-0.497,0.202,0.435,-3.421125069586194,-5.32657287994062,-5.787825013917239
1621785779111.81,-0.5026278430392402,0.20640439890027495,0.4345106223444139,-3.462,-5.305,-5.796
1621785779115.499,-0.52,0.22,0.433,-3.5421796129271805,-5.339362691254506,-5.889971441389873
1621785779120.382,-0.552,0.218,0.428,-3.6483127987747337,-5.384848342332028,-6.014360772907997
1621785779125.264,-0.565,0.225,0.424,-3.7544194526524235,-5.430322622565324,-6.13871900864803
1621785779127.591,-0.56833603319834,0.22690630468476577,0.4206639668016599,-3.805,-5.452,-6.198
1621785779130.147,-0.572,0.229,0.417,-3.808241276819716,-5.58554060497229,-6.266228877055018
1621785779135.028,-0.562,0.23,0.417,-3.81443125174154,-5.840567571751447,-6.396527849159416
1621785779139.908,-0.525,0.236,0.415,-3.8206196786278213,-6.095530759466238,-6.526794235115638
1621785779143.362,-0.48677937865826204,0.23175326429536244,0.40792210715893745,-3.825,-6.276,-6.619
1621785779144.788,-0.471,0.23,0.405,-3.863079517475262,-6.319506527091689,-6.6420647908698145
1621785779149.667,-0.396,0.23,0.377,-3.993362187775834,-6.468356798860275,-6.720977097108878
1621785779154.545,-0.304,0.216,0.347,-4.123618780680428,-6.617177276739396,-6.799873608250615
1621785779159.128,-0.22318746558542324,0.2131809581018171,0.3094127746908945,-4.246,-6.757,-6.874
1621785779159.422,-0.218,0.213,0.307,-4.2392226801568,-6.760659379309276,-6.8721703103453615
1621785779164.3,-0.115,0.206,0.267,-4.126848530391534,-6.82133522876931,-6.841832385615345
1621785779169.176,-0.033,0.208,0.229,-4.0145193752808295,-6.881986783594924,-6.811506608202538
1621785779174.052,0.033,0.211,0.204,-3.9021902201701244,-6.942638338420539,-6.78118083078973
1621785779174.885,0.043425365658184736,0.2125381687036666,0.20160729312762973,-3.883,-6.953,-6.776
1621785779178.926,0.094,0.22,0.19,-3.666709449404762,-7.046135788690476,-6.637707465277778
1621785779183.801,0.147,0.239,0.182,-3.4057808779761904,-7.158492931547619,-6.470874131944444
1621785779188.675,0.192,0.264,0.183,-3.1449045758928573,-7.270827566964286,-6.30407421875
1621785779190.635,0.20728683102826218,0.270034275405893,0.17817257967528563,-3.04,-7.316,-6.237
1621785779193.547,0.23,0.279,0.171,-3.069039899514631,-7.301387566486269,-6.180769876099059
1621785779198.419,0.278,0.278,0.169,-3.117622326980632,-7.276941631646689,-6.08669944329865
1621785779203.291,0.318,0.279,0.15,-3.166207189045854,-7.252494471753997,-5.992624296369811
1621785779206.379,0.3420950518875019,0.27265919687171003,0.1303435103023011,-3.197,-7.237,-5.933
1621785779208.161,0.356,0.269,0.119,-3.296992506399814,-7.145953595531767,-5.944097696067024
1621785779213.032,0.394,0.251,0.08,-3.5703245364983323,-6.8970759599720735,-5.974433527267085
1621785779217.901,0.428,0.225,0.033,-3.8435332712745325,-6.648310588782872,-6.00475567450159
1621785779222.115,0.4461749398315283,0.19817032691536302,-0.01806292619334135,-4.08,-6.433,-6.031
1621785779222.77,0.449,0.194,-0.026,-4.115520704640695,-6.388901024367531,-6.033456883439391
1621785779227.637,0.463,0.162,-0.093,-4.379443644265094,-6.061240540121061,-6.051711811268043
1621785779232.505,0.476,0.112,-0.164,-4.643419540586683,-5.733514310103988,-6.069970401986652
1621785779237.371,0.485,0.068,-0.236,-4.907302762688189,-5.405903135185472,-6.088222582647835
1621785779237.845,0.48402633559066965,0.06371587659894658,-0.24223145221971407,-4.933,-5.374,-6.09
1621785779242.238,0.475,0.024,-0.3,-4.815054208539786,-5.242359081095354,-6.024319286746089
1621785779247.103,0.461,-0.016,-0.36,-4.684438126155232,-5.096576676348612,-5.95158284276417
1621785779251.967,0.438,-0.054,-0.401,-4.553848262686197,-4.950823534893835,-5.878860999363167
1621785779253.563,0.43110962204487274,-0.06253094413491944,-0.4108433970787532,-4.511,-4.903,-5.855
1621785779256.831,0.417,-0.08,-0.431,-4.172398259788689,-4.9826587632069606,-5.7040019266625235
1621785779261.695,0.412,-0.094,-0.452,-3.668441702921069,-5.101218567433188,-5.479264543194531
1621785779266.557,0.419,-0.099,-0.456,-3.164712802983219,-5.219724813548788,-5.254628682411435
1621785779269.276,0.42067768014059753,-0.09340773286467487,-0.44984850615114236,-2.883,-5.286,-5.129
1621785779271.419,0.422,-0.089,-0.445,-2.6007057634916686,-5.366226684904253,-5.090114617010694
1621785779276.28,0.415,-0.058,-0.4,-1.9603821655060931,-5.54820361850286,-5.00191151143994
1621785779281.14,0.377,0.005,-0.33,-1.3202193639641882,-5.7301348545138024,-4.9137305552101465
1621785779284.983,0.3200676646405787,0.06904887727934897,-0.2430200432008841,-0.814,-5.874,-4.844
1621785779286.0,0.305,0.086,-0.22,-0.7415782435626321,-5.893692499067048,-4.981264491852221
1621785779290.859,0.206,0.182,-0.079,-0.39560181614628687,-5.987768379151635,-5.637010511257619
1621785779295.718,0.084,0.278,0.073,-0.049608004726956145,-6.081848986192313,-6.292789479412862
1621785779300.575,-0.024,0.319,0.209,0.2962293506655055,-6.175887050628187,-6.948271908819505
1621785779300.684,-0.026561475821855838,0.3187753091384337,0.21113456318487986,0.304,-6.178,-6.963
1621785779305.432,-0.138,0.309,0.304,0.22079489373619193,-6.189799996888322,-8.037102280860069
1621785779310.288,-0.211,0.3,0.347,0.13569010797523104,-6.201869402868967,-9.135727697047017
1621785779315.143,-0.204,0.298,0.386,0.05060671500140024,-6.213935774963438,-10.234076951800105
1621785779316.376,-0.17886425339366516,0.2990155857214681,0.399710407239819,0.029,-6.217,-10.513
1621785779319.999,-0.105,0.302,0.44,0.1627332295719844,-6.359741167315175,-10.898031595330739
1621785779324.853,0.079,0.29,0.497,0.34190331517509726,-6.550979704280156,-11.41388052918288
1621785779329.706,0.295,0.271,0.531,0.521037354085603,-6.742179766536965,-11.929625680933851
1621785779332.062,0.39743233725726934,0.25886346714961267,0.5343982291981085,0.608,-6.835,-12.18
1621785779334.559,0.506,0.246,0.538,0.7236246087728313,-6.7709764562993415,-11.86609352081095
1621785779339.412,0.691,0.244,0.534,0.9483397019666464,-6.6465474377540055,-11.2560199000327
1621785779344.263,0.836,0.265,0.534,1.172953052739758,-6.52217475592096,-10.646222497313962
1621785779347.741,0.8912059386009059,0.27503744338198294,0.530415198792149,1.334,-6.433,-10.209
1621785779349.114,0.913,0.279,0.529,1.3622982879753245,-6.3909468166310965,-10.003640287881856
1621785779353.964,0.942,0.309,0.52,1.4622580655211628,-6.24239977879208,-9.278235586434658
1621785779358.813,0.948,0.382,0.513,1.562192684560622,-6.093890128207126,-8.553013459411462
1621785779363.413,0.9413594804148625,0.4322782197160407,0.5148972913100393,1.657,-5.953,-7.865
1621785779363.662,0.941,0.435,0.515,1.6403253334995638,-5.953619935170178,-7.8434930183268925
1621785779368.51,0.895,0.497,0.525,1.3157088112454807,-5.965688614262561,-7.424802689814237
1621785779373.357,0.817,0.562,0.524,0.9911576798404189,-5.977754862236629,-7.006196702406184
1621785779378.204,0.7,0.62,0.518,0.6665902007231018,-5.989821717990275,-6.58756962972198
1621785779379.079,0.6763414462081129,0.6293911816578484,0.5174582010582011,0.608,-5.992,-6.512
1621785779383.049,0.569,0.672,0.515,0.1579044864097806,-6.2057636720882,-6.3304403449405084
1621785779387.895,0.452,0.724,0.515,-0.39150488873641365,-6.4666944344815755,-6.108819436430832
1621785779392.74,0.351,0.759,0.503,-0.9408035460882312,-6.72757261371965,-5.887243189296241
1621785779394.735,0.3192792761002168,0.7684750214246105,0.4918771487624137,-1.167,-6.835,-5.796
1621785779397.583,0.274,0.782,0.476,-1.4792311651848387,-6.897409842458274,-5.935193963500234
1621785779402.426,0.225,0.78,0.449,-2.0101981282171266,-7.003541350803307,-6.17190126345344
1621785779407.269,0.192,0.785,0.414,-2.541165091249415,-7.109672859148339,-6.408608563406645
1621785779410.387,0.178477537437604,0.7920831946755408,0.3856672212978369,-2.883,-7.178,-6.561
1621785779412.111,0.171,0.796,0.37,-2.931602359624208,-7.072088735603483,-6.6982107431567774
1621785779416.952,0.148,0.791,0.312,-3.068063360279659,-6.774721339617341,-7.083457785823527
1621785779421.792,0.127,0.771,0.26,-3.20450371422329,-6.4773989356721495,-7.468646540154187
1621785779426.031,0.09809815889029004,0.7412223455233291,0.21270607818411097,-3.324,-6.217,-7.806
1621785779426.632,0.094,0.737,0.206,-3.296131493075614,-6.200048259925993,-7.820722259520055
1621785779431.471,0.079,0.698,0.155,-3.071779824821621,-6.0635805555121856,-7.939241830473544
1621785779436.309,0.075,0.661,0.11,-2.8474621149432466,-5.927133507158581,-8.057743462036878
1621785779441.147,0.068,0.628,0.075,-2.623155724523412,-5.790693344158378,-8.176239113803494
1621785779441.668,0.06627660004037957,0.6231529376135675,0.07176862507571169,-2.599,-5.776,-8.189
1621785779445.984,0.052,0.583,0.045,-2.4824666416733057,-5.7461762969211305,-8.048165846572005
1621785779450.82,0.037,0.545,0.033,-2.351885733477045,-5.712757486292704,-7.890354796382211
1621785779455.656,0.017,0.504,0.014,-2.221311417279785,-5.679340362716154,-7.732551712826281
1621785779457.297,0.009531111111111112,0.49177818181818184,0.00687060606060606,-2.177,-5.668,-7.679
1621785779460.49,-0.005,0.468,-0.007,-2.2170570080167527,-5.577871731962308,-7.614827038177244
1621785779465.324,-0.017,0.44,-0.047,-2.277703036364489,-5.441418168179901,-7.517669625416074
1621785779470.158,-0.031,0.375,-0.086,-2.3383490647122254,-5.304964604397494,-7.420512212654905
1621785779472.92,-0.031,0.34928344109921194,-0.10085845625378864,-2.373,-5.227,-7.365
1621785779474.991,-0.031,0.33,-0.112,-2.357482074453947,-5.241324238965587,-7.268709282509108
1621785779479.823,-0.045,0.272,-0.14,-2.3212766303413126,-5.2747446489157115,-7.044049860066606
1621785779484.655,-0.068,0.222,-0.164,-2.2850711862286777,-5.308165058865836,-6.8193904376241035
1621785779488.535,-0.10896704407602104,0.17942640517589972,-0.17926223210675293,-2.256,-5.335,-6.639
1621785779489.485,-0.119,0.169,-0.183,-2.244006257137047,-5.344558465124282,-6.609776667135952
1621785779494.316,-0.182,0.136,-0.199,-2.1830298465437137,-5.393153878642827,-6.461204702238491
1621785779499.145,-0.23,0.101,-0.204,-2.1220750074303503,-5.441732100677335,-6.312685297292224
1621785779503.974,-0.272,0.08,-0.223,-2.061120168316987,-5.490310322711843,-6.164165892345957
1621785779504.142,-0.2733571392443478,0.07940842648323301,-0.22362637195892976,-2.059,-5.492,-6.159
1621785779508.801,-0.311,0.063,-0.241,-1.918598159077034,-5.51530073104679,-6.20560146209358
1621785779513.628,-0.337,0.037,-0.251,-1.7731344061614565,-5.539441524083844,-6.253883048167687
1621785779518.456,-0.36,0.016,-0.267,-1.62763386609477,-5.56358842222257,-6.302176844445141
1621785779519.738,-0.3639854779132723,0.009888933866315843,-0.26992268380306633,-1.589,-5.57,-6.315
1621785779523.281,-0.375,-0.007,-0.278,-1.406281884239539,-5.587953645702831,-6.370906289150589
1621785779528.107,-0.372,-0.019,-0.281,-1.1573989601603607,-5.612408559884741,-6.4470570345778
1621785779532.931,-0.367,-0.031,-0.283,-0.9086167627161112,-5.636853576797795,-6.523176960661488
1621785779535.328,-0.3600435750797105,-0.03547198744875753,-0.283,-0.785,-5.649,-6.561
1621785779537.755,-0.353,-0.04,-0.283,-0.6764445541141819,-5.65507412107539,-6.5318753681769754
1621785779542.579,-0.34,-0.044,-0.288,-0.46066589897850474,-5.667147819138936,-6.473983533872282
1621785779547.401,-0.335,-0.037,-0.29,-0.2449964435670866,-5.679215407031396,-6.416120997054584
1621785779550.911,-0.3328158201245759,-0.03263164024915177,-0.284903580290677,-0.088,-5.688,-6.374
1621785779552.222,-0.332,-0.031,-0.283,-0.027746129254685635,-5.7086175954365945,-6.343452297373535
1621785779557.043,-0.332,-0.017,-0.264,0.1938242963705886,-5.784434291355858,-6.231119805052341
1621785779561.864,-0.332,0.0,-0.239,0.4153947219958628,-5.86025098727512,-6.118787312731148
1621785779566.49,-0.35215846800749784,0.006719489335832616,-0.21212204265666953,0.628,-5.933,-6.011
1621785779566.683,-0.353,0.007,-0.211,0.6296995545936451,-5.935195774912957,-6.009300445406355
1621785779571.503,-0.375,0.031,-0.183,0.6721175151344061,-5.989998541451021,-5.966882484865594
1621785779576.321,-0.408,0.044,-0.155,0.7145204353690285,-6.044781876352687,-5.924479564630971
1621785779581.138,-0.44,0.052,-0.126,0.7569126125278379,-6.099551331514069,-5.882087387472162
1621785779582.057,-0.4462952714003345,0.05333536060007095,-0.12161238659976686,0.765,-6.11,-5.874
1621785779585.955,-0.473,0.059,-0.103,0.7452097179076846,-6.276839593335216,-5.9281101383789885
1621785779590.771,-0.494,0.058,-0.08,0.7207603470457185,-6.482957074272805,-5.9949590511155035
1621785779595.588,-0.504,0.059,-0.061,0.696306018387775,-6.689116351313189,-6.061821519344818
1621785779597.618,-0.49683153303920075,0.060686698108423344,-0.0529881839849891,0.686,-6.776,-6.09
1621785779600.402,-0.487,0.063,-0.042,0.6790194933609568,-6.891983802617949,-6.223345575540697
1621785779605.216,-0.445,0.058,-0.016,0.6669499011206329,-7.092524719841793,-6.453905735003296
1621785779610.03,-0.387,0.049,0.012,0.6548803088803089,-7.293065637065637,-6.684465894465895
1621785779613.173,-0.34977680835954145,0.043122653951506544,0.023754692096986912,0.647,-7.424,-6.835
1621785779614.843,-0.33,0.04,0.03,0.5775087620124364,-7.430229508196722,-6.863462408140192
1621785779619.655,-0.272,0.035,0.042,0.3772642736009045,-7.448180327868853,-6.945479084228378
1621785779624.467,-0.206,0.014,0.044,0.1770197851893725,-7.466131147540984,-7.027495760316563
1621785779628.721,-0.1564748756471424,-0.0028031671911481083,0.04046249111765303,0.0,-7.482,-7.1
1621785779629.277,-0.15,-0.005,0.04,-0.02666567154798567,-7.485543491923827,-7.088403117340205
1621785779634.087,-0.084,-0.037,0.035,-0.25728041920683803,-7.516188941612721,-6.9881089183583684
1621785779638.897,-0.028,-0.066,0.019,-0.48790687260385895,-7.546835946829238,-6.887809628558858
1621785779643.706,0.044,-0.093,0.019,-0.7184865030482056,-7.577476729935265,-6.7875307020300415
1621785779644.259,0.05274295291787292,-0.09530077708365077,0.018654883437452384,-0.745,-7.581,-6.776
1621785779648.513,0.12,-0.113,0.016,-0.8120964902629552,-7.502948980714522,-6.708903509737045
1621785779653.32,0.195,-0.145,0.019,-0.887918912971724,-7.41474738695126,-6.633081087028276
1621785779658.128,0.269,-0.182,0.024,-0.9637528881065023,-7.32653235465162,-6.557247111893497
1621785779659.792,0.29012039012496194,-0.188924718073758,0.0326558975921975,-0.99,-7.296,-6.531
1621785779662.934,0.33,-0.202,0.049,-0.9126869004560465,-7.158981758138072,-6.475545054253813
1621785779667.739,0.372,-0.223,0.075,-0.7944585312156,-6.949451376002516,-6.3907425066834405
1621785779672.543,0.398,-0.236,0.11,-0.6762541909105205,-6.739963579179117,-6.3059571945274415
1621785779675.317,0.4020427997763432,-0.23484491434961624,0.13136908453209983,-0.608,-6.619,-6.257
1621785779677.346,0.405,-0.234,0.147,-0.5348991880920162,-6.5138603707083735,-6.264584699625515
1621785779682.149,0.386,-0.213,0.185,-0.3618619756427605,-6.264983950656135,-6.282538471221324
1621785779686.953,0.351,-0.187,0.225,-0.1887895805142084,-6.016056927966769,-6.300495893256129
1621785779690.833,0.30816608187134503,-0.17810994152046783,0.2452046783625731,-0.049,-5.815,-6.315
1621785779691.754,0.298,-0.176,0.25,-0.10023693198810067,-5.7865020540506515,-6.3231931594604385
1621785779696.555,0.257,-0.161,0.267,-0.3673563030236255,-5.637930445595202,-6.36590749689138
1621785779701.355,0.215,-0.145,0.264,-0.6344213400909764,-5.489389057655077,-6.408613145924166
1621785779706.155,0.18,-0.154,0.253,-0.9014863771583272,-5.340847669714951,-6.4513187949569515
1621785779706.344,0.17881898174050148,-0.15384253089873354,0.252173287218351,-0.912,-5.335,-6.453
1621785779710.955,0.15,-0.15,0.232,-1.4078521639158375,-5.2853255480660195,-6.411951650497669
1621785779715.753,0.112,-0.164,0.188,-1.9237883488723702,-5.233639079627063,-6.369240676578053
1621785779720.55,0.077,-0.183,0.126,-2.4396457729620766,-5.18196050144891,-6.326536222754189
1621785779721.846,0.06457288273615636,-0.19245541530944626,0.1003353013029316,-2.579,-5.168,-6.315
1621785779725.347,0.031,-0.218,0.031,-2.6786272606969566,-5.294284895078455,-6.374866721280484
1621785779730.143,-0.007,-0.253,-0.093,-2.815111049845611,-5.467288156153507,-6.456880789589766
1621785779734.939,-0.026,-0.29,-0.192,-2.9515878914865463,-5.64028261075052,-6.538890683092823
1621785779737.343,-0.027002749490835032,-0.29350962321792257,-0.22960310590631366,-3.02,-5.727,-6.58
1621785779739.734,-0.028,-0.297,-0.267,-3.2834576444815684,-5.717893965422137,-6.820769727821468
1621785779744.528,-0.01,-0.309,-0.33,-3.8117449685584153,-5.69963447384596,-7.303563064411909
1621785779749.322,0.005,-0.344,-0.435,-4.340005389985974,-5.681375912121164,-7.786331815101417
1621785779752.834,0.018189180929095352,-0.3696456295843521,-0.5346515892420538,-4.727,-5.668,-8.14
1621785779754.115,0.023,-0.379,-0.571,-4.701848024220253,-5.671226733734902,-8.210574458355673
1621785779758.907,0.045,-0.379,-0.698,-4.60775940584692,-5.683297313065691,-8.474579693462424
1621785779763.698,0.099,-0.386,-0.768,-4.513689961840487,-5.695365432527042,-8.738531126809423
1621785779768.317,0.18383856502242152,-0.41781446188340804,-0.7901737158581329,-4.423,-5.707,-8.993
1621785779768.489,0.187,-0.419,-0.791,-4.423756270705159,-5.704608849976337,-8.977941315664932
1621785779773.279,0.267,-0.501,-0.817,-4.44480312352106,-5.638063653573119,-8.558861334595363
1621785779778.069,0.309,-0.6,-0.873,-4.465849976336962,-5.5715184571699,-8.139781353525793
1621785779782.857,0.325,-0.7,-0.953,-4.486887174633223,-5.505003786086133,-7.72089361097965
1621785779783.793,0.3251954925555782,-0.7138799714460534,-0.9625791352233326,-4.491,-5.492,-7.639
1621785779787.645,0.326,-0.771,-1.002,-4.014908529945553,-5.411323411978222,-7.409669328493648
1621785779792.432,0.332,-0.806,-1.0,-3.423279334017202,-5.311068255346012,-7.124684762881717
1621785779797.219,0.321,-0.815,-0.956,-2.8316199637023596,-5.210807985480944,-6.8396856624319415
1621785779799.263,0.2979331088320833,-0.815,-0.9325059441808256,-2.579,-5.168,-6.718
1621785779802.004,0.267,-0.815,-0.901,-2.3008468158347677,-5.150626506024096,-6.5962082616179005
1621785779806.79,0.171,-0.805,-0.834,-1.8151502787032796,-5.120289819829778,-6.383541900235279
1621785779811.574,0.044,-0.775,-0.784,-1.3296767199861044,-5.089967060904168,-6.1709731718486
1621785779814.724,-0.04028599132431744,-0.7486606277111508,-0.743832457259505,-1.01,-5.07,-6.031
1621785779816.358,-0.084,-0.735,-0.723,-0.8202557379120793,-5.244205316947573,-6.077616835421043
1621785779821.141,-0.199,-0.674,-0.625,-0.2647462365931098,-5.754221839606995,-6.214095771399688
1621785779825.923,-0.312,-0.604,-0.52,0.2906214952532895,-6.2641082028843575,-6.350539877106797
1621785779830.18,-0.4036887731658753,-0.5461381528564865,-0.42207995098790013,0.785,-6.718,-6.472
1621785779830.705,-0.415,-0.539,-0.41,0.7979867079704762,-6.786333201624757,-6.512353985238104
1621785779835.487,-0.494,-0.461,-0.298,0.9162436345245057,-7.408575145011143,-6.879817262252849
1621785779840.267,-0.548,-0.384,-0.195,1.0344522609094213,-8.030562943528631,-7.247130454710689
1621785779845.046,-0.548,-0.304,-0.098,1.152630699688641,-8.652391901503059,-7.614349844320462
1621785779845.627,-0.5403402298850575,-0.29670498084291186,-0.08803014048531291,1.167,-8.728,-7.659
1621785779849.825,-0.485,-0.244,-0.016,0.8203156488187482,-8.733438185900882,-8.381734906227269
1621785779854.604,-0.38,-0.208,0.031,0.42564590910528466,-8.73962908377874,-9.20450523419463
1621785779859.382,-0.269,-0.19,0.068,0.031056817103640055,-8.745818716594451,-10.027107435402765
1621785779861.066,-0.21646687455270425,-0.1882371434413659,0.07187828442899499,-0.108,-8.748,-10.317
1621785779864.158,-0.12,-0.185,0.079,-0.45763494700205665,-8.521989558614143,-10.47408527131783
1621785779868.935,0.063,-0.192,0.084,-0.9978092074038918,-8.172811010915995,-10.716776744186047
1621785779873.711,0.232,-0.223,0.072,-1.537845435848758,-7.823721689606075,-10.959406201550388
1621785779876.498,0.31488112889207015,-0.23642440820082827,0.067914310547574,-1.853,-7.62,-11.101
1621785779878.486,0.374,-0.246,0.065,-1.954173691457875,-7.449358003197164,-10.82299789493677
1621785779883.26,0.466,-0.29,0.056,-2.197124736867096,-7.039590889666197,-10.155424130672197
1621785779888.033,0.532,-0.319,0.047,-2.440026083791013,-6.629907598803438,-9.487986926449407
1621785779891.923,0.5719450526962038,-0.34508656502609225,0.025804665916300012,-2.638,-6.296,-8.944
1621785779892.805,0.581,-0.351,0.021,-2.599850709399544,-6.244409804915126,-8.802613123891565
1621785779897.578,0.606,-0.384,0.0,-2.3933671459336203,-5.965177159868254,-8.03735469977198
1621785779902.35,0.613,-0.394,0.0,-2.1869152679250066,-5.685987363820623,-7.272213706612618
1621785779907.12,0.581,-0.396,0.024,-1.9805584462883203,-5.406926114770712,-6.507425006333925
1621785779907.341,0.5774331780723755,-0.39488826329528587,0.025806572145160467,-1.971,-5.394,-6.472
1621785779911.89,0.504,-0.372,0.063,-1.7596450672539172,-5.263526703528256,-5.93948002978501
1621785779916.66,0.391,-0.326,0.115,-1.5380127853736592,-5.126709009965303,-5.381065732980561
1621785779921.428,0.255,-0.284,0.168,-1.316471252713129,-4.9899473375687196,-4.8228800836515155
1621785779922.751,0.21282447516641065,-0.2753984126984127,0.18242846902201743,-1.255,-4.952,-4.668
1621785779926.196,0.103,-0.253,0.22,-1.349390952177152,-4.862082552665367,-4.641606321429138
1621785779930.963,-0.045,-0.208,0.264,-1.4799970992439013,-4.737666270388511,-4.605086119168767
1621785779935.73,-0.171,-0.164,0.291,-1.6106099354859162,-4.613243615958914,-4.568564046475502
1621785779938.153,-0.21867976695456637,-0.1487830530996065,0.3001301681402361,-1.677,-4.55,-4.55
1621785779940.507,-0.265,-0.134,0.309,-1.779637220115013,-4.6122311880582405,-4.661337789061544
1621785779945.476,-0.344,-0.103,0.318,-1.9962909580325463,-4.743593080876056,-4.896357289245075
1621785779950.443,-0.396,-0.073,0.326,-2.2128595375015294,-4.874903340266732,-5.1312844120885845
1621785779954.116,-0.4152227245920975,-0.05895262433654413,0.326,-2.373,-4.972,-5.305
1621785779955.411,-0.422,-0.054,0.326,-2.4141469250543803,-5.004433458572277,-5.3493741348625665
1621785779960.378,-0.44,-0.037,0.314,-2.57197765473601,-5.128841210203678,-5.51958374530354
1621785779965.345,-0.436,-0.024,0.297,-2.729808384417639,-5.25324896183508,-5.689793355744513
1621785779970.166,-0.433088178913738,-0.014293929712460064,0.28147028753993614,-2.883,-5.374,-5.855
1621785779970.312,-0.433,-0.014,0.281,-2.8858568037974686,-5.373645174050632,-5.855
1621785779975.28,-0.417,0.0,0.272,-2.9830693463972735,-5.3615710047468355,-5.855
1621785779980.247,-0.403,-0.002,0.258,-3.0802627799415774,-5.34949920886076,-5.855
1621785779985.214,-0.4,0.002,0.243,-3.1774562134858813,-5.337427412974684,-5.855
1621785779986.213,-0.39959773844641105,0.002,0.2397819075712881,-3.197,-5.335,-5.855
1621785779990.18,-0.398,0.002,0.227,-3.2236989000289067,-5.284074320315233,-5.818412618478906
1621785779995.147,-0.403,0.002,0.215,-3.257127980039252,-5.220311445480686,-5.772602397723988
1621785780000.114,-0.417,0.016,0.197,-3.290557060049598,-5.156548570646137,-5.72679217696907
1621785780002.26,-0.42823543581928125,0.02204985005653606,0.18965375350277763,-3.305,-5.129,-5.707
1621785780005.08,-0.443,0.03,0.18,-3.282503986367233,-5.142708508307467,-5.712272503195179
1621785780010.046,-0.476,0.035,0.18,-3.2428910595824965,-5.166847635566916,-5.721556782910352
1621785780015.012,-0.513,0.042,0.168,-3.2032761852595706,-5.190987949607449,-5.730841519079788
1621785780018.306,-0.5388683447224817,0.05128607246448061,0.16534683643871984,-3.177,-5.207,-5.737
1621785780019.978,-0.552,0.056,0.164,-3.177,-5.270361665221162,-5.785042315241704
1621785780024.945,-0.578,0.073,0.162,-3.177,-5.4585779126915295,-5.927752331826966
1621785780029.91,-0.597,0.098,0.161,-3.177,-5.6467108991037875,-6.0703992179059965
1621785780034.351,-0.603260115038592,0.11320313652229488,0.16547151074185143,-3.177,-5.815,-6.198
1621785780034.876,-0.604,0.115,0.166,-3.1869470384123697,-5.840685609058258,-6.2249617093808975
1621785780039.841,-0.595,0.131,0.164,-3.281036768734401,-6.083647577159555,-6.479994399464297
1621785780044.808,-0.557,0.134,0.155,-3.3751635112923846,-6.326705119620137,-6.735127412187253
1621785780049.773,-0.499,0.141,0.141,-3.469248615084921,-6.569655140926523,-6.990147561940708
1621785780050.393,-0.48875856812705903,0.14062531346806312,0.1375029257019226,-3.481,-6.6,-7.022
1621785780054.738,-0.417,0.138,0.113,-3.5581828017529977,-6.724846567046077,-7.125452036033843
1621785780059.703,-0.323,0.127,0.082,-3.6463768488648123,-6.867504306409398,-7.243663004443363
1621785780064.667,-0.218,0.119,0.052,-3.7345578854464665,-7.010141000669548,-7.361856534177369
1621785780066.437,-0.185209085099061,0.11828715402389263,0.03952519541812104,-3.766,-7.061,-7.404
1621785780069.633,-0.126,0.117,0.017,-3.6058386389920263,-7.121558524560228,-7.29842099336539
1621785780074.598,-0.04,0.103,-0.002,-3.3570385902976447,-7.215632174812831,-7.134411011017104
1621785780079.562,0.031,0.112,-0.012,-3.1082752449936093,-7.309691947166596,-6.9704252236898165
1621785780082.481,0.06334212079480621,0.12023253983867795,-0.01494019279952784,-2.962,-7.365,-6.874
1621785780084.526,0.086,0.126,-0.017,-2.864483107079808,-7.341162537286175,-6.766540208193827
1621785780089.491,0.129,0.134,-0.01,-2.627711252815487,-7.283284972910453,-6.505626909965301
1621785780094.456,0.155,0.143,0.0,-2.3909393985511658,-7.225407408534729,-6.244713611736774
1621785780098.523,0.16647019476686997,0.14627719850482,0.001638599252409994,-2.197,-7.178,-6.031
1621785780099.42,0.169,0.147,0.002,-2.218360465116279,-7.138522281748448,-6.008521185924753
1621785780104.384,0.182,0.15,0.002,-2.336575581395349,-6.920040941190795,-5.884116796542067
1621785780109.347,0.206,0.159,-0.007,-2.454761627906977,-6.701613326433703,-5.7597429989041755
1621785780114.311,0.239,0.154,-0.042,-2.5729767441860467,-6.48313198587605,-5.63533860952149
1621785780114.564,0.24078339563250048,0.154,-0.04403816643714342,-2.579,-6.472,-5.629
1621785780119.275,0.274,0.154,-0.082,-2.731732586458841,-6.247306867998052,-5.588760837798343
1621785780124.239,0.29,0.148,-0.141,-2.8926732830004873,-6.01053834327813,-5.54635915428641
1621785780129.202,0.281,0.138,-0.201,-3.053574403312226,-5.773828041281052,-5.503967897588894
1621785780130.603,0.2682962270647843,0.13404771508682178,-0.21285685473953467,-3.099,-5.707,-5.492
1621785780134.165,0.236,0.124,-0.243,-3.1076612579152463,-5.650368698246468,-5.500661257915246
1621785780139.129,0.171,0.103,-0.272,-3.1197312165124207,-5.571449738188018,-5.512731216512421
1621785780144.092,0.113,0.075,-0.298,-3.1317993941792497,-5.492542422674135,-5.52479939417925
1621785780146.642,0.08628118850846124,0.06523735733963007,-0.3082764659582841,-3.138,-5.452,-5.531
1621785780149.055,0.061,0.056,-0.318,-3.0745075890206586,-5.481639822187039,-5.588474172971821
1621785780154.017,0.019,0.04,-0.323,-2.9439315237413797,-5.542595947447745,-5.706673360025576
1621785780158.98,-0.017,0.017,-0.323,-2.8133361852421332,-5.603561069922511,-5.824889993453803
1621785780162.679,-0.03936419996063767,0.013272633339893722,-0.3177816866758512,-2.716,-5.649,-5.913
1621785780163.942,-0.047,0.012,-0.316,-2.625661525578563,-5.692239601096224,-5.93079990864799
1621785780168.906,-0.068,0.005,-0.295,-2.2705770097442146,-5.862197228989038,-6.00076425091352
1621785780173.868,-0.073,0.0,-0.269,-1.915649665042631,-6.032079628501827,-6.070697624847747
1621785780178.714,-0.07983640836408365,0.002929889298892989,-0.22798154981549817,-1.569,-6.198,-6.139
1621785780178.83,-0.08,0.003,-0.227,-1.5629033024254326,-6.20346026888351,-6.142760714992616
1621785780183.792,-0.094,0.021,-0.166,-1.3020416571506874,-6.437090805280227,-6.303671812908235
1621785780188.754,-0.129,0.054,-0.082,-1.0411800118759422,-6.670721341676944,-6.4645829108238555
1621785780193.716,-0.185,0.087,0.012,-0.7803055314484082,-6.904363373376574,-6.625501926034197
1621785780194.749,-0.1987397165912222,0.09324532572328281,0.03281775241094273,-0.726,-6.953,-6.659
1621785780198.678,-0.251,0.117,0.112,-0.48318017935717655,-7.238944228748915,-7.199525251602491
1621785780203.639,-0.3,0.154,0.208,-0.1765811142069763,-7.5999947928561635,-7.882025289666408
1621785780208.601,-0.302,0.195,0.293,0.1300933936265778,-7.961134198145525,-8.564693265731817
1621785780210.784,-0.2804437610706554,0.20731785081676835,0.3246744735288329,0.265,-8.12,-8.865
1621785780213.563,-0.253,0.223,0.365,0.18334986217504534,-8.113239160562264,-9.19316074501622
1621785780218.524,-0.162,0.234,0.424,0.037594718486819084,-8.101170263314195,-9.778966449903294
1621785780223.485,-0.021,0.222,0.452,-0.10816759819076188,-8.08910077212433,-10.364800983811278
1621785780226.815,0.11122849409448816,0.21260305118110234,0.44998636811023623,-0.206,-8.081,-10.758
1621785780228.446,0.176,0.208,0.449,-0.2878143934201508,-7.975170436371944,-10.754031391363947
1621785780233.407,0.433,0.201,0.44,-0.5366496687228696,-7.653293960855989,-10.741961023532099
1621785780238.368,0.707,0.195,0.428,-0.7854849440255883,-7.331417485340035,-10.72989065570025
1621785780242.844,0.9353176806457963,0.1841707028942705,0.41626826146879303,-1.01,-7.041,-10.719
1621785780243.328,0.96,0.183,0.415,-0.9809909989491159,-6.990679495575626,-10.647941531244765
1621785780248.289,1.176,0.178,0.412,-0.6835682389314488,-6.474754687095448,-9.919395041045401
1621785780253.25,1.335,0.195,0.421,-0.3861601151403463,-5.958855267366241,-9.190884402747528
1621785780258.21,1.424,0.241,0.435,-0.08881053625550195,-5.4430574026409175,-8.462517172055621
1621785780258.874,1.4277487694428037,0.24662315416420555,0.43687438472140183,-0.049,-5.374,-8.365
1621785780263.17,1.452,0.283,0.449,0.09544697604288828,-5.077066327540779,-7.692343395421801
1621785780268.13,1.419,0.33,0.454,0.2622226503601944,-4.734232473842123,-6.915707138396869
1621785780273.09,1.33,0.374,0.454,0.42900653375774844,-4.391381745076837,-6.139032653558537
1621785780274.904,1.2864876968503938,0.3889916338582677,0.4558282480314961,0.49,-4.266,-5.855
1621785780278.051,1.211,0.415,0.459,0.5208279255400177,-4.529706394906011,-5.656483868019377
1621785780283.01,1.059,0.478,0.482,0.5694064223258082,-4.945253663589556,-5.3436631020930445
1621785780287.97,0.888,0.552,0.522,0.6179944855741402,-5.360882765134205,-5.030780733022576
