time,gyro_x,gyro_y,gyro_z,acc_x,acc_y,acc_z
1621785853970.426,,,,-1.853,-5.227,-8.924
1621785853989.02,,,,-2.118,-5.992,-9.189
1621785854007.572,0.922,0.408,0.328,-2.118,-6.627057518923248,-9.131089036141466
1621785854007.921,0.9232993593717711,0.4096537301095267,0.3270550113659847,-2.118,-6.639,-9.13
1621785854013.479,0.944,0.436,0.312,-1.9478193745232646,-6.749848944825833,-8.948242461225528
1621785854019.416,0.96,0.456,0.298,-1.7660372234935164,-6.868254665649632,-8.754094177472668
1621785854025.382,0.969,0.459,0.307,-1.583365522501907,-6.987239804220697,-8.558995830155098
1621785854027.125,0.9649297088169415,0.4575463245774791,0.307,-1.53,-7.022,-8.502
1621785854031.377,0.955,0.454,0.307,-1.465923312768274,-7.017641041684917,-8.296911011275327
1621785854037.402,0.937,0.447,0.314,-1.3751247043511996,-7.011464265602123,-8.00629369657986
1621785854043.455,0.901,0.429,0.328,-1.2839066688358007,-7.00525895706366,-7.714333929845199
1621785854046.634,0.8769605875742494,0.4175028897094236,0.3379293225236796,-1.236,-7.002,-7.561
1621785854049.538,0.855,0.407,0.347,-1.26013527275547,-7.005074557038913,-7.340861716013802
1621785854055.649,0.791,0.346,0.372,-1.3109218113909817,-7.011544179795029,-6.8776367266758855
1621785854061.273,0.712,0.297,0.382,-1.357662470760045,-7.017498403918477,-6.4513142794370415
1621785854065.525,0.6462963444776896,0.2652809938857812,0.3963490741945276,-1.393,-7.022,-6.129
1621785854066.903,0.625,0.255,0.401,-1.4203636497542818,-7.049363649754282,-6.10231666197994
1621785854072.54,0.543,0.208,0.431,-1.5322855822922106,-7.161285582292211,-5.993177318924999
1621785854078.182,0.473,0.173,0.459,-1.644304463102077,-7.273304463102077,-5.883943437914273
1621785854083.757,0.4108142208774584,0.14733602766371298,0.4747932137454074,-1.755,-7.384,-5.776
1621785854083.83,0.41,0.147,0.475,-1.7555506592643997,-7.385683900069397,-5.778621616932686
1621785854089.484,0.367,0.127,0.49,-1.7982000480435594,-7.516104494741899,-5.981669793946511
1621785854095.144,0.335,0.119,0.51,-1.840897320237015,-7.646671515507394,-6.184945937650136
1621785854100.81,0.314,0.117,0.524,-1.8836387925052047,-7.777373698820264,-6.388432512144344
1621785854102.051,0.3129060347796143,0.11590603477961434,0.5250939652203857,-1.893,-7.806,-6.433
1621785854106.482,0.309,0.112,0.529,-1.911827264263865,-7.848723407368001,-6.579756111184998
1621785854112.16,0.3,0.113,0.539,-1.9359534246575343,-7.903471232876712,-6.7678164383561645
1621785854117.844,0.314,0.119,0.546,-1.9601055193509775,-7.958277909296449,-6.956078920069158
1621785854120.408,0.32120981721445124,0.11629631854458079,0.5509567493349352,-1.971,-7.983,-7.041
1621785854123.534,0.33,0.113,0.557,-1.995948146969938,-7.986224590424686,-7.0676452998250365
1621785854129.23,0.349,0.122,0.559,-2.041407785907428,-7.992100326069668,-7.116197431207254
1621785854134.933,0.377,0.124,0.562,-2.086923930332432,-7.997983365145009,-7.1648099119877
1621785854138.827,0.39746492728828053,0.11581402908468777,0.564046492728828,-2.118,-8.002,-7.198
1621785854140.641,0.407,0.112,0.565,-2.103571254969818,-7.974124057220601,-7.137340378036377
1621785854146.355,0.431,0.115,0.567,-2.058127795316153,-7.886328529726446,-6.946292363982195
1621785854152.075,0.45,0.12,0.569,-2.0126357932555776,-7.79843921962302,-6.7550402736867134
1621785854157.31,0.4518288272921109,0.13280179104477613,0.581801791044776,-1.971,-7.718,-6.58
1621785854157.8,0.452,0.134,0.583,-1.9622015402843602,-7.699081990521327,-6.563433530805687
1621785854163.532,0.443,0.14,0.607,-1.8592766587677725,-7.47777804107425,-6.369638033175356
1621785854169.27,0.412,0.154,0.641,-1.7562421800947867,-7.256238441284887,-6.175636176935229
1621785854175.014,0.365,0.168,0.663,-1.6531024881516587,-7.03447261716693,-5.9814362164297
1621785854175.855,0.35622367527173915,0.168,0.6657791694972827,-1.638,-7.002,-5.953
1621785854180.764,0.305,0.168,0.682,-1.694718950903986,-6.9115134876275945,-5.836396389304364
1621785854186.52,0.236,0.169,0.703,-1.7612262720092366,-6.8054111102364265,-5.699669710567058
1621785854192.282,0.182,0.18,0.719,-1.8278012936576662,-6.69920072686242,-5.562803852108426
1621785854194.463,0.1634730805045289,0.18453720477440108,0.7242934055701346,-1.853,-6.659,-5.511
1621785854198.05,0.133,0.192,0.733,-1.8831700366204551,-6.670337784462464,-5.554429479466388
1621785854203.824,0.093,0.197,0.754,-1.9317320298195133,-6.6885871959194345,-5.624334004708344
1621785854209.604,0.073,0.206,0.768,-1.9803453570494374,-6.7068558985090245,-5.69431242479728
1621785854213.13,0.055331336483293955,0.20356294296321295,0.7734833783327708,-2.01,-6.718,-5.737
1621785854215.391,0.044,0.202,0.777,-2.0254513535000713,-6.706049343777289,-5.787941181070549
1621785854221.183,0.026,0.201,0.778,-2.065028972851799,-6.675438528809936,-5.918423644870775
1621785854226.981,0.016,0.204,0.78,-2.104646630260534,-6.644796746907868,-6.049038109140199
1621785854231.862,0.010954023472006058,0.20147701173600305,0.784204980439995,-2.138,-6.619,-6.159
1621785854232.785,0.01,0.201,0.785,-2.1486080449017773,-6.616151543498597,-6.1575266604303085
1621785854238.595,0.005,0.19,0.789,-2.2153938260056125,-6.598218324498493,-6.14825085749922
1621785854244.41,0.007,0.171,0.785,-2.2822357343311506,-6.580270034299969,-6.138967259120673
1621785854250.231,0.003,0.175,0.787,-2.3491478016838165,-6.56230290510342,-6.129673916432803
1621785854250.653,0.003289760348583878,0.17434803921568626,0.7868551198257081,-2.354,-6.561,-6.129
1621785854256.058,0.007,0.166,0.785,-2.320168045896629,-6.535482678684746,-6.067070321302304
1621785854261.891,0.005,0.166,0.792,-2.2836572257404457,-6.50794485670254,-6.000236955592681
1621785854267.728,-0.005,0.175,0.789,-2.2471219550099075,-6.480388593185439,-5.933358832899491
1621785854269.505,-0.006215989307046489,0.17712798128733134,0.7899119919802849,-2.236,-6.472,-5.913
1621785854273.573,-0.009,0.182,0.792,-2.193850577531135,-6.472,-5.879452500483965
1621785854279.424,-0.021,0.199,0.794,-2.133228057043299,-6.472,-5.83120192295283
1621785854285.28,-0.023,0.215,0.806,-2.0725549461186037,-6.472,-5.782911079563786
1621785854288.422,-0.026751405371642722,0.2305415365396627,0.8129668956901936,-2.04,-6.472,-5.757
1621785854291.143,-0.03,0.244,0.819,-2.01319328325573,-6.480457734159957,-5.752699457206801
1621785854297.011,-0.03,0.264,0.833,-1.9553826563424486,-6.4986974506727035,-5.7434250250816765
1621785854302.885,-0.04,0.293,0.841,-1.8975118977182106,-6.5169561392225965,-5.734140946158002
1621785854307.403,-0.03769529660841048,0.3145105649881689,0.8479141101747686,-1.853,-6.531,-5.727
1621785854308.766,-0.037,0.321,0.85,-1.858654576923077,-6.531715769230769,-5.734730307692308
1621785854314.652,-0.026,0.351,0.86,-1.8830726666666666,-6.534806666666666,-5.768112
1621785854320.544,-0.023,0.384,0.876,-1.907515064102564,-6.537900641025641,-5.801526923076923
1621785854326.442,-0.014,0.407,0.874,-1.931982782051282,-6.540997820512821,-5.834976461538462
1621785854326.446,-0.013991564322044412,0.40701335649009635,0.8740014059463259,-1.932,-6.541,-5.835
1621785854332.346,-0.002,0.426,0.876,-2.074378217416865,-6.48942264141298,-5.87144388211538
1621785854338.256,0.0,0.436,0.869,-2.217003885182629,-6.4377556424609566,-5.907951102931779
1621785854344.172,0.009,0.447,0.864,-2.3597709531477644,-6.386037420443217,-5.944494517291619
1621785854345.549,0.010162598944591029,0.4490926781002639,0.8602796833773086,-2.393,-6.374,-5.953
1621785854350.094,0.014,0.456,0.848,-2.527965584903737,-6.3018918491902705,-5.98549610743728
1621785854356.022,0.017,0.452,0.822,-2.70400229349031,-6.207840602423455,-6.027881044302588
1621785854361.956,0.012,0.445,0.805,-2.8802202515194373,-6.113692519399105,-6.070309621191851
1621785854364.71,0.009681493052700814,0.4371170763791828,0.7892341527583656,-2.962,-6.07,-6.09
1621785854367.895,0.007,0.428,0.771,-3.0350576,-6.081430780952381,-6.130587555555556
1621785854373.841,0.0,0.407,0.742,-3.1714456,-6.102770400000001,-6.206358666666667
1621785854379.792,-0.005,0.387,0.71,-3.3079456,-6.124127542857143,-6.282192
1621785854383.936,-0.0063910834289460745,0.3849133748565809,0.6946980822815931,-3.403,-6.139,-6.335
1621785854385.75,-0.007,0.384,0.688,-3.3707402245598046,-6.195242990417601,-6.335
1621785854391.713,0.0,0.38,0.677,-3.2646954391827743,-6.380125735768807,-6.335
1621785854397.683,0.003,0.372,0.663,-3.1585203989923922,-6.565235572602185,-6.335
1621785854403.223,0.0067087402443509175,0.3506747435949822,0.6435291137171577,-3.06,-6.737,-6.335
1621785854403.658,0.007,0.349,0.642,-3.0401460367930957,-6.755527367703839,-6.32463456734045
1621785854409.639,0.021,0.333,0.637,-2.767204178968885,-7.010231887349534,-6.182136043606632
1621785854415.626,0.058,0.33,0.625,-2.4939837863073158,-7.265196330784566,-6.039492101345043
1621785854421.619,0.119,0.349,0.616,-2.2204960002018828,-7.5204103010573595,-5.896708557296792
1621785854422.572,0.12941198882397764,0.3509832359664719,0.6163305393277453,-2.177,-7.561,-5.874
1621785854427.386,0.182,0.361,0.618,-2.113226452456073,-7.392585774445222,-5.754001610539794
1621785854433.109,0.218,0.367,0.611,-2.037411677733627,-7.192372879565946,-5.6113460548375595
1621785854438.832,0.216,0.363,0.611,-1.9615936687304458,-6.9921514435453,-5.468684413407084
1621785854441.066,0.20663179898468495,0.3590965829102854,0.6067062412013139,-1.932,-6.914,-5.413
1621785854444.555,0.192,0.353,0.6,-1.8265418074770303,-6.895511801668603,-5.464880148378921
1621785854450.276,0.176,0.365,0.6,-1.6536216601541873,-6.865196641672827,-5.549948199387475
1621785854456.0,0.185,0.391,0.602,-1.480605581370789,-6.834864663639244,-5.635063443869469
1621785854459.56,0.19371198736824138,0.41029082917253445,0.6051114240600862,-1.373,-6.816,-5.688
1621785854461.721,0.199,0.422,0.607,-1.4108612413028268,-6.820557371638303,-5.660422058804114
1621785854467.444,0.209,0.445,0.611,-1.5111372800126746,-6.832627635557081,-5.587381487398175
1621785854473.166,0.206,0.475,0.614,-1.611391930607449,-6.844695324980527,-5.514356494989636
1621785854478.052,0.20173046891667024,0.4929320305499851,0.6131460937833341,-1.697,-6.855,-5.452
1621785854478.888,0.201,0.496,0.613,-1.72046165322208,-6.8305890313296285,-5.466646581202223
1621785854484.61,0.197,0.522,0.599,-1.8810616030524274,-6.663490817633313,-5.566905509420012
1621785854490.332,0.208,0.536,0.579,-2.0416547007644272,-6.496399733308689,-5.667160160014786
1621785854496.053,0.232,0.56,0.564,-2.2022203900030366,-6.329337166470829,-5.7673977001175025
1621785854496.544,0.2345741349148782,0.5622309169262278,0.56202649656526,-2.216,-6.315,-5.776
1621785854501.775,0.262,0.586,0.541,-2.2383485126553033,-6.229000660161872,-5.7287569416020805
1621785854507.497,0.283,0.6,0.518,-2.2627956534942366,-6.134925586553823,-5.677077542613449
1621785854513.218,0.284,0.623,0.51,-2.287237579054384,-6.040870581866674,-5.625409168328074
1621785854515.035,0.27637792856228394,0.6303044851278112,0.5065065505910468,-2.295,-6.011,-5.609
1621785854518.939,0.26,0.646,0.499,-2.234823925529808,-5.934565828216809,-5.596753640985013
1621785854524.66,0.216,0.661,0.506,-2.1466427015250544,-5.822560203340595,-5.578807988380538
1621785854530.382,0.169,0.675,0.52,-2.05844266191325,-5.710530679342444,-5.560858506634977
1621785854533.525,0.12999590321341697,0.6810428882345411,0.5221974139034695,-2.01,-5.649,-5.551
1621785854536.103,0.098,0.686,0.524,-2.064271567167183,-5.618392536532346,-5.632903305019926
1621785854541.823,0.031,0.681,0.534,-2.1846814674664197,-5.550485125397528,-5.814618507038095
1621785854547.38,-0.038,0.688,0.527,-2.3016582799940957,-5.484513868201763,-5.99115270453417
1621785854551.719,-0.08721753846153846,0.677844,0.5230938461538461,-2.393,-5.433,-6.129
1621785854552.934,-0.101,0.675,0.522,-2.406961870003949,-5.446284109324146,-6.205451404681819
1621785854558.484,-0.138,0.658,0.524,-2.4707314558849562,-5.506958084240055,-6.554636321544809
1621785854564.031,-0.166,0.634,0.511,-2.5344701837048738,-5.567602699059006,-6.903652268053872
1621785854569.575,-0.173,0.604,0.506,-2.5981724429071402,-5.62821261558155,-7.252468522326474
1621785854569.647,-0.17285699806099064,0.6035839943592455,0.5058829984135378,-2.599,-5.629,-7.257
1621785854575.115,-0.162,0.572,0.497,-2.6769392860067143,-5.680042591227926,-7.553780575343213
1621785854580.653,-0.138,0.527,0.473,-2.7558773028739867,-5.731739253254728,-7.8543641611397685
1621785854586.187,-0.089,0.482,0.436,-2.834756161467289,-5.783397172411911,-8.154722481508774
1621785854587.537,-0.0719132641800927,0.4666219377620834,0.42843301699404107,-2.854,-5.796,-8.228
1621785854591.718,-0.019,0.419,0.405,-2.8792836637047166,-5.796,-8.340371838687629
1621785854597.245,0.031,0.368,0.368,-2.9127082980177716,-5.796,-8.488925768967874
1621785854602.769,0.079,0.316,0.337,-2.9461137388926866,-5.796,-8.637394395078605
1621785854605.396,0.09374754620213989,0.29268936245468213,0.332718454328411,-2.962,-5.796,-8.708
1621785854608.291,0.11,0.267,0.328,-2.8632523592335404,-5.762542740135048,-8.733498979605812
1621785854613.808,0.131,0.23,0.332,-2.675067236443824,-5.698782649189848,-8.782092835326184
1621785854619.323,0.131,0.192,0.34,-2.486957061264741,-5.635047951678514,-8.830667337798413
1621785854623.221,0.10836623399636734,0.14885438355557526,0.33646347406193244,-2.354,-5.59,-8.865
1621785854624.834,0.099,0.131,0.335,-2.345115724478595,-5.546394525246981,-8.800996953896817
1621785854630.343,0.073,0.068,0.325,-2.3147731064763994,-5.39746800219539,-8.582406256860594
1621785854635.847,0.072,0.012,0.3,-2.2844587266739844,-5.248680076838639,-8.364018990120748
1621785854641.014,0.0813907796068687,-0.02086772862404047,0.2671322713759595,-2.256,-5.109,-8.159
1621785854641.349,0.082,-0.023,0.265,-2.238524282834976,-5.100641224219332,-8.141524282834977
1621785854646.848,0.11,-0.042,0.232,-1.9518486981970788,-4.963521991220078,-7.854848698197079
1621785854652.343,0.129,-0.049,0.206,-1.6653640354510064,-4.826494077694028,-7.568364035451006
1621785854657.773,0.14,-0.042,0.182,-1.3822777823794141,-4.691091650791021,-7.285277782379414
1621785854658.699,0.13812303747357058,-0.037734176076296734,0.17978177155967429,-1.334,-4.668,-7.237
1621785854663.2,0.129,-0.017,0.169,-0.9435047518185112,-4.5899009503637025,-7.01040999414732
1621785854668.622,0.106,0.017,0.166,-0.47309311334689674,-4.495818622669379,-6.737447451297344
1621785854674.039,0.075,0.077,0.164,-0.0031262785318135755,-4.401825255706362,-6.46474301162175
1621785854676.219,0.05969889515219842,0.10639422773393462,0.16601330326944758,0.186,-4.364,-6.355
1621785854679.453,0.037,0.15,0.169,0.285936289714142,-4.313106519127057,-6.280602984323917
1621785854684.862,-0.002,0.232,0.178,0.4530953139408165,-4.227979238270881,-6.156162377399615
1621785854690.266,-0.049,0.314,0.183,0.620095900746081,-4.14293264313857,-6.031839718333473
1621785854693.693,-0.08326444263628965,0.3692038242473556,0.19315242744778954,0.726,-4.089,-5.953
1621785854695.667,-0.103,0.401,0.199,0.7326811630740787,-4.117876213286273,-5.959567923021976
1621785854701.063,-0.148,0.483,0.208,0.7509454879056543,-4.196815244337998,-5.977522683025898
1621785854706.455,-0.192,0.562,0.218,0.7691965908931748,-4.275697130131518,-5.995464445284816
1621785854711.124,-0.2327280801123748,0.6209257329285423,0.2283986587520957,0.785,-4.344,-6.011
1621785854711.843,-0.239,0.63,0.23,0.7711851659386807,-4.376468996221964,-6.035362087611129
1621785854717.225,-0.278,0.693,0.244,0.6677732756562408,-4.619517900029494,-6.21772616957627
1621785854722.605,-0.309,0.749,0.264,0.564403603881968,-4.86246757770256,-6.400015800339883
1621785854727.98,-0.339,0.798,0.283,0.46112775101473297,-5.105196752854594,-6.582139983988989
1621785854728.507,-0.3401776363636364,0.8014347727272728,0.2850608636363636,0.451,-5.129,-6.6
1621785854733.351,-0.351,0.833,0.304,0.3003930402208202,-5.4494938457638575,-6.90680230396575
1621785854738.717,-0.356,0.853,0.323,0.1335571766561514,-5.804523039657503,-7.246664601171699
1621785854744.078,-0.342,0.846,0.335,-0.03311928233438488,-6.159213018251465,-7.586202174402884
1621785854745.843,-0.33178953122864563,0.8456706300396337,0.338623069564029,-0.088,-6.276,-7.698
1621785854749.437,-0.311,0.845,0.346,-0.2878401067932364,-6.471889053693266,-7.840861762088402
1621785854754.79,-0.278,0.848,0.34,-0.5854893277394019,-6.7636534305208285,-8.05364533627156
1621785854760.139,-0.232,0.834,0.326,-0.8829077707618199,-7.0551915921515445,-8.266263931855745
1621785854763.126,-0.20003286578657864,0.8205401540154016,0.3164659424275761,-1.049,-7.218,-8.385
1621785854765.465,-0.175,0.81,0.309,-1.1397874271913624,-7.298034493536013,-8.408955902827106
1621785854770.785,-0.106,0.778,0.293,-1.3462646256570534,-7.480056371643699,-8.463438641852536
1621785854776.102,-0.024,0.749,0.262,-1.552637590566842,-7.661986361699105,-8.517893876971161
1621785854780.311,0.04177732830743771,0.7180925806748184,0.23981005792038246,-1.716,-7.806,-8.561
1621785854781.413,0.059,0.71,0.234,-1.7393452820242488,-7.794037954665261,-8.531352134949922
1621785854786.72,0.141,0.653,0.188,-1.8517636239296755,-7.736435167903803,-8.388583937654047
1621785854792.022,0.225,0.599,0.14,-1.9640785308239184,-7.678885380900141,-8.24594709997293
1621785854797.32,0.291,0.541,0.08,-2.0763106897092136,-7.621377993702717,-8.103415349983615
1621785854797.447,0.2921754936335117,0.539608599372578,0.07858460970658793,-2.079,-7.62,-8.1
1621785854802.612,0.34,0.483,0.021,-1.9070343995085786,-7.462843387951601,-7.8334382080255995
1621785854807.901,0.379,0.431,-0.026,-1.730947672176112,-7.301920543992228,-7.560488307309895
1621785854813.185,0.414,0.389,-0.066,-1.555015385494493,-7.141138840873701,-7.28777780317424
1621785854814.537,0.415792813208158,0.37619419137030014,-0.07419571752300791,-1.51,-7.1,-7.218
1621785854818.464,0.421,0.339,-0.098,-1.4173667698126182,-6.923720345538937,-6.996555885049567
1621785854823.739,0.412,0.291,-0.131,-1.2929381983840469,-6.686934631253223,-6.699103504097186
1621785854829.009,0.382,0.248,-0.154,-1.168624806601341,-6.450368102114492,-6.4019264655320605
1621785854831.579,0.3546736198025309,0.2275052148518982,-0.1657113057989153,-1.108,-6.335,-6.257
1621785854834.276,0.326,0.206,-0.178,-1.126726606611784,-6.222957760441361,-6.217959786216111
1621785854839.536,0.244,0.175,-0.183,-1.1632524747496515,-6.004421634124966,-6.1418126373863196
1621785854844.792,0.148,0.14,-0.19,-1.19975121761993,-5.786047799663807,-6.065722037843196
1621785854848.572,0.07170779100037189,0.11049074934920045,-0.19,-1.226,-5.629,-6.011
1621785854850.044,0.042,0.099,-0.19,-1.2268685943150222,-5.662180302833844,-6.049391868723977
1621785854855.291,-0.058,0.063,-0.192,-1.2299649335119793,-5.780460460157611,-6.186250061229488
1621785854860.533,-0.152,0.028,-0.188,-1.2330582472518765,-5.898625045021682,-6.322974528532941
1621785854865.518,-0.211957911908646,-0.007213376835236544,-0.17657944535073408,-1.236,-6.011,-6.453
1621785854865.771,-0.215,-0.009,-0.176,-1.235850353892821,-6.024513043478261,-6.465914459049546
1621785854871.007,-0.262,-0.054,-0.171,-1.2327524194713275,-6.304256521739131,-6.73326619962444
1621785854876.238,-0.29,-0.094,-0.164,-1.2296575184168712,-6.5837260869565215,-7.000356160624007
1621785854881.464,-0.286,-0.126,-0.169,-1.226565506283403,-6.862934782608695,-7.267196807742308
1621785854882.42,-0.2806918977044275,-0.13387063443826266,-0.17028126607134508,-1.226,-6.914,-7.316
1621785854886.686,-0.257,-0.169,-0.176,-1.1614661317653192,-7.0281363708778075,-7.519471490434052
1621785854891.903,-0.194,-0.213,-0.183,-1.0825474966327284,-7.167714035367213,-7.768297304734456
1621785854897.115,-0.115,-0.257,-0.201,-1.0037064173678798,-7.307154532419946,-8.016878589945978
1621785854899.277,-0.0743228346456693,-0.26779190101237343,-0.20888638920134983,-0.971,-7.365,-8.12
1621785854902.324,-0.017,-0.283,-0.22,-0.876725118758807,-7.352490448450688,-8.056001859465113
1621785854907.527,0.08,-0.311,-0.243,-0.715732629254616,-7.331127983497248,-7.946712727167076
1621785854912.726,0.178,-0.332,-0.258,-0.5548685590598079,-7.309782558798321,-7.837510771823293
1621785854916.083,0.23358428128231645,-0.3339389865563599,-0.2709265770423992,-0.451,-7.296,-7.767
1621785854917.92,0.264,-0.335,-0.278,-0.37472658286846205,-7.254137291172058,-7.620809283831219
1621785854923.109,0.333,-0.347,-0.288,-0.1592673580261299,-7.135882371790204,-7.207845769550082
1621785854928.294,0.384,-0.356,-0.283,0.056029669225279244,-7.017716474649344,-6.795193133984881
1621785854932.845,0.406842209444811,-0.356,-0.2812429069657838,0.245,-6.914,-6.433
1621785854933.474,0.41,-0.356,-0.281,0.25275615101396764,-6.894421366372509,-6.389061027993688
1621785854938.65,0.429,-0.349,-0.271,0.31656305885103153,-6.733355385424581,-6.0275917976740105
1621785854943.821,0.415,-0.344,-0.251,0.3803127812518263,-6.572433756063351,-5.66644652562679
1621785854948.987,0.394,-0.339,-0.229,0.4439992986967448,-6.411671673192683,-5.30565931272281
1621785854949.555,0.3887193870311687,-0.3377898595279762,-0.2266897318261363,0.451,-6.394,-5.266
1621785854954.149,0.346,-0.328,-0.208,0.451,-6.288413516760431,-5.101141731129864
1621785854959.306,0.29,-0.337,-0.171,0.451,-6.169887541022034,-4.916080285982185
1621785854964.459,0.222,-0.34,-0.133,0.451,-6.051451344936709,-4.731159018987342
1621785854966.219,0.19635857915204402,-0.33760680072085747,-0.1213758892155933,0.451,-6.011,-4.668
1621785854969.607,0.147,-0.333,-0.099,0.3891644313501312,-6.019136259032877,-4.652134294885889
1621785854974.765,0.072,-0.333,-0.061,0.2950230420825821,-6.031523283936503,-4.62797959632382
1621785854979.92,-0.009,-0.344,-0.028,0.20093512451812434,-6.043903273089721,-4.603838617475045
1621785854982.875,-0.04915735342907247,-0.344,-0.011937058628371012,0.147,-6.051,-4.59
1621785854985.071,-0.079,-0.344,0.0,0.06797477485418779,-6.065272114240381,-4.67933286320831
1621785854990.216,-0.145,-0.351,0.021,-0.11717003834457221,-6.09870963903213,-4.888626999867777
1621785854995.357,-0.188,-0.368,0.045,-0.30216549869981046,-6.132120190400634,-5.097752302878047
1621785854999.493,-0.22181597832802624,-0.36961028468228696,0.05627199277600874,-0.451,-6.159,-5.266
1621785855000.494,-0.23,-0.37,0.059,-0.4640459761648719,-6.173193538883078,-5.329357541652549
1621785855005.627,-0.248,-0.382,0.068,-0.5309463783274163,-6.2459786986432535,-5.654258105858609
1621785855010.755,-0.258,-0.396,0.075,-0.5977799596364333,-6.318691159789638,-5.978834155826938
1621785855015.878,-0.257,-0.407,0.077,-0.664549902037329,-6.391334384160983,-6.303101144616473
1621785855016.066,-0.2569265547500954,-0.4067796642502861,0.07692655475009538,-0.667,-6.394,-6.315
1621785855020.997,-0.255,-0.401,0.075,-0.7753010679625992,-6.399967000989675,-6.628267551957932
1621785855026.111,-0.25,-0.398,0.066,-0.8876182513774207,-6.4061552755579845,-6.953151966794192
1621785855031.221,-0.253,-0.372,0.045,-0.9998442813040075,-6.412338527895537,-7.2777727145157245
1621785855032.594,-0.25353782155493926,-0.3650083197857894,0.03666376589844123,-1.03,-6.414,-7.365
1621785855036.327,-0.255,-0.346,0.014,-1.0565003110834592,-6.44729526264332,-7.5869684176221375
1621785855041.428,-0.258,-0.312,-0.005,-1.09271335881255,-6.492793707226024,-7.890291381506829
1621785855046.525,-0.246,-0.264,-0.028,-1.1288969424940005,-6.538255132877078,-8.193367552513852
1621785855049.075,-0.23648496907513064,-0.24296677374502565,-0.04102056863403174,-1.147,-6.561,-8.345
1621785855051.617,-0.227,-0.222,-0.054,-1.119779893645465,-6.600438222275036,-8.451251210599805
1621785855056.705,-0.182,-0.188,-0.068,-1.065295237812305,-6.67937905885149,-8.663927111494015
1621785855061.788,-0.124,-0.161,-0.087,-1.0108654823089034,-6.758240352336532,-8.876388713941951
1621785855065.511,-0.07415468922751525,-0.14927169158294476,-0.10239340479738498,-0.971,-6.816,-9.032
1621785855066.867,-0.056,-0.145,-0.108,-0.9677827288120489,-6.801398538454683,-9.006921783560585
1621785855071.941,0.017,-0.131,-0.127,-0.9557437394171643,-6.746760048124053,-8.91307940468764
1621785855077.036,0.08,-0.131,-0.141,-0.9436549327154443,-6.691895463862401,-8.818848706294744
1621785855081.948,0.13114681759316993,-0.1377552400594753,-0.1516153772363183,-0.932,-6.639,-8.728
1621785855082.126,0.133,-0.138,-0.152,-0.9337013214811292,-6.634860478944004,-8.716199114057645
1621785855087.212,0.175,-0.143,-0.157,-0.9823185081682102,-6.516568980125756,-8.378975443342798
1621785855092.294,0.215,-0.162,-0.166,-1.0308983544661305,-6.398368334993236,-8.042010776983336
1621785855097.372,0.232,-0.187,-0.159,-1.0794408603748904,-6.280258543546445,-7.7053051149792635
1621785855098.372,0.23140863371673326,-0.19113956398286733,-0.159,-1.089,-6.257,-7.639
1621785855102.445,0.229,-0.208,-0.159,-1.1645967088003815,-6.171456355831147,-7.3953000834724545
1621785855107.514,0.218,-0.225,-0.157,-1.2586768423563082,-6.064997257333651,-7.092015442404007
1621785855112.579,0.202,-0.251,-0.152,-1.3526890054853327,-5.958615072740281,-6.788949916527546
1621785855114.751,0.1925585411742004,-0.26258724492257224,-0.15114168556129093,-1.393,-5.913,-6.659
1621785855117.64,0.18,-0.278,-0.15,-1.4345608746338256,-5.895668231003767,-6.6052361451545405
1621785855122.697,0.15,-0.293,-0.15,-1.5073143570275602,-5.865328480899145,-6.5111210019728585
1621785855127.749,0.12,-0.312,-0.152,-1.5799940814252404,-5.8350194894481975,-6.417101273390327
1621785855131.086,0.10281336750979349,-0.3205933162451033,-0.1539830729796392,-1.628,-5.815,-6.355
1621785855132.797,0.094,-0.325,-0.155,-1.6352493854179158,-5.827397499700204,-6.363194957428949
1621785855137.841,0.073,-0.337,-0.157,-1.6566179547907423,-5.86394085022185,-6.387350731502578
1621785855142.881,0.052,-0.344,-0.162,-1.6779699754167166,-5.900455899988009,-6.411487798297158
1621785855147.373,0.03504897444600688,-0.35292159239683846,-0.16824511467778694,-1.697,-5.933,-6.433
1621785855147.916,0.033,-0.354,-0.169,-1.6946937435188387,-5.942492417980432,-6.4372782728925895
1621785855152.947,0.019,-0.361,-0.176,-1.6733245765641203,-6.030446670373766,-6.4769196260839506
1621785855157.974,0.012,-0.365,-0.183,-1.6519720013826478,-6.118332631990261,-6.516530200333639
1621785855162.997,0.01,-0.375,-0.194,-1.6306370549602487,-6.206146034656367,-6.556108071957799
1621785855163.618,0.010742373376149467,-0.37438135551987545,-0.1952372889602491,-1.628,-6.217,-6.561
1621785855168.015,0.016,-0.37,-0.204,-1.5535673279230537,-6.264907574391343,-6.587525097685602
1621785855173.029,0.019,-0.382,-0.215,-1.4686868049293658,-6.319539765554554,-6.61777342951608
1621785855178.07,0.031,-0.38,-0.227,-1.3833516681695222,-6.374464562669071,-6.648183769161406
1621785855179.863,0.033492267416492943,-0.38142415280942454,-0.23020434382120522,-1.353,-6.394,-6.659
1621785855183.106,0.038,-0.384,-0.236,-1.304133909935883,-6.390010931423338,-6.643243179122183
1621785855188.139,0.04,-0.374,-0.243,-1.2282945327867623,-6.383819961860143,-6.618788849347568
1621785855193.167,0.037,-0.368,-0.248,-1.1525287325254892,-6.377634998573509,-6.594358244365361
1621785855196.122,0.0346476532892819,-0.368,-0.2521166067437567,-1.108,-6.374,-6.58
1621785855198.192,0.033,-0.368,-0.255,-1.0829839969890855,-6.366469672563041,-6.5713209785472335
1621785855203.212,0.024,-0.351,-0.255,-1.0223117802032369,-6.348206097101995,-6.550271433948062
1621785855208.229,0.017,-0.339,-0.253,-0.961674971772676,-6.32995318027851,-6.529234173880316
1621785855212.339,0.008801003263039984,-0.325881605220864,-0.247260702284128,-0.912,-6.315,-6.512
1621785855213.242,0.007,-0.323,-0.246,-0.9152934126313248,-6.315,-6.5179727991788425
1621785855218.25,-0.005,-0.311,-0.246,-0.9335621452723101,-6.315,-6.551104229561647
1621785855223.255,-0.017,-0.295,-0.236,-0.9518193002052893,-6.315,-6.584214663084168
1621785855228.256,-0.019,-0.29,-0.234,-0.9700630962444149,-6.315,-6.61730086946021
1621785855228.513,-0.019462598329017443,-0.28902340352762984,-0.2336402012996531,-0.971,-6.315,-6.619
1621785855233.253,-0.028,-0.271,-0.227,-1.0285859929480485,-6.3094176843570775,-6.6939205520497564
1621785855238.246,-0.024,-0.269,-0.225,-1.0892477868071004,-6.303537204340128,-6.772842783856176
1621785855243.235,-0.023,-0.264,-0.225,-1.149859157700398,-6.297661612263737,-6.851699414355109
1621785855244.646,-0.0218678616906651,-0.264,-0.22443393084533256,-1.167,-6.296,-6.874
1621785855248.22,-0.019,-0.264,-0.223,-1.1996461003989867,-6.27845549706449,-6.9110877467117735
1621785855253.201,-0.005,-0.265,-0.222,-1.2451441358071516,-6.254004171913164,-6.962775991019009
1621785855258.178,0.002,-0.26,-0.23,-1.290606489979823,-6.229572022391795,-7.014423699500888
1621785855260.739,0.006119986253620698,-0.26,-0.22742500859148707,-1.314,-6.217,-7.041
1621785855263.151,0.01,-0.26,-0.225,-1.319860232717317,-6.189051197809719,-7.035139767282684
1621785855268.12,0.019,-0.264,-0.229,-1.3319342459502623,-6.131467442391056,-7.023065754049738
1621785855273.085,0.021,-0.271,-0.23,-1.343997581565138,-6.073934610997034,-7.011002418434862
1621785855276.79,0.01950901409834455,-0.26652704229503366,-0.22925450704917227,-1.353,-6.031,-7.002
1621785855278.055,0.019,-0.265,-0.229,-1.3414702827903597,-6.026372426426063,-6.985842709216422
1621785855283.049,0.01,-0.262,-0.227,-1.2959478170037544,-6.00810150478382,-6.922049321787574
1621785855288.038,0.0,-0.26,-0.222,-1.2504720842921158,-5.989849339953978,-6.858321424246094
1621785855292.917,-0.018592498286161982,-0.24825736950347665,-0.21515013221036136,-1.206,-5.972,-6.796
1621785855293.024,-0.019,-0.248,-0.215,-1.2054816174797056,-5.972,-6.795607890144906
1621785855298.007,-0.038,-0.244,-0.206,-1.181324755329641,-5.972,-6.777335391851908
1621785855302.985,-0.061,-0.243,-0.199,-1.157192747136029,-5.972,-6.7590816933464835
1621785855307.96,-0.084,-0.234,-0.188,-1.1330761247249828,-5.972,-6.740839632804795
1621785855309.007,-0.08694906929915035,-0.23315740877167135,-0.18631481754334267,-1.128,-5.972,-6.737
1621785855312.931,-0.098,-0.23,-0.18,-1.113577757836621,-5.991311137811982,-6.7704889351929305
1621785855317.899,-0.119,-0.225,-0.169,-1.095317540951193,-6.015761258726369,-6.812889777791297
1621785855322.863,-0.126,-0.232,-0.164,-1.0770716816985808,-6.040192155013765,-6.855257281479566
1621785855325.059,-0.13131305375073835,-0.22270215593620793,-0.16090071864540265,-1.069,-6.051,-6.874
1621785855327.823,-0.138,-0.211,-0.157,-1.0655476862087367,-6.079654204467485,-6.916463459632538
1621785855332.78,-0.143,-0.211,-0.15,-1.0593560265304567,-6.13104497979721,-6.992620873675383
1621785855337.733,-0.138,-0.208,-0.147,-1.0531695509643972,-6.182392726995502,-7.0687145231379125
1621785855341.071,-0.1285591832708621,-0.20530262379167488,-0.1409309035312685,-1.049,-6.217,-7.12
1621785855342.683,-0.124,-0.204,-0.138,-1.0510184944593044,-6.234863675964845,-7.127872128391288
1621785855347.628,-0.112,-0.197,-0.138,-1.0572100114635077,-6.289658601452044,-7.15201904470768
1621785855352.57,-0.096,-0.19,-0.134,-1.0633981658387466,-6.344423767672908,-7.176152846771112
1621785855357.044,-0.08150953840071168,-0.18728303845013344,-0.12766042305031136,-1.069,-6.394,-7.198
1621785855357.51,-0.08,-0.187,-0.127,-1.0695848831152914,-6.3951405220748185,-7.195134072735072
1621785855362.444,-0.061,-0.19,-0.126,-1.0757768620362143,-6.407214880970618,-7.1647933760225495
1621785855367.375,-0.042,-0.18,-0.12,-1.0819648579919727,-6.419281473084347,-7.134472195839333
1621785855372.302,-0.021,-0.182,-0.113,-1.0881479518367596,-6.431338506081682,-7.104175035999877
1621785855372.981,-0.019355410999408636,-0.1811777054997043,-0.11258885274985216,-1.089,-6.433,-7.1
1621785855377.256,-0.009,-0.176,-0.11,-1.0836594080241548,-6.417245253671257,-7.084245253671257
1621785855382.212,0.002,-0.168,-0.101,-1.0774685179254921,-6.398982127880202,-7.0659821278802015
1621785855387.164,0.009,-0.168,-0.101,-1.0712822026015218,-6.380732497674489,-7.04773249767449
1621785855388.991,0.014169092613608329,-0.16578467459416787,-0.09546168648541965,-1.069,-6.374,-7.041
1621785855392.112,0.023,-0.162,-0.086,-1.0842381185244048,-6.34723561233534,-7.012282007396315
1621785855397.057,0.03,-0.164,-0.087,-1.1083802377823282,-6.304832146459244,-6.966783398025612
1621785855401.999,0.031,-0.159,-0.082,-1.1325092453925854,-6.262451710015587,-6.92130949906782
1621785855404.967,0.034606348264609905,-0.15599470977949173,-0.0807978839117967,-1.147,-6.237,-6.894
1621785855406.937,0.037,-0.154,-0.08,-1.1567639769629017,-6.229707915939099,-6.886707915939099
1621785855411.872,0.033,-0.155,-0.072,-1.1812241368746745,-6.21144020157461,-6.86844020157461
1621785855416.804,0.033,-0.143,-0.07,-1.2056685660018993,-6.193184235517569,-6.850184235517569
1621785855420.906,0.031335199405499135,-0.14882680208075302,-0.07,-1.226,-6.178,-6.835
1621785855421.732,0.031,-0.15,-0.07,-1.2249613619268378,-6.179038638073162,-6.838063982315828
1621785855426.656,0.026,-0.14,-0.063,-1.2187691386641695,-6.185230861335831,-6.8563310409407
1621785855431.578,0.021,-0.126,-0.065,-1.2125796785533365,-6.191420321446664,-6.874589948267658
1621785855436.496,0.017,-0.126,-0.056,-1.206394823695562,-6.197605176304438,-6.892835270098092
1621785855436.81,0.01680831718586973,-0.1255527401003627,-0.05574442291449297,-1.206,-6.198,-6.894
1621785855441.41,0.014,-0.119,-0.052,-1.2146954448256233,-6.198,-6.931100564589327
1621785855446.322,0.019,-0.11,-0.042,-1.2239811700998415,-6.198,-6.970719659092658
1621785855451.229,0.016,-0.094,-0.038,-1.233257203513684,-6.198,-7.010297401658385
1621785855452.68,0.01274615499477378,-0.09045035090338958,-0.038591608182768404,-1.236,-6.198,-7.022
1621785855456.134,0.005,-0.082,-0.04,-1.208077463920069,-6.202144751449365,-7.068901134821759
1621785855461.034,0.009,-0.086,-0.037,-1.1684672505242384,-6.208024392500309,-7.135433915135069
1621785855465.932,0.026,-0.072,-0.031,-1.1288728259528802,-6.213901689897619,-7.201940175157271
1621785855468.514,0.030748278958395693,-0.06830689414347002,-0.023613788286940038,-1.108,-6.217,-7.237
1621785855470.826,0.035,-0.065,-0.017,-1.1195089840625194,-6.205636699280044,-7.225636699280044
1621785855475.717,0.042,-0.054,-0.01,-1.1438565011383917,-6.181597378622854,-7.2015973786228535
1621785855480.645,0.038,-0.047,-0.009,-1.168387529998154,-6.157376869115747,-7.177376869115746
1621785855484.384,0.044834002677376174,-0.036369329168525956,-0.014315335415737023,-1.187,-6.139,-7.159
1621785855485.569,0.047,-0.033,-0.016,-1.1767119950852405,-6.140491015205038,-7.157508984794962
1621785855490.491,0.047,-0.021,-0.007,-1.1339830747964983,-6.146683612348333,-7.151316387651667
1621785855495.409,0.051,-0.012,0.002,-1.091288066349255,-6.152871294731992,-7.145128705268008
1621785855500.28,0.045053645936817,0.0018748261474269817,0.008937413073713492,-1.049,-6.159,-7.139
1621785855500.324,0.045,0.002,0.009,-1.049434882969392,-6.158916901343428,-7.139
1621785855505.236,0.045,0.014,0.019,-1.0980451348814304,-6.149628318175522,-7.139
1621785855510.146,0.047,0.019,0.021,-1.1466336426449995,-6.140343889940445,-7.139
1621785855515.052,0.044,0.026,0.024,-1.1951834941446224,-6.13106684825262,-7.139
1621785855516.145,0.04511484635689028,0.028675631256536677,0.023777030728621945,-1.206,-6.129,-7.139
1621785855519.954,0.049,0.038,0.023,-1.21321869216533,-6.140790530536705,-7.124803238741518
1621785855524.855,0.056,0.038,0.028,-1.2225064774830352,-6.155960579888958,-7.106537260950031
1621785855529.751,0.059,0.038,0.023,-1.2317850092535472,-6.171115515114127,-7.0882894818013575
1621785855531.975,0.0608178190162626,0.04299900229472214,0.024363364262196947,-1.236,-6.178,-7.08
1621785855534.645,0.063,0.049,0.026,-1.2392109036963779,-6.178,-7.060227593027569
1621785855539.535,0.068,0.049,0.028,-1.2450915904314501,-6.178,-7.0240149431326495
1621785855544.422,0.065,0.051,0.028,-1.2509690474718753,-6.178,-6.987822181357399
1621785855547.774,0.06568617552978809,0.051,0.031430877648940425,-1.255,-6.178,-6.963
1621785855549.307,0.066,0.051,0.033,-1.2569446251045246,-6.174207981046177,-6.948707005481743
1621785855554.188,0.059,0.054,0.031,-1.26313651708012,-6.1621337916937655,-6.903196599461117
1621785855559.066,0.061,0.051,0.037,-1.2693243829167826,-6.150067453312274,-6.857715785561647
1621785855563.54,0.04998677884615385,0.055588842147435896,0.03975330528846154,-1.275,-6.139,-6.816
1621785855563.941,0.049,0.056,0.04,-1.2759935457845906,-6.138261209544792,-6.81398743289788
1621785855568.812,0.042,0.058,0.044,-1.2880661557079467,-6.1292841406274245,-6.789532658950569
1621785855573.681,0.035,0.061,0.045,-1.3001333198870513,-6.120311121109629,-6.7650889161262295
1621785855578.547,0.023,0.065,0.054,-1.3121938281565149,-6.111343050857976,-6.740658655785522
1621785855579.276,0.021650949081048507,0.065,0.054299789093100334,-1.314,-6.11,-6.737
1621785855583.409,0.014,0.065,0.056,-1.3295287779850746,-6.115000792910448,-6.731999207089553
1621785855588.269,0.01,0.07,0.058,-1.3477892412935324,-6.120881281094527,-6.7261187189054725
1621785855593.125,0.0,0.065,0.063,-1.3660341106965175,-6.126756747512437,-6.720243252487562
1621785855594.979,-0.0019101519267531947,0.06614609115605193,0.0649101519267532,-1.373,-6.129,-6.718
1621785855597.978,-0.005,0.068,0.068,-1.3655368270189432,-6.129,-6.721635904785643
1621785855602.828,-0.009,0.07,0.072,-1.3534677997258227,-6.129,-6.727515687313061
1621785855607.675,-0.026,0.072,0.073,-1.3414054555084747,-6.129,-6.733392213983051
1621785855610.651,-0.03030033768459251,0.07814333954941788,0.0773003376845925,-1.334,-6.129,-6.737
1621785855612.519,-0.033,0.082,0.08,-1.3316109151081832,-6.13485325798495,-6.753365231508945
1621785855617.359,-0.044,0.096,0.079,-1.3254215242436542,-6.150017265603047,-6.795762558930969
1621785855622.197,-0.047,0.098,0.087,-1.3192343188984983,-6.165175918698679,-6.8381449155452865
1621785855626.29,-0.045306565656565656,0.09630656565656566,0.09208030303030303,-1.314,-6.178,-6.874
1621785855627.031,-0.045,0.096,0.093,-1.3168013047151217,-6.180801304715121,-6.881929116736022
1621785855631.863,-0.038,0.099,0.093,-1.3350693188573575,-6.199069318857357,-6.9336368855793
1621785855636.691,-0.037,0.11,0.096,-1.3533216420011889,-6.217321642001189,-6.98530024091862
1621785855641.516,-0.028,0.108,0.094,-1.371563812146053,-6.2355638121460535,-7.03693485810832
1621785855641.896,-0.02729093670886076,0.10831513924050633,0.09415756962025316,-1.373,-6.237,-7.041
1621785855646.338,-0.019,0.112,0.096,-1.3898296568051047,-6.2427049684085105,-7.063534625213615
1621785855651.157,-0.012,0.122,0.094,-1.408088456171707,-6.2488943919226125,-7.08798284809432
1621785855655.973,-0.002,0.113,0.096,-1.426335230390543,-6.255079739115438,-7.1124149695059815
1621785855657.468,0.0017284627092846272,0.11362141045154744,0.0944464738711314,-1.432,-6.257,-7.12
1621785855660.785,0.01,0.115,0.091,-1.432,-6.252731431444011,-7.12
1621785855665.595,0.019,0.119,0.087,-1.432,-6.246541284403669,-7.12
1621785855670.402,0.028,0.106,0.091,-1.432,-6.240354907628503,-7.12
1621785855673.009,0.03179864816791178,0.10817065609594959,0.08828667988006302,-1.432,-6.237,-7.12
1621785855675.206,0.035,0.11,0.086,-1.432,-6.228640962262071,-7.1061154966386955
1621785855680.006,0.038,0.112,0.089,-1.432,-6.210378150731301,-7.075780657146906
1621785855684.803,0.038,0.113,0.082,-1.432,-6.1921274147078735,-7.045465875277485
1621785855688.516,0.03954909350173151,0.11222545324913424,0.08509818700346303,-1.432,-6.178,-7.022
1621785855689.597,0.04,0.112,0.086,-1.429276293994226,-6.176673066304879,-7.014457429522473
1621785855694.388,0.042,0.113,0.082,-1.4172026534572244,-6.170791036299673,-6.981022732650775
1621785855699.176,0.035,0.112,0.086,-1.4051363959046521,-6.164912603133035,-6.947608480966729
1621785855703.961,0.033,0.113,0.084,-1.393078136585212,-6.159038066541513,-6.914216378235971
1621785855703.992,0.03295460348261247,0.11294811826584282,0.0840129704335393,-1.393,-6.159,-6.914
1621785855708.742,0.026,0.105,0.086,-1.4049956367085605,-6.164844028140068,-6.914
1621785855713.521,0.023,0.112,0.084,-1.4170646431112164,-6.170723800490079,-6.914
1621785855718.296,0.021,0.115,0.089,-1.4291231681290015,-6.176598466524386,-6.914
1621785855719.435,0.018852079177535678,0.11380671065418649,0.08732939491586107,-1.432,-6.178,-6.914
1621785855723.069,0.012,0.11,0.082,-1.4411965686041537,-6.182716189027771,-6.92555466311804
1621785855727.838,0.017,0.112,0.084,-1.45326486383727,-6.188905058378087,-6.940717393026314
1621785855732.604,0.009,0.103,0.082,-1.4653263628154556,-6.195090442469465,-6.955871584050188
1621785855734.846,0.010412117484238044,0.10723635245271412,0.0810585883438413,-1.471,-6.198,-6.963
1621785855737.367,0.012,0.112,0.08,-1.4742786677038848,-6.198,-6.961360666148058
1621785855742.127,0.014,0.105,0.08,-1.4804692724126436,-6.198,-6.958265363793679
1621785855746.884,0.021,0.108,0.077,-1.4866560669323217,-6.198,-6.95517196653384
1621785855750.224,0.02451371481405383,0.0995670844462708,0.07208079926032464,-1.491,-6.198,-6.953
1621785855751.637,0.026,0.096,0.07,-1.4855674075959842,-6.201591035656892,-6.947567407595984
1621785855756.388,0.024,0.094,0.07,-1.4672991773934352,-6.213666645451798,-6.929299177393435
1621785855761.135,0.028,0.093,0.068,-1.4490459673184934,-6.225732326687775,-6.911045967318493
1621785855765.568,0.029868587599691278,0.09113141240030873,0.0633285310007718,-1.432,-6.237,-6.894
1621785855765.88,0.03,0.091,0.063,-1.4312059723860846,-6.2365928063518385,-6.893205972386085
1621785855770.621,0.03,0.091,0.066,-1.41913078345716,-6.230400401772902,-6.88113078345716
1621785855775.359,0.03,0.087,0.065,-1.4070642996077931,-6.22421246133733,-6.8690642996077935
1621785855780.094,0.03,0.089,0.061,-1.3950046554637927,-6.21802802844297,-6.857004655463793
1621785855780.881,0.02900196058198328,0.08966535961201114,0.06066732019399443,-1.393,-6.217,-6.855
1621785855784.826,0.024,0.093,0.059,-1.377766833913905,-6.217,-6.839766833913905
1621785855789.555,0.03,0.082,0.061,-1.3595055127672495,-6.217,-6.821505512767249
1621785855794.281,0.023,0.08,0.059,-1.3412555047777317,-6.217,-6.803255504777732
1621785855796.16,0.022204177653689056,0.07960208882684452,0.05780626648053358,-1.334,-6.217,-6.796
1621785855799.003,0.021,0.079,0.056,-1.3302709747662356,-6.217,-6.792270974766236
1621785855803.723,0.016,0.082,0.059,-1.3240800563596773,-6.217,-6.786080056359677
1621785855808.44,0.009,0.068,0.061,-1.3178929806583835,-6.217,-6.779892980658383
1621785855811.408,0.010889199689199689,0.06674053354053354,0.059110800310800314,-1.314,-6.217,-6.776
1621785855813.153,0.012,0.066,0.058,-1.3095262625776323,-6.2237679617415305,-6.776
1621785855817.863,0.007,0.07,0.058,-1.297451928169082,-6.24203426251344,-6.776
1621785855822.57,0.005,0.068,0.059,-1.2853851042318616,-6.26028920129026,-6.776
1621785855826.621,0.0006930384675284222,0.068,0.062445569225977264,-1.275,-6.276,-6.776
1621785855827.273,0.0,0.068,0.063,-1.275,-6.276858727989064,-6.779391975556806
1621785855831.975,0.002,0.063,0.056,-1.275,-6.283053147865241,-6.8038599340677015
1621785855836.673,0.0,0.075,0.063,-1.275,-6.289242100184932,-6.828306295730481
1621785855841.367,0.0,0.073,0.063,-1.275,-6.295425584948139,-6.852731060545148
1621785855841.803,0.0,0.07207071127530049,0.06262828451012019,-1.275,-6.296,-6.855
1621785855846.059,0.0,0.063,0.059,-1.264043623295839,-6.301337721984079,-6.860337721984078
1621785855850.747,0.002,0.065,0.063,-1.251975456860154,-6.3072170851194125,-6.866217085119412
1621785855855.433,0.003,0.065,0.063,-1.239912318303413,-6.313093998775261,-6.87209399877526
1621785855856.953,0.003,0.06727225322000313,0.06364921520571518,-1.236,-6.315,-6.874
1621785855860.115,0.003,0.072,0.065,-1.23390826873385,-6.311025710594316,-6.874
1621785855864.794,0.009,0.065,0.065,-1.230813145994832,-6.3051449773901815,-6.874
1621785855869.47,0.0,0.065,0.066,-1.22771996124031,-6.299267926356589,-6.874
1621785855872.07,0.0016691917872629434,0.06166161642547411,0.06822558904968393,-1.226,-6.296,-6.874
1621785855874.143,0.003,0.059,0.07,-1.226,-6.298611008610086,-6.874
1621785855878.812,-0.002,0.068,0.068,-1.226,-6.3044916974169745,-6.874
1621785855883.479,-0.002,0.072,0.07,-1.226,-6.310369926199263,-6.874
1621785855887.155,-0.002,0.06727104271356785,0.07236447864321607,-1.226,-6.315,-6.874
1621785855888.143,-0.002,0.066,0.073,-1.226,-6.316312661163459,-6.874
1621785855892.803,-0.003,0.065,0.072,-1.226,-6.322503608439694,-6.874
1621785855897.46,-0.002,0.068,0.072,-1.226,-6.328690663466372,-6.874
1621785855902.115,0.0,0.073,0.072,-1.226,-6.334875123660012,-6.874
1621785855902.209,0.0,0.07304041782583591,0.07210104456458978,-1.226,-6.335,-6.874
1621785855906.766,0.0,0.075,0.077,-1.2347992782600214,-6.335,-6.880068467765532
1621785855911.414,0.007,0.072,0.075,-1.2437739198283428,-6.335,-6.886257875743684
1621785855916.059,0.005,0.07,0.075,-1.2527429045157514,-6.335,-6.8924433824246565
1621785855917.228,0.006259403440475564,0.06899247724761956,0.07600752275238044,-1.255,-6.335,-6.894
1621785855920.7,0.01,0.066,0.079,-1.2505981460665003,-6.335,-6.903035384389815
1621785855925.339,0.014,0.072,0.075,-1.2447164198556604,-6.335,-6.915108401348908
1621785855929.976,0.014,0.075,0.08,-1.2388374794324162,-6.335,-6.927175700112409
1621785855932.214,0.014966575284690005,0.07065041121889498,0.079516712357655,-1.236,-6.335,-6.933
1621785855934.607,0.016,0.066,0.079,-1.231199275066534,-6.338200483288977,-6.926759057586494
1621785855939.238,0.024,0.07,0.077,-1.2219078812023445,-6.344394745865104,-6.914680245563048
1621785855943.864,0.023,0.065,0.08,-1.2126267735562557,-6.350582150962496,-6.9026148056231325
1621785855947.167,0.021571081537811575,0.06857229615547107,0.07642770384452893,-1.206,-6.355,-6.894
1621785855948.487,0.021,0.07,0.075,-1.2086537423312884,-6.355,-6.8922308384458075
1621785855953.107,0.024,0.066,0.079,-1.2179411042944785,-6.355,-6.886039263803681
1621785855957.724,0.028,0.066,0.079,-1.2272230674846625,-6.355,-6.879851288343558
1621785855962.09,0.02421483754894698,0.06978516245105303,0.07710741877447348,-1.236,-6.355,-6.874
1621785855962.338,0.024,0.07,0.077,-1.2366490940395178,-6.354667131261786,-6.874332868738214
1621785855966.948,0.031,0.07,0.073,-1.2487248011806182,-6.348474460933017,-6.8805255390669835
1621785855971.556,0.028,0.063,0.075,-1.2607947528080674,-6.342284742149709,-6.886715257850291
1621785855976.16,0.037,0.054,0.068,-1.2728544724112485,-6.336100270558334,-6.892899729441666
1621785855976.979,0.037,0.054,0.06764403183023873,-1.275,-6.335,-6.894
1621785855980.762,0.037,0.054,0.066,-1.275,-6.329906813923676,-6.888906813923676
1621785855985.36,0.044,0.049,0.066,-1.275,-6.323716102948428,-6.882716102948427
1621785855989.955,0.04,0.054,0.063,-1.275,-6.3175296650560435,-6.876529665056043
1621785855991.834,0.03918166835025785,0.05318166835025785,0.06218166835025785,-1.275,-6.315,-6.874
1621785855994.547,0.038,0.052,0.061,-1.2713397724091364,-6.307862556197817,-6.866862556197816
1621785855999.136,0.042,0.044,0.058,-1.2651490374322742,-6.295790622992935,-6.854790622992935
1621785856003.722,0.042,0.044,0.056,-1.2589622548293067,-6.283726396917149,-6.842726396917148
1621785856006.659,0.042,0.03823236735563605,0.05728169614319199,-1.255,-6.276,-6.835
1621785856008.305,0.042,0.035,0.058,-1.2593403433476393,-6.2738854737537135,-6.832885473753714
1621785856012.885,0.037,0.035,0.051,-1.2714175965665235,-6.268001683724001,-6.827001683724001
1621785856017.461,0.031,0.031,0.051,-1.2834839055793992,-6.262123225486959,-6.821123225486959
1621785856021.449,0.03274416742298863,0.03274416742298863,0.04576749773103411,-1.294,-6.257,-6.816
1621785856022.034,0.033,0.033,0.045,-1.294,-6.257,-6.816753047822275
1621785856026.605,0.031,0.028,0.051,-1.294,-6.257,-6.822637569682232
1621785856031.172,0.026,0.026,0.042,-1.294,-6.257,-6.828517062842208
1621785856035.737,0.023,0.031,0.042,-1.294,-6.257,-6.834393727358444
1621785856036.208,0.023103254469542873,0.0314130178781715,0.041483727652285626,-1.294,-6.257,-6.835
1621785856040.298,0.024,0.035,0.037,-1.299555260801804,-6.257,-6.851388019365322
1621785856044.856,0.021,0.016,0.035,-1.3057458633153165,-6.257,-6.869650296780184
1621785856049.411,0.023,0.023,0.03,-1.3119324866531819,-6.257,-6.887900835626886
1621785856050.933,0.023,0.020658655651520842,0.029331044471863098,-1.314,-6.257,-6.894
1621785856053.962,0.023,0.016,0.028,-1.309877172576518,-6.260916686052307,-6.90203951347579
1621785856058.511,0.023,0.012,0.024,-1.303684955634575,-6.266799292147153,-6.914114336512578
1621785856063.056,0.031,0.009,0.019,-1.297498388222392,-6.272676531188727,-6.926178142966335
1621785856065.626,0.030434305980976947,0.00390875382879252,0.01730291794293084,-1.294,-6.276,-6.933
1621785856067.599,0.03,0.0,0.016,-1.294,-6.276,-6.9250589205122655
1621785856072.138,0.028,-0.005,0.012,-1.294,-6.276,-6.906792079537695
1621785856076.674,0.035,0.0,0.007,-1.294,-6.276,-6.8885360467633685
1621785856080.286,0.03181283998491948,-0.007171110033931167,0.0030160499811493517,-1.294,-6.276,-6.874
1621785856081.207,0.031,-0.009,0.002,-1.2965186495552479,-6.276,-6.872803641461257
1621785856085.737,0.031,-0.007,0.0,-1.3089049581949568,-6.276,-6.866920144857396
1621785856090.264,0.028,-0.019,-0.005,-1.3212825887418436,-6.276,-6.861040770347625
1621785856094.788,0.024,-0.026,-0.012,-1.3336528762871114,-6.276,-6.8551648837636225
1621785856094.915,0.024,-0.02619660797234525,-0.012056173706384359,-1.334,-6.276,-6.855
1621785856099.308,0.024,-0.033,-0.014,-1.3397185916199716,-6.287738161746257,-6.843261838253743
1621785856103.826,0.017,-0.037,-0.021,-1.3455995818349085,-6.299809667976917,-6.831190332023083
1621785856108.34,0.019,-0.038,-0.023,-1.3514758049678013,-6.311871389144435,-6.819128610855565
1621785856109.511,0.020038039067150046,-0.039557058600725066,-0.024297548833937557,-1.353,-6.315,-6.816
1621785856112.852,0.023,-0.044,-0.028,-1.3486415736363941,-6.315,-6.806824365550304
1621785856117.36,0.024,-0.058,-0.026,-1.3427608032451641,-6.315,-6.794443796305608
1621785856121.865,0.021,-0.054,-0.04,-1.336884173120118,-6.315,-6.782071943410775
1621785856124.076,0.021,-0.054,-0.038526681127982645,-1.334,-6.315,-6.776
1621785856126.367,0.021,-0.054,-0.037,-1.324697827584469,-6.302702212738789,-6.757553319108184
1621785856130.866,0.024,-0.054,-0.038,-1.3064305179858533,-6.278552210218586,-6.721328315327878
1621785856135.362,0.012,-0.054,-0.044,-1.2881751037483828,-6.254417933769049,-6.6851269006535725
1621785856138.607,0.006943366487309093,-0.050388118919506494,-0.044722376216098696,-1.275,-6.237,-6.659
1621785856139.854,0.005,-0.049,-0.045,-1.2690660650548857,-6.231926055626642,-6.657280018856489
1621785856144.344,-0.005,-0.047,-0.047,-1.2477013435248163,-6.213657670550205,-6.651087345949223
1621785856148.83,-0.014,-0.056,-0.047,-1.22635520910499,-6.195405178799919,-6.6449000606101425
1621785856153.108,-0.029264728302297725,-0.056,-0.04509190896221278,-1.206,-6.178,-6.639
1621785856153.314,-0.03,-0.056,-0.045,-1.2054445213223755,-6.179125200398265,-6.64068067907589
1621785856157.794,-0.04,-0.04,-0.044,-1.1933674671346846,-6.203588976829741,-6.677221509695057
1621785856162.271,-0.054,-0.044,-0.042,-1.1812983107480972,-6.22803675515129,-6.713738444403193
1621785856166.745,-0.056,-0.04,-0.042,-1.1692370521626136,-6.252468535362911,-6.750231483200297
1621785856167.575,-0.056556817561295256,-0.039443182438704746,-0.04162878829246983,-1.167,-6.257,-6.757
1621785856171.216,-0.059,-0.037,-0.04,-1.176837398098975,-6.281719615735886,-6.786512194296925
1621785856175.684,-0.059,-0.031,-0.042,-1.188908889490241,-6.312053106924196,-6.8227266684707235
1621785856180.148,-0.056,-0.033,-0.04,-1.2009691675405068,-6.342358420999222,-6.85890750262152
1621785856182.01,-0.05140969524539038,-0.032165399135525526,-0.039165399135525525,-1.206,-6.355,-6.874
1621785856184.61,-0.045,-0.031,-0.038,-1.198959095455239,-6.351389279720635,-6.897108609787933
1621785856189.068,-0.04,-0.037,-0.042,-1.1868870844705124,-6.345198504856674,-6.9367295689172925
1621785856193.523,-0.03,-0.035,-0.037,-1.174823668017155,-6.339012137444695,-6.976322320353952
1621785856196.412,-0.027404824561403508,-0.03240482456140351,-0.03764879385964912,-1.167,-6.335,-7.002
1621785856197.976,-0.026,-0.031,-0.038,-1.1605777811761908,-6.332822976669895,-6.990244074017434
1621785856202.425,-0.024,-0.037,-0.04,-1.1423086438633159,-6.326630048767226,-6.956802263343019
1621785856206.871,-0.037,-0.037,-0.037,-1.1240515369322528,-6.3204411989600855,-6.9233824743844625
1621785856210.78,-0.030841246290801184,-0.025562314540059347,-0.03348071216617211,-1.108,-6.315,-6.894
1621785856211.314,-0.03,-0.024,-0.033,-1.1072923535422343,-6.316489782016349,-6.8918025715258855
1621785856215.754,-0.024,-0.028,-0.028,-1.1014079189373298,-6.328878065395096,-6.873529853542235
1621785856220.191,-0.028,-0.019,-0.026,-1.0955273671662125,-6.341258174386922,-6.855269192779292
1621785856224.625,-0.028,-0.017,-0.023,-1.0896506982288827,-6.353630108991826,-6.837020589237057
1621785856225.116,-0.02755668228162028,-0.016113364563240563,-0.02255668228162028,-1.089,-6.355,-6.835
1621785856229.055,-0.024,-0.009,-0.019,-1.0997389278582765,-6.355,-6.840507142491424
1621785856233.482,-0.024,-0.007,-0.016,-1.1118084071476113,-6.355,-6.846696619050057
1621785856237.907,-0.024,-0.003,-0.012,-1.123872561568788,-6.355,-6.852883364907071
1621785856239.421,-0.022287773359840956,-0.0019726640159045726,-0.010972664015904573,-1.128,-6.355,-6.855
1621785856242.328,-0.019,0.0,-0.009,-1.1359442467581344,-6.355,-6.8629442467581345
1621785856246.746,-0.012,-0.005,-0.012,-1.148018407636774,-6.355,-6.875018407636775
1621785856251.161,-0.007,0.0,-0.005,-1.1600832278372737,-6.355,-6.887083227837274
1621785856253.692,-0.005852700309871625,-0.0011472996901283753,-0.006147299690128376,-1.167,-6.355,-6.894
1621785856255.573,-0.005,-0.002,-0.007,-1.1721522555424104,-6.349715635341118,-6.894
1621785856259.981,0.0,-0.005,-0.003,-1.1842254513656705,-6.337332870394184,-6.894
1621785856264.387,0.0,0.0,-0.005,-1.196293297669873,-6.324955592133464,-6.894
1621785856267.931,0.0024146382034932077,-0.007243914610479622,-0.0009756029941779872,-1.206,-6.315,-6.894
1621785856268.79,0.003,-0.009,0.0,-1.206,-6.312641420911529,-6.891641420911529
1621785856273.189,0.005,-0.01,0.0,-1.206,-6.300565013404826,-6.879565013404826
1621785856277.586,0.002,0.0,0.002,-1.206,-6.288493967828418,-6.867493967828419
1621785856281.978,0.0,0.0,0.002,-1.206,-6.2764363270777475,-6.855436327077748
1621785856282.137,0.0,0.0,0.0020361968306922434,-1.206,-6.276,-6.855
1621785856286.369,0.0,0.0,0.003,-1.2119709615748953,-6.276,-6.843356624928954
1621785856290.756,-0.007,0.005,0.007,-1.2181610030829644,-6.276,-6.83128604398822
1621785856295.14,-0.012,0.014,0.005,-1.2243462220767813,-6.276,-6.819224866950276
1621785856296.312,-0.011464920590693787,0.012929841181387573,0.006070158818612427,-1.226,-6.276,-6.816
1621785856299.521,-0.01,0.01,0.009,-1.2325809637264549,-6.280538595673417,-6.824850261563164
1621785856303.898,-0.016,0.003,0.007,-1.2415571899656428,-6.286729096528029,-6.836921738229658
1621785856308.273,-0.021,0.009,0.009,-1.2505294107491236,-6.292916834999396,-6.848987828248822
1621785856310.453,-0.021,0.007005584096493187,0.008002792048246594,-1.255,-6.296,-6.855
1621785856312.645,-0.021,0.005,0.007,-1.258107189203218,-6.292892810796782,-6.857951829743057
1621785856317.013,-0.024,0.007,0.007,-1.264298382212994,-6.286701617787005,-6.8638334631023445
1621785856321.378,-0.024,0.009,0.009,-1.2704854226144129,-6.280514577385587,-6.869711151483692
1621785856324.563,-0.024,0.009730172944534618,0.006079308221861533,-1.275,-6.276,-6.874
1621785856325.74,-0.024,0.01,0.005,-1.275,-6.276,-6.875672100443951
1621785856330.099,-0.024,0.003,0.005,-1.275,-6.276,-6.88186487236404
1621785856334.455,-0.023,0.007,0.005,-1.275,-6.276,-6.888053135405105
1621785856338.641,-0.02588491306786315,0.007,0.00019181155356141379,-1.275,-6.276,-6.894
1621785856338.808,-0.026,0.007,0.0,-1.2754636401557284,-6.275774124026696,-6.893762235817575
1621785856343.157,-0.024,0.005,0.002,-1.2875379414627364,-6.269891772107897,-6.887570286429366
1621785856347.504,-0.024,0.0,-0.005,-1.2996068200778643,-6.2640120620133475,-6.881381117908788
1621785856351.847,-0.019,0.007,-0.007,-1.3116648533092325,-6.258137635567297,-6.875197511123471
1621785856352.688,-0.019774984534053203,0.005643777065406895,-0.006612507732973399,-1.314,-6.257,-6.874
1621785856356.188,-0.023,0.0,-0.005,-1.3237409969162153,-6.257,-6.859513389201526
1621785856360.525,-0.028,0.0,-0.012,-1.3358112444901302,-6.257,-6.841562764604421
1621785856364.86,-0.028,-0.009,-0.014,-1.3478767357178947,-6.257,-6.8236192135477465
1621785856366.701,-0.028850104289982526,-0.011975365014938835,-0.014850104289982525,-1.353,-6.257,-6.816
1621785856369.191,-0.03,-0.016,-0.016,-1.353,-6.257,-6.816
1621785856373.519,-0.033,-0.012,-0.014,-1.353,-6.257,-6.816
1621785856377.844,-0.035,-0.019,-0.019,-1.353,-6.257,-6.816
1621785856380.681,-0.03828192961644919,-0.026220245156188215,-0.017687228153420324,-1.353,-6.257,-6.816
1621785856382.166,-0.04,-0.03,-0.017,-1.3509768410733978,-6.2527407180492585,-6.818023158926602
1621785856386.484,-0.037,-0.017,-0.021,-1.345094613755317,-6.240357081590141,-6.823905386244682
1621785856390.8,-0.04,-0.024,-0.023,-1.3392147145832969,-6.227978346491151,-6.829785285416703
1621785856394.628,-0.04,-0.027550900237798666,-0.019449099762201334,-1.334,-6.217,-6.835
1621785856395.112,-0.04,-0.028,-0.019,-1.3333723193795997,-6.2182553612408,-6.835
1621785856399.451,-0.045,-0.03,-0.026,-1.3277469336076602,-6.22950613278468,-6.835
1621785856404.454,-0.045,-0.031,-0.019,-1.3212602674685447,-6.24247946506291,-6.835
1621785856409.458,-0.047,-0.031,-0.019,-1.314772651736963,-6.2554546965260736,-6.835
1621785856410.054,-0.04783400039047247,-0.031,-0.01923828582584928,-1.314,-6.257,-6.835
1621785856414.46,-0.054,-0.031,-0.021,-1.3033700084576814,-6.267629991542319,-6.845629991542318
1621785856419.463,-0.051,-0.033,-0.019,-1.2912998701141787,-6.279700129885821,-6.857700129885821
1621785856424.466,-0.052,-0.037,-0.021,-1.2792291427535794,-6.291770857246421,-6.8697708572464204
1621785856426.219,-0.052700898086684884,-0.03735044904334244,-0.021,-1.275,-6.296,-6.874
1621785856429.468,-0.054,-0.038,-0.021,-1.270979699111836,-6.296,-6.882040601776327
1621785856434.47,-0.052,-0.04,-0.023,-1.2647903449942601,-6.296,-6.89441931001148
1621785856439.472,-0.052,-0.037,-0.024,-1.258600990876684,-6.296,-6.906798018246631
1621785856442.382,-0.047928365783438245,-0.03874498609281218,-0.023418337969062605,-1.255,-6.296,-6.914
1621785856444.475,-0.045,-0.04,-0.023,-1.2525394341304248,-6.293409930663605,-6.91905063520597
1621785856449.476,-0.049,-0.044,-0.023,-1.246660251665433,-6.287221317542561,-6.931118430792006
1621785856454.479,-0.045,-0.04,-0.024,-1.2407787730932491,-6.281030287466578,-6.943190939440173
1621785856458.544,-0.04256151142355009,-0.04,-0.024,-1.236,-6.276,-6.953
1621785856459.48,-0.042,-0.04,-0.024,-1.236,-6.276,-6.950741572015467
1621785856464.482,-0.042,-0.035,-0.024,-1.236,-6.276,-6.938673060657322
1621785856469.483,-0.044,-0.035,-0.024,-1.236,-6.276,-6.926606905509908
1621785856474.485,-0.04,-0.026,-0.024,-1.236,-6.276,-6.914537805099082
1621785856474.708,-0.039910857254442496,-0.02591085725444249,-0.02386628588166374,-1.236,-6.276,-6.914
1621785856479.486,-0.038,-0.024,-0.021,-1.236,-6.2703821818676255,-6.9255313109032945
1621785856484.487,-0.038,-0.035,-0.023,-1.236,-6.2645022888308075,-6.9376005650315
1621785856489.487,-0.037,-0.03,-0.019,-1.236,-6.258623543986342,-6.9496674623438235
1621785856490.868,-0.03589552821714509,-0.03,-0.019,-1.236,-6.257,-6.953
1621785856494.488,-0.033,-0.03,-0.019,-1.2292786365078645,-6.252519091005243,-6.953
1621785856499.489,-0.024,-0.035,-0.019,-1.2199934726440325,-6.246328981762688,-6.953
1621785856504.489,-0.026,-0.037,-0.021,-1.2107101219346357,-6.240140081289757,-6.953
1621785856507.026,-0.023463134765625,-0.0349705078125,-0.01998525390625,-1.206,-6.237,-6.953
1621785856509.489,-0.021,-0.033,-0.019,-1.206,-6.237,-6.94705372444122
1621785856514.489,-0.016,-0.033,-0.019,-1.206,-6.237,-6.934983179942876
1621785856519.489,-0.01,-0.031,-0.017,-1.206,-6.237,-6.92291263544453
1621785856523.181,-0.0114767578125,-0.03026162109375,-0.0184767578125,-1.206,-6.237,-6.914
1621785856524.489,-0.012,-0.03,-0.019,-1.206,-6.237,-6.912380657347941
1621785856529.489,-0.019,-0.033,-0.017,-1.206,-6.237,-6.906191008689082
1621785856534.489,-0.017,-0.021,-0.016,-1.206,-6.237,-6.900001360030223
1621785856539.337,-0.014091259765625001,-0.025847900390624998,-0.01406083984375,-1.206,-6.237,-6.894
1621785856539.489,-0.014,-0.026,-0.014,-1.2061883113938972,-6.237188311393897,-6.894
1621785856544.488,-0.017,-0.028,-0.01,-1.212377499357686,-6.243377499357686,-6.894
1621785856549.487,-0.017,-0.024,-0.012,-1.2185666873214744,-6.249566687321474,-6.894
1621785856554.486,-0.017,-0.023,-0.01,-1.224755875285263,-6.255755875285263,-6.894
1621785856555.491,-0.016396952529790974,-0.02179390505958195,-0.01,-1.226,-6.257,-6.894
1621785856559.485,-0.014,-0.017,-0.01,-1.2284728306050574,-6.257,-6.898945661210115
1621785856564.484,-0.019,-0.016,-0.01,-1.2315676476367539,-6.257,-6.9051352952735074
1621785856569.482,-0.016,-0.016,-0.007,-1.2346620112154052,-6.257,-6.911324022430811
1621785856571.643,-0.018161554991209222,-0.016,-0.009161554991209221,-1.236,-6.257,-6.914
1621785856574.481,-0.021,-0.016,-0.012,-1.242852737551773,-6.257,-6.914
1621785856579.479,-0.012,-0.017,-0.005,-1.2549216676240287,-6.257,-6.914
1621785856584.478,-0.017,-0.019,-0.012,-1.2669929558303352,-6.257,-6.914
1621785856587.794,-0.018326885502149278,-0.017673114497850723,-0.010673114497850723,-1.275,-6.257,-6.914
1621785856589.476,-0.019,-0.017,-0.01,-1.2729166036708899,-6.257,-6.91191660367089
1621785856594.473,-0.016,-0.017,-0.01,-1.2667277977684375,-6.257,-6.905727797768438
1621785856599.472,-0.012,-0.017,-0.012,-1.260536270448429,-6.257,-6.899536270448429
1621785856603.942,-0.010211313012895663,-0.017,-0.012,-1.255,-6.257,-6.894
1621785856604.47,-0.01,-0.017,-0.012,-1.255,-6.2563459229803895,-6.89272454981176
1621785856609.468,-0.012,-0.012,-0.009,-1.255,-6.250155324392567,-6.8806528825655064
1621785856614.464,-0.014,-0.017,-0.012,-1.255,-6.243967144952298,-6.8685859326569805
1621785856619.462,-0.017,-0.012,-0.012,-1.255,-6.237776848757919,-6.8565148550779424
1621785856620.089,-0.017,-0.011623461012311901,-0.011372435020519836,-1.255,-6.237,-6.855
1621785856624.459,-0.017,-0.009,-0.007,-1.255,-6.237,-6.855
1621785856629.456,-0.017,-0.01,-0.01,-1.255,-6.237,-6.855
1621785856634.453,-0.023,-0.012,-0.009,-1.255,-6.237,-6.855
1621785856636.234,-0.023,-0.01128717998827438,-0.00935641000586281,-1.255,-6.237,-6.855
1621785856639.45,-0.023,-0.01,-0.01,-1.2512152275820354,-6.233016029033721,-6.858784772417965
1621785856644.446,-0.023,-0.007,-0.003,-1.2453356570391652,-6.226827007409647,-6.864664342960835
1621785856649.443,-0.024,-0.007,-0.002,-1.2394549372448207,-6.220636776047179,-6.870545062755179
1621785856652.379,-0.024,-0.004061770023945658,-0.0008247080095782633,-1.236,-6.217,-6.874
1621785856654.439,-0.024,-0.002,0.0,-1.2321713905441787,-6.2195524063038805,-6.879104812607761
1621785856659.435,-0.026,-0.003,-0.003,-1.222886173205481,-6.225742551196346,-6.891485102392692
1621785856664.431,-0.028,-0.01,0.0,-1.2136014096010164,-6.2319323935993225,-6.9038647871986445
1621785856668.521,-0.024725371383893666,-0.005906714229867084,0.0,-1.206,-6.237,-6.914
1621785856669.427,-0.024,-0.005,0.0,-1.2049335239132408,-6.238122606407115,-6.916189082493874
1621785856674.423,-0.026,0.003,0.002,-1.1990525304776598,-6.244313125812989,-6.92826059533533
1621785856679.419,-0.024,0.005,0.002,-1.1931718244244789,-6.250503342711075,-6.940331518286596
1621785856684.415,-0.016,0.007,0.007,-1.187290830988898,-6.256693862116949,-6.952403031128052
1621785856684.662,-0.016346253482574905,0.006802140867100054,0.006802140867100054,-1.187,-6.257,-6.953
1621785856689.41,-0.023,0.003,0.003,-1.1925891482249014,-6.257,-6.953
1621785856694.405,-0.017,0.005,0.005,-1.1984694368391595,-6.257,-6.953
1621785856699.401,-0.012,0.014,0.01,-1.2043505876658247,-6.257,-6.953
1621785856700.802,-0.012560997067448681,0.01343900293255132,0.009719501466275659,-1.206,-6.257,-6.953
1621785856704.396,-0.014,0.012,0.009,-1.2126811394683892,-6.257,-6.955227046489464
1621785856709.39,-0.012,0.019,0.01,-1.2219646601412988,-6.257,-6.958321553380433
1621785856714.385,-0.009,0.019,0.016,-1.231250450068834,-6.257,-6.961416816689612
1621785856716.94,-0.009,0.019,0.014976978346937779,-1.236,-6.257,-6.963
1621785856719.38,-0.009,0.019,0.014,-1.236,-6.253975593517832,-6.963
1621785856724.374,-0.003,0.017,0.014,-1.236,-6.247785153353811,-6.963
1621785856729.368,-0.005,0.017,0.016,-1.236,-6.2415950158120115,-6.963
1621785856733.075,-0.0012886194759483766,0.016257723895189678,0.016,-1.236,-6.237,-6.963
1621785856734.362,0.0,0.016,0.016,-1.239111265794053,-6.235404479079973,-6.960606718619959
1621785856739.356,0.002,0.023,0.017,-1.251182764621321,-6.229213966860861,-6.951320950291292
1621785856744.35,0.002,0.023,0.014,-1.2632548535976393,-6.22302315200121,-6.942034728001816
1621785856749.209,0.0029729650452212176,0.023972965045221218,0.016918895135663654,-1.275,-6.217,-6.933
1621785856749.344,0.003,0.024,0.017,-1.275,-6.216673627820402,-6.933167370348512
1621785856754.338,0.005,0.021,0.019,-1.275,-6.204601398283924,-6.939358257290295
1621785856759.332,0.003,0.028,0.016,-1.275,-6.192528578562673,-6.945549446890937
1621785856764.325,0.007,0.021,0.017,-1.275,-6.180458709765288,-6.951739123197289
1621785856765.342,0.005574124779972619,0.02201848230001956,0.017,-1.275,-6.178,-6.953
1621785856769.318,0.0,0.026,0.017,-1.2700702264196633,-6.178,-6.953
1621785856774.311,0.0,0.026,0.017,-1.263879706986318,-6.178,-6.953
1621785856779.304,0.002,0.033,0.019,-1.2576891875529723,-6.178,-6.953
1621785856781.473,0.0011312341091335811,0.02691863876393507,0.01986876589086642,-1.255,-6.178,-6.953
1621785856784.297,0.0,0.019,0.021,-1.2585015815840055,-6.184828084088811,-6.953
1621785856789.29,0.0,0.023,0.023,-1.264692007325231,-6.196899414284201,-6.953
1621785856794.282,0.0,0.028,0.024,-1.2708812222844428,-6.208968383454663,-6.953
1621785856797.604,0.003327382990169707,0.029996429794101824,0.023334523401966057,-1.275,-6.217,-6.953
1621785856799.274,0.005,0.031,0.023,-1.276967302452316,-6.212961852861035,-6.95600272479564
1621785856804.267,0.005,0.026,0.023,-1.282849651831668,-6.200887556766576,-6.964981047532547
1621785856809.259,0.012,0.024,0.023,-1.2887305631244323,-6.18881621253406,-6.973957175295187
1621785856813.732,0.01020795226683621,0.024,0.02120795226683621,-1.294,-6.178,-6.982
1621785856814.251,0.01,0.024,0.021,-1.2933885348390124,-6.177388534839013,-6.97852430329544
1621785856819.243,0.005,0.03,0.024,-1.2875077125686865,-6.171507712568687,-6.94509647144306
1621785856824.234,0.003,0.019,0.021,-1.2816280407502156,-6.1656280407502155,-6.911675179001226
1621785856829.226,-0.003,0.024,0.023,-1.275746930866926,-6.159746930866926,-6.878245712296211
1621785856829.86,-0.0035080451900034236,0.024,0.023127011297500857,-1.275,-6.159,-6.874
1621785856834.218,-0.007,0.024,0.024,-1.2695954947317427,-6.169538785273102,-6.8688657199951555
1621785856839.209,-0.009,0.028,0.023,-1.2634058980259173,-6.181608498849461,-6.8629856031246215
1621785856844.201,-0.012,0.03,0.023,-1.2572150902264745,-6.193680574058375,-6.857104335715151
1621785856845.987,-0.013431492442400822,0.030357873110600203,0.024073619331800616,-1.255,-6.198,-6.855
1621785856849.192,-0.016,0.031,0.026,-1.2627507569793495,-6.201776009810453,-6.8705015139587
1621785856854.182,-0.016,0.031,0.023,-1.274818839702053,-6.207655332162538,-6.894637679404106
1621785856859.173,-0.012,0.03,0.026,-1.2868898746442197,-6.213536092775389,-6.918779749288439
1621785856862.113,-0.010232842537787995,0.028821895025191998,0.024821895025191998,-1.294,-6.217,-6.933
1621785856864.164,-0.009,0.028,0.024,-1.294,-6.217,-6.9355442156268925
1621785856869.154,-0.003,0.031,0.021,-1.294,-6.217,-6.9417341005451245
1621785856874.145,0.0,0.031,0.023,-1.294,-6.217,-6.9479251968503934
1621785856878.236,-0.0016397084006066834,0.031,0.01808087479817995,-1.294,-6.217,-6.953
1621785856879.135,-0.002,0.031,0.017,-1.294,-6.21482555762504,-6.95082555762504
1621785856884.125,0.003,0.033,0.021,-1.294,-6.202755099259528,-6.938755099259528
1621785856889.115,0.0,0.026,0.017,-1.294,-6.190684640894017,-6.926684640894017
1621785856894.104,-0.003,0.023,0.017,-1.294,-6.1786165447690005,-6.914616544769
1621785856894.359,-0.0031021576398062526,0.023,0.017,-1.294,-6.178,-6.914
1621785856899.094,-0.005,0.023,0.017,-1.2825448721831838,-6.166544872183184,-6.902251150957111
1621785856904.084,-0.012,0.024,0.016,-1.2704731342379452,-6.1544731342379455,-6.8898698812696875
1621785856909.074,-0.012,0.024,0.019,-1.2584013962927065,-6.142401396292707,-6.877488611582263
1621785856910.48,-0.013127281624663568,0.025972742843161242,0.019,-1.255,-6.139,-6.874
1621785856914.063,-0.016,0.031,0.019,-1.250776882534682,-6.143445386805598,-6.869776882534682
1621785856919.052,-0.023,0.017,0.014,-1.2448965741806506,-6.1496351850729996,-6.863896574180651
1621785856924.041,-0.031,0.023,0.016,-1.239016265826619,-6.155824983340401,-6.8580162658266195
1621785856926.6,-0.03305177391729875,0.02351294347932469,0.017538830437974065,-1.236,-6.159,-6.855
1621785856929.03,-0.035,0.024,0.019,-1.2418792693455312,-6.161864259424746,-6.860879269345531
1621785856934.019,-0.04,0.024,0.016,-1.253950290050437,-6.167745013101495,-6.872950290050437
1621785856939.007,-0.042,0.021,0.017,-1.2660189479423836,-6.173624615664238,-6.885018947942384
1621785856942.719,-0.03902392953266454,0.01951196476633227,0.013279911915830684,-1.275,-6.178,-6.894
1621785856943.996,-0.038,0.019,0.012,-1.2765052553462166,-6.181089734658023,-6.899466453625735
1621785856948.984,-0.042,0.024,0.014,-1.282384124916702,-6.193156887986914,-6.920816032592234
1621785856953.972,-0.038,0.019,0.016,-1.2882632822438966,-6.205224631974314,-6.94216665656994
1621785856958.839,-0.043854632666046695,0.017048455777984438,0.016,-1.294,-6.217,-6.963
1621785856958.96,-0.044,0.017,0.016,-1.294,-6.217,-6.962925021584695
1621785856963.949,-0.04,0.017,0.01,-1.294,-6.217,-6.9598297005407534
1621785856968.937,-0.042,0.009,0.012,-1.294,-6.217,-6.956734985382996
1621785856973.924,-0.037,0.009,0.009,-1.294,-6.217,-6.953640876111423
1621785856974.957,-0.037,0.009207087269345602,0.009621261808036807,-1.294,-6.217,-6.953
1621785856978.912,-0.037,0.01,0.012,-1.2844288679159535,-6.217,-6.9480917271363865
1621785856983.899,-0.033,0.009,0.007,-1.27236097014134,-6.217,-6.941903061610944
1621785856988.886,-0.033,0.014,0.007,-1.2602924815561043,-6.217,-6.935714093105695
1621785856991.073,-0.032122925539726836,0.013122925539726833,0.007,-1.255,-6.217,-6.933
1621785856993.873,-0.031,0.012,0.007,-1.2584748753995545,-6.217,-6.929698868370423
1621785856998.86,-0.031,0.007,0.005,-1.2646638439048037,-6.217,-6.923819348290436
1621785857003.847,-0.031,0.003,0.005,-1.2708525094302463,-6.217,-6.917940116041265
1621785857007.189,-0.03234054742202419,0.007021642266072565,0.0029891788669637173,-1.275,-6.217,-6.914
1621785857008.833,-0.033,0.009,0.002,-1.271020757890271,-6.215061394869619,-6.914
1621785857013.82,-0.033,0.005,0.002,-1.2589500750011364,-6.209180805769784,-6.914
1621785857018.806,-0.028,0.002,0.0,-1.2468823467022228,-6.203301656085698,-6.914
1621785857023.302,-0.030704655602878543,-0.0025077593381309052,0.006310863073383267,-1.236,-6.198,-6.914
1621785857023.793,-0.031,-0.003,0.007,-1.236,-6.198579117281518,-6.914
1621785857028.78,-0.031,0.0,0.0,-1.236,-6.2044615781017916,-6.914
1621785857033.766,-0.031,0.0,0.003,-1.236,-6.210342887022947,-6.914
1621785857038.751,-0.031,0.0,0.005,-1.236,-6.216222756070205,-6.914
1621785857039.41,-0.031,-0.000264309846741419,0.0043392253831464524,-1.236,-6.217,-6.914
1621785857043.737,-0.031,-0.002,0.0,-1.2333135278514589,-6.217,-6.903254111405835
1621785857048.723,-0.028,-0.012,0.002,-1.2302181129215612,-6.217,-6.890872451686245
1621785857053.708,-0.035,-0.009,-0.002,-1.2271231527093596,-6.217,-6.878492610837438
1621785857055.517,-0.035725794603065776,-0.009,-0.0005484107938684558,-1.226,-6.217,-6.874
1621785857058.693,-0.037,-0.009,0.002,-1.227971837390487,-6.224887349561948,-6.877943674780974
1621785857063.678,-0.035,-0.009,-0.002,-1.2310666929396428,-6.237266771758571,-6.884133385879285
1621785857068.664,-0.033,-0.01,0.0,-1.2341623063631126,-6.24964922545245,-6.890324612726226
1621785857071.624,-0.035969530714215735,-0.007030469285784265,0.0,-1.236,-6.257,-6.894
1621785857073.648,-0.038,-0.005,0.0,-1.2347432919989085,-6.257,-6.90141457720644
1621785857078.633,-0.037,-0.005,0.003,-1.2316479095291513,-6.257,-6.919677333778007
1621785857083.618,-0.035,-0.012,-0.002,-1.2285526786526393,-6.257,-6.937939195949428
1621785857087.729,-0.03170066127847171,-0.004576487876561351,-0.0003503306392358559,-1.226,-6.257,-6.953
1621785857088.602,-0.031,-0.003,0.0,-1.226,-6.2559159365810775,-6.950886076333101
1621785857093.587,-0.031,-0.005,0.0,-1.226,-6.249726225482766,-6.938816139691394
1621785857098.571,-0.03,-0.009,-0.002,-1.226,-6.243537423833631,-6.926747976475581
1621785857103.555,-0.031,-0.009,-0.002,-1.226,-6.2373489253342225,-6.914680404401734
1621785857103.836,-0.030830892795925362,-0.008605416523825848,-0.002,-1.226,-6.237,-6.914
1621785857108.54,-0.028,-0.002,-0.002,-1.2289210757708984,-6.231157848458203,-6.914
1621785857113.523,-0.031,-0.005,-0.002,-1.2320152815257268,-6.2249694369485455,-6.914
1621785857118.507,-0.033,-0.012,0.0,-1.2351102452927443,-6.218779509414511,-6.914
1621785857119.94,-0.034149995101401,-0.0114250024492995,0.0,-1.236,-6.217,-6.914
1621785857123.491,-0.037,-0.01,0.0,-1.2401898632463082,-6.2083997543891565,-6.922600245610843
1621785857128.474,-0.031,-0.012,0.0,-1.2460694987719456,-6.196331028836532,-6.934668971163467
1621785857133.457,-0.033,-0.012,0.0,-1.251948846235483,-6.1842628945692715,-6.946737105430729
1621785857136.043,-0.03507584517393435,-0.010962077413032827,0.0,-1.255,-6.178,-6.953
1621785857138.44,-0.037,-0.01,0.0,-1.2521716347757528,-6.178,-6.95448861327592
1621785857143.423,-0.037,-0.01,0.0,-1.2462916426600357,-6.178,-6.957583345968402
1621785857148.406,-0.033,-0.014,0.005,-1.2404119386238894,-6.178,-6.9606779270400585
1621785857152.145,-0.033,-0.01775183733463988,0.006500734933855953,-1.236,-6.178,-6.963
1621785857153.389,-0.033,-0.019,0.007,-1.2374680547762393,-6.1749866244066665,-6.963
1621785857158.372,-0.033,-0.019,0.005,-1.243349206108491,-6.162914787461519,-6.963
1621785857163.355,-0.037,-0.017,0.005,-1.249230069304378,-6.150843541954171,-6.963
1621785857168.244,-0.03503734195824758,-0.02386930314613349,0.008925316083504851,-1.255,-6.139,-6.963
1621785857168.337,-0.035,-0.024,0.009,-1.2548902217099875,-6.13911555609475,-6.962826665857875
1621785857173.319,-0.037,-0.021,0.009,-1.2490103120924447,-6.145304934639531,-6.953542598040703
1621785857178.301,-0.04,-0.016,0.014,-1.2431306906068968,-6.151494009887477,-6.944258985168784
1621785857183.283,-0.044,-0.019,0.016,-1.237251069121349,-6.157683085135422,-6.934975372296867
1621785857184.343,-0.04506390277369401,-0.01708497500735078,0.01663834166421641,-1.236,-6.159,-6.933
1621785857188.265,-0.049,-0.01,0.019,-1.2455025861153666,-6.163629465030563,-6.9403096816272045
1621785857193.247,-0.049,-0.01,0.023,-1.2575742541218584,-6.169510534059366,-6.949595580093737
1621785857198.228,-0.045,-0.01,0.019,-1.269642964401098,-6.175390162144125,-6.95887920338546
1621785857200.439,-0.04455612194882855,-0.00866836584648564,0.02121939025585727,-1.275,-6.178,-6.963
1621785857203.209,-0.044,-0.007,0.024,-1.2715581155485445,-6.174730209771117,-6.969711674680338
1621785857208.19,-0.031,-0.012,0.031,-1.2653690333540626,-6.1688505816863595,-6.981780384959578
1621785857213.172,-0.033,-0.017,0.026,-1.2591784343763746,-6.162969512657556,-6.993852052966069
1621785857216.535,-0.028275017151818092,-0.01160001960207782,0.029374987748701363,-1.255,-6.159,-7.002
1621785857218.154,-0.026,-0.009,0.031,-1.255,-6.159,-6.991133971509625
1621785857223.133,-0.024,-0.01,0.033,-1.255,-6.159,-6.957719950847277
1621785857228.115,-0.031,-0.014,0.035,-1.255,-6.159,-6.924286269095984
1621785857232.628,-0.03281243259143053,-0.010375134817138936,0.04315594666143739,-1.255,-6.159,-6.894
1621785857233.095,-0.033,-0.01,0.044,-1.255580426900496,-6.159,-6.894
1621785857238.076,-0.038,-0.005,0.044,-1.261770635799566,-6.159,-6.894
1621785857243.056,-0.04,-0.003,0.054,-1.2679596310511703,-6.159,-6.894
1621785857248.036,-0.044,-0.003,0.056,-1.2741486263027746,-6.159,-6.894
1621785857248.721,-0.04496289033776165,-0.0035502230501495173,0.056412667287612135,-1.275,-6.159,-6.894
1621785857253.016,-0.051,-0.007,0.059,-1.3011558323346026,-6.159,-6.912415841133547
1621785857257.996,-0.054,-0.012,0.063,-1.3314819090674637,-6.159,-6.933767874751582
1621785857262.976,-0.054,-0.003,0.07,-1.3618079858003247,-6.159,-6.955119908369617
1621785857264.814,-0.052892615475139744,-0.0052147690497205065,0.0718456408747671,-1.373,-6.159,-6.963
1621785857267.955,-0.051,-0.009,0.075,-1.3845180031864046,-6.162709187466808,-6.970613595326607
1621785857272.935,-0.052,-0.009,0.075,-1.4027788635156664,-6.168589803505045,-6.982684333510356
1621785857277.915,-0.051,-0.017,0.075,-1.4210397238449282,-6.174470419543282,-6.994755071694105
1621785857280.904,-0.051,-0.021202265372168287,0.075,-1.432,-6.178,-7.002
1621785857282.894,-0.051,-0.024,0.075,-1.419877898506738,-6.178,-7.002
1621785857287.873,-0.049,-0.019,0.073,-1.3895481061065922,-6.178,-7.002
1621785857292.852,-0.049,-0.012,0.077,-1.3592183137064466,-6.178,-7.002
1621785857296.992,-0.047337059919584194,-0.016157350201039523,0.07949441012062372,-1.334,-6.178,-7.002
1621785857297.831,-0.047,-0.017,0.08,-1.330922914675043,-6.174453528778016,-6.999444454560629
1621785857302.809,-0.052,-0.017,0.082,-1.3126681082229406,-6.15341409083322,-6.984283683100408
1621785857307.788,-0.047,0.0,0.093,-1.2944097206415683,-6.1323705254851975,-6.969119937481981
1621785857312.766,-0.056,0.005,0.099,-1.276154914189466,-6.111331087540401,-6.95395916602176
1621785857313.081,-0.056442885869831774,0.005,0.09912653881995194,-1.275,-6.11,-6.953
1621785857317.744,-0.063,0.005,0.101,-1.28050687446886,-6.098406580065558,-6.930102995629477
1621785857322.723,-0.072,0.005,0.106,-1.2863871403423577,-6.086027072963458,-6.905653469102829
1621785857327.7,-0.079,0.01,0.117,-1.2922650995508074,-6.0736524219983,-6.881213533446643
1621785857329.169,-0.08195095635115253,0.012065669445806768,0.11759019127023052,-1.294,-6.07,-6.874
1621785857332.678,-0.089,0.017,0.119,-1.3155987704918033,-6.065854781420765,-6.865491393442623
1621785857337.656,-0.096,0.03,0.131,-1.346239480874317,-6.059974241044324,-6.853420810564663
1621785857342.634,-0.103,0.031,0.133,-1.3768801912568307,-6.054093700667881,-6.841350227686703
1621785857345.253,-0.10457827366356057,0.033104364884747425,0.1356304561059343,-1.393,-6.051,-6.835
1621785857347.612,-0.106,0.035,0.138,-1.4245372062663186,-6.0423456038618015,-6.82927929746797
1621785857352.589,-0.112,0.037,0.145,-1.4910711488250654,-6.024087452182889,-6.817210349748011
1621785857357.566,-0.12,0.035,0.148,-1.5576018276762402,-6.005830196126055,-6.805141994049427
1621785857361.336,-0.11772755812812714,0.035,0.14951496124791522,-1.608,-5.992,-6.796
1621785857362.543,-0.117,0.035,0.15,-1.6190337037711788,-5.983143013299326,-6.791571506649663
1621785857367.52,-0.119,0.03,0.152,-1.6645298779376936,-5.946622274852736,-6.773311137426368
1621785857372.497,-0.126,0.028,0.152,-1.7100260521042083,-5.910101536406145,-6.755050768203073
1621785857377.417,-0.13391011235955058,0.03986516853932584,0.1480449438202247,-1.755,-5.874,-6.737
1621785857377.473,-0.134,0.04,0.148,-1.755205134823272,-5.873659267581683,-6.736659267581683
1621785857382.45,-0.147,0.031,0.145,-1.77346661302077,-5.8433266427790596,-6.70632664277906
1621785857387.426,-0.161,0.042,0.141,-1.7917245080772501,-5.812999969634398,-6.675999969634399
1621785857392.402,-0.175,0.045,0.143,-1.8099824031337302,-5.782673296489736,-6.645673296489736
1621785857393.497,-0.17785963019275097,0.04543994310657708,0.1419001422335573,-1.814,-5.776,-6.639
1621785857397.38,-0.188,0.047,0.138,-1.8283242096264523,-5.771387118933855,-6.624675790373548
1621785857402.321,-0.208,0.058,0.138,-1.8465528111499534,-5.765516891324591,-6.606447188850047
1621785857407.261,-0.229,0.063,0.138,-1.8647769093379334,-5.7596481139420215,-6.5882230906620665
1621785857409.49,-0.23667075219926856,0.06931709004645646,0.13709755856479194,-1.873,-5.757,-6.58
1621785857412.201,-0.246,0.077,0.136,-1.873,-5.776874678741891,-6.58
1621785857417.14,-0.264,0.082,0.134,-1.873,-5.813083680088116,-6.58
1621785857422.079,-0.278,0.094,0.136,-1.873,-5.849294471300942,-6.58
1621785857425.449,-0.2882365766834767,0.10218926134678137,0.13736487689113025,-1.873,-5.874,-6.58
1621785857427.017,-0.293,0.106,0.138,-1.8787979957160343,-5.887463142594859,-6.591595991432069
1621785857431.955,-0.3,0.117,0.136,-1.897055859853121,-5.929858522031823,-6.628111719706243
1621785857436.893,-0.314,0.124,0.138,-1.915313723990208,-5.972253901468788,-6.664627447980417
1621785857441.406,-0.31857051725843144,0.12217179309662743,0.13617179309662744,-1.932,-6.011,-6.698
1621785857441.83,-0.319,0.122,0.136,-1.9364398714318511,-6.014137154664422,-6.700073712405296
1621785857446.767,-0.326,0.126,0.133,-1.9881284610086478,-6.050659631131859,-6.724215688375296
1621785857451.704,-0.321,0.126,0.12,-2.0398170505854445,-6.087182107599296,-6.748357664345297
1621785857456.641,-0.314,0.131,0.119,-2.091505640162241,-6.123704584066733,-6.7724996403152975
1621785857457.357,-0.31327472418740415,0.1320153861376342,0.1169692277247316,-2.099,-6.129,-6.776
1621785857461.576,-0.309,0.138,0.105,-2.109317330802321,-6.162862008787104,-6.745048007593038
1621785857466.512,-0.302,0.129,0.098,-2.121388148125469,-6.202479050257948,-6.708835555623593
1621785857471.447,-0.288,0.138,0.087,-2.1334565773158,-6.24208825375442,-6.6726302680526
1621785857473.305,-0.2864941129909963,0.13875294350450185,0.08511764123874542,-2.138,-6.257,-6.659
1621785857476.382,-0.284,0.14,0.082,-2.1190875350247276,-6.249280626540705,-6.659
1621785857481.316,-0.284,0.154,0.077,-2.0887636692134555,-6.236903538454471,-6.659
1621785857486.25,-0.29,0.164,0.075,-2.058438302889253,-6.224525837913981,-6.659
1621785857489.25,-0.28635190499752594,0.1682561108362197,0.07378396833250865,-2.04,-6.217,-6.659
1621785857491.184,-0.284,0.171,0.073,-2.031627332046687,-6.226586098091474,-6.661305517262506
1621785857496.117,-0.291,0.175,0.068,-2.0102729069019394,-6.251035367460099,-6.667185721287872
1621785857501.05,-0.298,0.185,0.066,-1.9889174248690378,-6.275485846889072,-6.67306621634041
1621785857505.189,-0.2996784317608039,0.18751764764120588,0.0618039205979902,-1.971,-6.296,-6.678
1621785857505.982,-0.3,0.188,0.061,-1.971,-6.304757131039554,-6.680935629155305
1621785857510.914,-0.302,0.201,0.056,-1.971,-6.3592249762554,-6.699194736358344
1621785857515.847,-0.295,0.192,0.047,-1.971,-6.41370090995435,-6.717456555041514
1621785857520.778,-0.288,0.202,0.042,-1.971,-6.468157970526058,-6.735712046937713
1621785857521.126,-0.2875061147695202,0.20192944496707432,0.04150611476952023,-1.971,-6.472,-6.737
1621785857525.709,-0.281,0.201,0.035,-1.9879718348708204,-6.497601581415306,-6.782162340249472
1621785857530.64,-0.267,0.195,0.023,-2.006232017530418,-6.525146602715376,-6.830752995801281
1621785857535.57,-0.255,0.19,0.01,-2.0244894878788804,-6.552687532563057,-6.879336433847191
1621785857537.058,-0.2513779527559055,0.1893963254593176,0.006981627296587927,-2.03,-6.561,-6.894
1621785857540.5,-0.243,0.188,0.0,-2.0321610435795634,-6.561,-6.930089427778714
1621785857545.429,-0.227,0.176,-0.007,-2.0352557597682295,-6.561,-6.981771188129436
1621785857550.359,-0.218,0.169,-0.019,-2.0383510891058756,-6.561,-7.03346318806812
1621785857552.985,-0.20680922421480236,0.16100658872485882,-0.02539472902011295,-2.04,-6.561,-7.061
1621785857555.287,-0.197,0.154,-0.031,-2.054166339608757,-6.51416434659962,-7.100607929110198
1621785857560.216,-0.183,0.14,-0.052,-2.0844987428711597,-6.413881707242289,-7.185414852517324
1621785857565.144,-0.173,0.126,-0.065,-2.1148251364444715,-6.313618936652971,-7.270204973324339
1621785857568.91,-0.16077067538774095,0.11529934096427333,-0.08105098855359001,-2.138,-6.237,-7.335
1621785857570.071,-0.157,0.112,-0.086,-2.120129898013956,-6.227736722643969,-7.335
1621785857574.999,-0.145,0.091,-0.101,-2.0442871712292003,-6.188422329575953,-7.335
1621785857579.927,-0.138,0.079,-0.119,-1.9684444444444444,-6.149107936507937,-7.335
1621785857584.829,-0.12705342716954948,0.07004371313872232,-0.12198542895375923,-1.893,-6.11,-7.335
1621785857584.853,-0.127,0.07,-0.122,-1.892218452855653,-6.109911324458622,-7.334852708422796
1621785857589.779,-0.119,0.065,-0.12,-1.7313074657996441,-6.091654116311883,-7.304527176246856
1621785857594.705,-0.11,0.066,-0.119,-1.5703964787436353,-6.073396908165144,-7.274201644070916
1621785857599.63,-0.099,0.077,-0.117,-1.40952536654193,-6.055144224280719,-7.243883626771364
1621785857600.748,-0.099,0.07904332523670252,-0.11495667476329748,-1.373,-6.051,-7.237
1621785857604.555,-0.099,0.086,-0.108,-1.1947847171084929,-5.973494293078057,-7.227670609351988
1621785857609.48,-0.094,0.099,-0.099,-0.964223766568483,-5.873223490427099,-7.215600975699559
1621785857614.404,-0.087,0.119,-0.08,-0.7337085327687776,-5.772972569955818,-7.20353373527246
1621785857616.662,-0.07507645775485917,0.12771335779452597,-0.07220383776279254,-0.628,-5.727,-7.198
1621785857619.328,-0.061,0.138,-0.063,-0.4784017091394468,-5.664513815799568,-7.1306556406204455
1621785857624.253,-0.04,0.169,-0.03,-0.2020168459166296,-5.549069746390709,-7.006236026941193
1621785857629.176,-0.024,0.194,0.003,0.0742584114515411,-5.433671458598629,-6.881865754307369
1621785857632.575,-0.010882320852963055,0.21816414579717333,0.03337778328787503,0.265,-5.354,-6.796
1621785857634.099,-0.005,0.229,0.047,0.3495163696643183,-5.332439701616245,-6.71138780678731
1621785857639.021,0.003,0.257,0.08,0.6224380439287194,-5.262816825528388,-6.438156697518074
1621785857643.943,0.003,0.297,0.117,0.8953732559745822,-5.193190495924851,-6.164912035118418
1621785857648.481,-0.0025318452380952384,0.32926909722222225,0.16402068452380952,1.147,-5.129,-5.913
1621785857648.865,-0.003,0.332,0.168,1.1695062712046547,-5.136799920170711,-5.898559280922336
1621785857653.786,-0.014,0.379,0.222,1.4578955925021877,-5.236746004697646,-5.713519780776494
1621785857658.707,-0.045,0.421,0.276,1.7462992216644406,-5.336697047851517,-5.528471100262516
1621785857663.627,-0.105,0.461,0.319,2.0346313115030936,-5.436623297870707,-5.343468321589217
1621785857664.384,-0.11592280597311107,0.46530758545418466,0.32546137818127696,2.079,-5.452,-5.315
1621785857668.548,-0.176,0.489,0.361,1.7835673044439668,-5.531882067504069,-5.497288258960106
1621785857673.467,-0.269,0.492,0.391,1.4345770400171984,-5.626245569853506,-5.712622677436197
1621785857678.387,-0.377,0.501,0.391,1.085517490249071,-5.720627806271306,-5.927999846442063
1621785857680.283,-0.41399563318777294,0.49907314410480347,0.3902292576419214,0.951,-5.757,-6.011
1621785857683.307,-0.473,0.496,0.389,0.6003379520108144,-5.921010138560324,-6.36375498479216
1621785857688.226,-0.559,0.494,0.374,0.02989635626286513,-6.187814617960613,-6.93760127807306
1621785857693.144,-0.62,0.496,0.349,-0.5404036836769178,-6.454552889489692,-7.511305170665766
1621785857696.176,-0.633563244638602,0.4990825555996823,0.334203733121525,-0.892,-6.619,-7.865
1621785857698.062,-0.642,0.501,0.325,-1.0782489819751986,-6.778540236950074,-7.990709159918251
1621785857702.979,-0.625,0.504,0.278,-1.5638223796425772,-7.194480738202437,-8.31844799237826
1621785857707.896,-0.571,0.478,0.211,-2.049395777309956,-7.6104212394548,-8.646186824838269
1621785857712.064,-0.5082726911618669,0.46528500496524333,0.1508156901688183,-2.461,-7.963,-8.924
1621785857712.813,-0.497,0.463,0.14,-2.4758059940059938,-8.000014985014985,-8.931874525474525
1621785857717.73,-0.407,0.452,0.07,-2.5730004918158764,-8.243001229539692,-8.983567140551756
1621785857722.646,-0.283,0.436,0.003,-2.670175685852609,-8.485939214631522,-9.035249488972566
1621785857727.562,-0.129,0.408,-0.052,-2.7673508798893414,-8.728877199723353,-9.086931837393376
1621785857727.949,-0.1175863627334128,0.4053236988478347,-0.05656545490663488,-2.775,-8.748,-9.091
1621785857732.478,0.016,0.374,-0.11,-2.7302231993235453,-8.593990621877161,-8.867115996617725
1621785857737.393,0.133,0.34,-0.176,-2.681630317472519,-8.42685586901376,-8.624151587362594
1621785857742.307,0.213,0.293,-0.234,-2.6330495041894073,-8.259762625874394,-8.381247520947035
1621785857743.829,0.2325114742698192,0.28432823365785814,-0.24762706139479437,-2.618,-8.208,-8.306
1621785857747.222,0.276,0.265,-0.278,-2.4944768099895427,-7.9545423817432495,-8.008518545857168
1621785857752.135,0.312,0.244,-0.309,-2.3156050624346434,-7.587514885895307,-7.577740911607307
1621785857757.049,0.328,0.225,-0.328,-2.1366977609645077,-7.220414436857969,-7.14687765270345
1621785857759.705,0.3231343736023456,0.21959374844705065,-0.3415156288823734,-2.04,-7.022,-6.914
1621785857761.962,0.319,0.215,-0.353,-1.9242722854506307,-6.870018517379268,-6.739697569978468
1621785857766.875,0.293,0.229,-0.372,-1.672335404490926,-6.539157920639804,-6.360244724700092
1621785857771.787,0.25,0.23,-0.379,-1.4204486004306367,-6.20836308828053,-5.980867302368502
1621785857775.579,0.2013635866593767,0.2423521049753964,-0.3828600328048114,-1.226,-5.953,-5.688
1621785857776.699,0.187,0.246,-0.384,-1.1740666389773409,-5.921811758733675,-5.636066638977341
1621785857781.611,0.115,0.264,-0.377,-0.9462708631378158,-5.785010491177873,-5.408270863137815
1621785857786.523,0.031,0.281,-0.38,-0.7184864091559371,-5.648216022889843,-5.180486409155937
1621785857791.434,-0.052,0.304,-0.382,-0.49073592074699646,-5.511441952405126,-4.9527359207469965
1621785857791.45,-0.0522650290885585,0.3040678733031674,-0.3820064641241112,-0.49,-5.511,-4.952
1621785857796.344,-0.134,0.325,-0.384,-0.3388537707541508,-5.52919923984797,-4.9945677135427085
1621785857801.254,-0.215,0.347,-0.386,-0.18721744348869773,-5.5474574914982995,-5.037273454690938
1621785857806.164,-0.284,0.363,-0.384,-0.03557357625371227,-5.5657166510225125,-5.079981319340791
1621785857807.316,-0.29643616650917587,0.36346928930223305,-0.38611180186004873,0.0,-5.57,-5.09
1621785857811.073,-0.337,0.365,-0.393,0.06276390919584456,-5.60244775682955,-5.236133328203155
1621785857815.982,-0.391,0.384,-0.408,0.1447701423624471,-5.6448434320892655,-5.427068595613697
1621785857820.891,-0.421,0.396,-0.412,0.2267804540207772,-5.687241215852251,-5.618013358984225
1621785857823.179,-0.4275260906332388,0.4001953439785107,-0.4152630453166194,0.265,-5.707,-5.707
1621785857825.799,-0.435,0.405,-0.419,0.31522751135401433,-5.760531952890463,-5.766975613886537
1621785857830.707,-0.445,0.415,-0.428,0.4093128319605881,-5.860807097221153,-5.879320914479255
1621785857835.615,-0.449,0.422,-0.424,0.5033981525671618,-5.961082241551844,-5.991666215071973
1621785857839.037,-0.44969739788049157,0.4296713766854072,-0.4226052042390169,0.569,-6.031,-6.07
1621785857840.522,-0.45,0.433,-0.422,0.5974686970714131,-6.050291288147076,-6.08563905398331
1621785857845.429,-0.447,0.44,-0.412,0.6915483324608136,-6.114042620022788,-6.137320958950513
1621785857850.336,-0.454,0.447,-0.398,0.785627967850214,-6.1777939518985,-6.189002863917716
1621785857854.893,-0.454,0.44235556108484697,-0.38313779547151033,0.873,-6.237,-6.237
1621785857855.242,-0.454,0.442,-0.382,0.8725597997689641,-6.237440200231036,-6.242612552945706
1621785857860.147,-0.461,0.449,-0.361,0.8663708124759337,-6.243629187524066,-6.321522140931845
1621785857865.053,-0.476,0.443,-0.344,0.8601805929919137,-6.249819407008086,-6.4004474393530995
1621785857869.958,-0.49,0.438,-0.321,0.8539916056988833,-6.256008394301117,-6.479357027339238
1621785857870.744,-0.49176278189874045,0.438,-0.31827570070194655,0.853,-6.257,-6.492
1621785857874.862,-0.501,0.438,-0.304,0.8301344773406452,-6.318061338919868,-6.56085640346283
1621785857879.766,-0.504,0.426,-0.293,0.802905419144151,-6.390775301149142,-6.6428529991681815
1621785857884.67,-0.503,0.422,-0.278,0.7756777165038973,-6.463485643427092,-6.724845512800764
1621785857886.593,-0.49790111039187374,0.42160777772245184,-0.27250888811432555,0.765,-6.492,-6.757
1621785857889.573,-0.49,0.421,-0.264,0.7779785030742915,-6.5529425361749345,-6.828852002527237
1621785857894.478,-0.471,0.421,-0.248,0.7993410383246267,-6.653253571263464,-6.947119951304455
1621785857899.38,-0.435,0.414,-0.225,0.8206897508205815,-6.75349969950534,-7.0653113741081475
1621785857902.436,-0.40943906569052246,0.4127531251556352,-0.2187656257781762,0.834,-6.816,-7.139
1621785857904.282,-0.394,0.412,-0.215,0.8407596337628707,-6.8182143627843885,-7.157297629323633
1621785857909.184,-0.34,0.398,-0.204,0.8587105246932609,-6.824094827054688,-7.205888834083483
1621785857914.086,-0.279,0.393,-0.199,0.8766605216104568,-6.829974998458598,-7.254477618842099
1621785857918.275,-0.22857300124533003,0.39727347447073474,-0.18874366127023662,0.892,-6.835,-7.296
1621785857918.987,-0.22,0.398,-0.187,0.8982059045710321,-6.827939659292376,-7.271760995914592
1621785857923.888,-0.157,0.384,-0.18,0.9409132505973946,-6.779352316349341,-7.104954767594235
1621785857928.788,-0.101,0.398,-0.171,0.9836142141370539,-6.730772234641178,-6.938173467971942
1621785857933.688,-0.051,0.394,-0.152,1.0263130501811455,-6.682194573344638,-6.7714004779156705
1621785857934.111,-0.04780513203786746,0.3941726955655207,-0.1506184354758346,1.03,-6.678,-6.757
1621785857938.588,-0.014,0.396,-0.136,1.063081924998458,-6.569988928637513,-6.524012767532227
1621785857943.488,0.003,0.398,-0.126,1.0992921729476346,-6.451764016529945,-6.268993585394436
1621785857948.387,0.012,0.401,-0.11,1.1354934003577377,-6.333568556096959,-6.014037932523284
1621785857949.944,0.012,0.40004644672580486,-0.10173587162364198,1.147,-6.296,-5.933
1621785857953.286,0.012,0.398,-0.084,1.1904961975719994,-6.215130855970506,-5.81074612430006
1621785857958.184,-0.003,0.405,-0.058,1.2542501581131318,-6.096598007003255,-5.631554167245129
1621785857963.082,-0.031,0.405,-0.031,1.3180009409659554,-5.978071066068151,-5.45237114165394
1621785857965.771,-0.053513411107787415,0.4039017848240104,-0.021665171004088143,1.353,-5.913,-5.354
1621785857967.979,-0.072,0.403,-0.014,1.3352789786314896,-5.891232446193011,-5.325255666126668
1621785857972.876,-0.117,0.401,0.014,1.2959768726375067,-5.842955843554733,-5.261505793412018
1621785857977.773,-0.168,0.394,0.037,1.2566747666435238,-5.794679240916454,-5.197755920697369
1621785857981.595,-0.21249660915528074,0.39556128453176426,0.057296698912935075,1.226,-5.757,-5.148
1621785857982.669,-0.225,0.396,0.063,1.1960600509298556,-5.776959966046762,-5.148
1621785857987.566,-0.279,0.377,0.082,1.0595436839262289,-5.867970877382514,-5.148
1621785857992.462,-0.326,0.361,0.101,0.9230545412454665,-5.958963639169689,-5.148
1621785857997.357,-0.377,0.335,0.117,0.7865926228875685,-6.049938251408288,-5.148
1621785857997.414,-0.37760688279301746,0.3345681795511222,0.11719840399002494,0.785,-6.051,-5.148
1621785858002.252,-0.429,0.298,0.134,0.6317409305628454,-6.22475479329402,-5.253231776220321
1621785858007.146,-0.469,0.265,0.131,0.4767030164562042,-6.400526320664423,-5.3596849547685945
1621785858012.04,-0.478,0.236,0.134,0.321665102349563,-6.576297848034827,-5.466138133316867
1621785858013.229,-0.478,0.22773999800458944,0.13278529382420434,0.284,-6.619,-5.492
1621785858016.934,-0.478,0.202,0.129,0.23807318654849763,-6.80762798381867,-5.613612327455764
1621785858021.827,-0.471,0.169,0.133,0.17742352468887995,-7.056724809313529,-5.774210156563629
1621785858026.72,-0.454,0.141,0.127,0.11677083655004167,-7.305834064169472,-5.934815999135349
1621785858029.041,-0.4421411535774873,0.1253463227222832,0.12225646143099492,0.088,-7.424,-6.011
1621785858031.613,-0.429,0.108,0.117,0.09759827357237716,-7.593027224435591,-6.079652058432935
1621785858036.506,-0.401,0.084,0.105,0.11585822601068593,-7.914588081781401,-6.210257141974736
1621785858041.398,-0.368,0.051,0.096,0.13411362302727076,-8.236068717378547,-6.340829642669632
1621785858044.851,-0.3425890807465815,0.039706258109591774,0.08258868150514023,0.147,-8.463,-6.433
1621785858046.29,-0.332,0.035,0.077,0.15592133755502355,-8.530820372229515,-6.4937197158081705
1621785858051.181,-0.284,0.003,0.061,0.1862438952814889,-8.761333693721522,-6.700098756660746
1621785858056.071,-0.223,-0.019,0.042,0.2165619121167658,-8.991812495173372,-6.906446891651865
1621785858060.658,-0.16110173214196577,-0.03588134577946388,0.013864423700893528,0.245,-9.208,-7.1
1621785858060.962,-0.157,-0.037,0.012,0.24084493441077856,-9.213097649912703,-7.107733038735495
1621785858065.852,-0.082,-0.052,-0.017,0.17399677075446918,-9.295110443287342,-7.232144898873626
1621785858070.741,-0.021,-0.068,-0.059,0.10716529410855827,-9.37710276417237,-7.356525702631294
1621785858075.631,0.049,-0.093,-0.108,0.040317130452248884,-9.45911555754701,-7.480937562769426
1621785858076.459,0.05865035698237556,-0.09858704877927006,-0.11595731189774827,0.029,-9.473,-7.502
1621785858080.521,0.106,-0.126,-0.155,0.014086098446797002,-9.47814272467352,-7.393488509388765
1621785858085.409,0.171,-0.169,-0.201,-0.00386024263967236,-9.484331118151612,-7.262913407001005
1621785858090.297,0.234,-0.225,-0.243,-0.021807480102001394,-9.490519820724828,-7.132331782706128
1621785858092.256,0.25844753009340193,-0.2482451925478248,-0.25903116727436193,-0.029,-9.493,-7.08
1621785858095.185,0.295,-0.283,-0.283,-0.05088692022263451,-9.533064192949908,-6.8418406307977735
1621785858100.072,0.349,-0.37,-0.312,-0.08740525664811379,-9.599911317254174,-6.444471614100186
1621785858104.959,0.403,-0.468,-0.353,-0.12392359307359306,-9.666758441558441,-6.047102597402597
1621785858108.047,0.4371232951990808,-0.5198168556726782,-0.37448503771793973,-0.147,-9.709,-5.796
1621785858109.846,0.457,-0.55,-0.387,-0.17605407704084,-9.64975247034809,-5.644007298931449
1621785858114.732,0.501,-0.658,-0.403,-0.2549709125210695,-9.488824021525662,-5.23116393214468
1621785858119.618,0.517,-0.789,-0.414,-0.33388774800129895,-9.327895572703234,-4.818320565357911
1621785858123.835,0.499738220156898,-0.8917075900664568,-0.41054764403137955,-0.402,-9.189,-4.462
1621785858124.504,0.497,-0.908,-0.41,-0.19294871318980453,-9.020250309329374,-4.655668027715912
1621785858129.39,0.443,-1.047,-0.422,1.3339649375154665,-7.787700105171987,-6.07022212942341
1621785858134.274,0.396,-1.108,-0.38,2.8602682195001234,-6.5556426008413755,-7.484210777035387
1621785858139.159,0.394,-0.963,-0.274,4.386876685845087,-5.3233387465973765,-8.898482151695125
1621785858139.62,0.38181899525118723,-0.9392989752561859,-0.259458335416146,4.531,-5.207,-9.032
1621785858144.043,0.265,-0.712,-0.12,4.750771361371584,-3.972748336582799,-10.337733419985764
1621785858148.927,-0.194,-0.546,0.035,4.993458824621669,-2.609798208151518,-11.77961888404048
1621785858153.81,-0.838,-0.391,0.171,5.236097762510445,-1.2471206016154488,-13.221216043078638
1621785858155.398,-1.0035185240737963,-0.3064522273886306,0.22660641967901607,5.315,-0.804,-13.69
1621785858158.693,-1.347,-0.131,0.342,4.391165972856281,-2.8830965195994986,-12.95456712422043
1621785858163.575,-1.616,0.141,0.504,3.022492548631208,-5.9633079744347635,-11.865012720716816
1621785858168.457,-1.674,0.318,0.524,1.6537506770454518,-9.043673470651045,-10.775403828595305
1621785858171.174,-1.5448842326348953,0.4031496224433665,0.44497224583687556,0.892,-10.758,-10.169
1621785858173.339,-1.442,0.471,0.382,0.3413366566554169,-10.782162739573334,-11.199074062606435
1621785858178.221,-0.986,0.585,0.183,-0.9003259745487199,-10.836646066198098,-13.521735424342818
1621785858183.103,-0.435,0.503,0.035,-2.142050701303527,-10.891132117534136,-15.84451294237855
1621785858186.944,0.018382429457674543,0.28575425255153086,-0.0547319391634981,-3.119,-10.934,-17.672
1621785858187.983,0.141,0.227,-0.079,-3.137710536502284,-10.548984593945962,-17.683595262057754
1621785858192.864,0.686,-0.124,-0.202,-3.2256258728807,-8.739909855229541,-17.738078005728884
1621785858197.743,1.164,-0.443,-0.353,-3.313501633506232,-6.931649485174576,-17.792536223581326
1621785858202.623,1.489,-0.693,-0.496,-3.401399380661144,-5.122936688085469,-17.847008066888595
1621785858202.712,1.4915318254603684,-0.6954407526020816,-0.497511809447558,-3.403,-5.09,-17.848
1621785858207.502,1.628,-0.827,-0.579,-2.9888182325062727,-4.699520490660719,-15.35683189294675
1621785858212.381,1.6,-0.89,-0.578,-2.5669312486447975,-4.301776709103863,-12.819319425084409
1621785858217.259,1.473,-0.908,-0.522,-2.14514981569247,-3.9041324381253295,-10.282441811479726
1621785858218.475,1.4261317317317317,-0.9052577077077077,-0.4998123623623624,-2.04,-3.805,-9.65
1621785858222.137,1.285,-0.897,-0.433,-1.8234482053506422,-3.4906281350208355,-9.066564853686119
1621785858227.016,1.066,-0.78,-0.389,-1.5349097950521278,-3.0717520951776063,-8.289182934952676
1621785858231.894,0.85,-0.639,-0.339,-1.2464435734977461,-2.652980852942543,-7.511995507567425
1621785858234.235,0.7501345884237933,-0.5895474163829362,-0.30107034848788305,-1.108,-2.452,-7.139
1621785858236.77,0.642,-0.536,-0.26,-0.9313461323912235,-2.5718607753811824,-7.170533841576795
1621785858241.647,0.45,-0.445,-0.182,-0.5914792673856453,-2.802462610016115,-7.231202243708938
1621785858246.523,0.286,-0.367,-0.099,-0.25168045741911493,-3.033018268873187,-7.291858497582744
1621785858249.991,0.18927057881033446,-0.33926141598237536,-0.040677848988584016,-0.01,-3.197,-7.335
1621785858251.399,0.15,-0.328,-0.017,-0.06345774429563492,-3.3065973152281747,-7.353415209573413
1621785858256.274,0.016,-0.337,0.051,-0.248552982390873,-3.686073505704365,-7.417177114335318
1621785858261.149,-0.087,-0.347,0.099,-0.43364822048611107,-4.065549696180556,-7.480939019097223
1621785858265.741,-0.15104025635890245,-0.33381524133787305,0.14514665531744442,-0.608,-4.423,-7.541
1621785858266.025,-0.155,-0.333,0.148,-0.6173749612451168,-4.4357283127674085,-7.546480746574069
1621785858270.9,-0.188,-0.305,0.194,-0.7783373225026353,-4.6542656724747316,-7.640581819309233
1621785858275.773,-0.208,-0.267,0.258,-0.9392351956346499,-4.872715477150121,-7.734645191294103
1621785858280.647,-0.229,-0.251,0.309,-1.1001653128294164,-5.091209059341477,-7.8287274136541205
1621785858281.49,-0.2310759519038076,-0.24857805611222444,0.31418987975951906,-1.128,-5.129,-7.845
1621785858285.52,-0.241,-0.237,0.339,-1.6225419076713135,-5.1190170111805475,-7.812491292818708
1621785858290.393,-0.243,-0.257,0.374,-2.2205340611285997,-5.106945741002062,-7.773182284801588
1621785858295.266,-0.255,-0.314,0.407,-2.8185262145858854,-5.0948744708235765,-7.733873276784468
1621785858297.234,-0.2626742671009772,-0.347928338762215,0.4138664495114006,-3.06,-5.09,-7.718
1621785858300.138,-0.274,-0.398,0.424,-3.2535541439806415,-4.948847549909256,-7.745123411978222
1621785858305.01,-0.304,-0.492,0.421,-3.5782760016752757,-4.712038950160547,-7.790627809576993
1621785858309.881,-0.325,-0.581,0.41,-3.9029327718057303,-4.475277816557308,-7.836123086230164
1621785858312.973,-0.3338847907792533,-0.6330394888499123,0.4055576046103733,-4.109,-4.325,-7.865
1621785858314.753,-0.339,-0.663,0.403,-3.9858072023707933,-4.304976928209027,-7.873823726551954
1621785858319.623,-0.333,-0.731,0.393,-3.648754681851329,-4.25019428713286,-7.8979652293990785
1621785858324.494,-0.318,-0.775,0.387,-3.3116514716606416,-4.195403407239608,-7.922110362911359
1621785858328.708,-0.2920410066172047,-0.8217261880890314,0.3783470022057349,-3.02,-4.148,-7.943
1621785858329.364,-0.288,-0.829,0.377,-2.981595223315435,-4.13778374561594,-7.919690260405351
1621785858334.233,-0.265,-0.871,0.36,-2.6965537415810545,-4.06195837859648,-7.746684627083398
1621785858339.102,-0.234,-0.904,0.326,-2.411497967038083,-3.9861292094726712,-7.5736703187560135
1621785858343.971,-0.208,-0.929,0.295,-2.126456485303703,-3.910303842453211,-7.4006646854340605
1621785858344.44,-0.206747592778335,-0.9292890170511535,0.29316955867602806,-2.099,-3.903,-7.384
1621785858348.839,-0.195,-0.932,0.276,-1.5913398062773587,-3.993623637887678,-7.134505293222812
1621785858353.707,-0.199,-0.906,0.281,-1.0295862903976902,-4.0939036043587596,-6.858425879357983
1621785858358.575,-0.188,-0.859,0.283,-0.46783277451802174,-4.194183570829841,-6.5823464654931545
1621785858360.168,-0.18243706118355066,-0.8354393179538616,0.2852906218655968,-0.284,-4.227,-6.492
1621785858363.443,-0.171,-0.787,0.29,-0.07780763856544012,-4.281984629715883,-6.434724344045955
1621785858368.31,-0.148,-0.709,0.288,0.22859897531439216,-4.363693060083838,-6.349611395746002
1621785858373.177,-0.108,-0.644,0.286,0.5350055891942245,-4.445401490451793,-6.264498447446049
1621785858375.893,-0.08290853047313552,-0.5954898255813954,0.2820968825180433,0.706,-4.491,-6.217
1621785858378.048,-0.063,-0.557,0.279,0.6980731659056316,-4.489790821917808,-6.202624216133942
1621785858383.025,-0.009,-0.478,0.286,0.67976700152207,-4.486998356164383,-6.169424901065449
1621785858388.003,0.04,-0.417,0.291,0.6614563470319634,-4.484205205479452,-6.136217442922375
1621785858391.933,0.06763266307013241,-0.36647170181461497,0.2925790093182933,0.647,-4.482,-6.11
1621785858392.981,0.075,-0.353,0.293,0.5754623231525897,-4.440432570283563,-6.104852935818811
1621785858397.959,0.108,-0.309,0.288,0.23560835509138384,-4.242958224543081,-6.080400783289817
1621785858402.938,0.136,-0.269,0.272,-0.10431228368449819,-4.045445139352723,-6.055943833869694
1621785858407.916,0.159,-0.246,0.26,-0.4441662517457041,-3.847970793612241,-6.0314916813407
1621785858408.016,0.1593418342324669,-0.2457184894556155,0.2597587052476704,-0.451,-3.844,-6.031
1621785858412.894,0.176,-0.232,0.248,-0.784,-3.733909836065574,-5.891188524590164
1621785858417.872,0.185,-0.222,0.236,-1.1238333333333332,-3.6215605646630236,-5.748508044930176
1621785858422.85,0.194,-0.225,0.22,-1.4636666666666667,-3.5092112932604733,-5.6058275652701886
1621785858424.1,0.19249300956585724,-0.23077679666421388,0.21522786362521462,-1.549,-3.481,-5.57
1621785858427.827,0.188,-0.248,0.201,-1.6671878216514096,-3.4902696330706986,-5.411025792837516
1621785858432.805,0.152,-0.271,0.194,-1.8250554720590246,-3.502651409573257,-5.198678325818646
1621785858437.783,0.119,-0.302,0.188,-1.9829231224666395,-3.5150331860758146,-4.986330858799776
1621785858440.182,0.10791623344776852,-0.3154932810201079,0.188,-2.059,-3.521,-4.884
1621785858442.761,0.096,-0.33,0.188,-2.122013614631555,-3.57904307505502,-4.846159763223799
1621785858447.739,0.061,-0.354,0.188,-2.243638718980041,-3.6910743416559155,-4.773122804887303
1621785858452.718,0.03,-0.372,0.18,-2.365287683084162,-3.8031275859452074,-4.700071518555058
1621785858456.267,0.0107504168710152,-0.39196253065228054,0.1671669445806768,-2.452,-3.883,-4.648
1621785858457.696,0.003,-0.4,0.162,-2.4754532208123368,-3.915248178616963,-4.68726637726914
1621785858462.674,-0.005,-0.428,0.145,-2.5571568210794733,-4.027590628984275,-4.824058011049724
1621785858467.652,-0.003,-0.445,0.119,-2.6388604213466094,-4.139933079351588,-4.960849644830308
1621785858472.352,0.019664900662251655,-0.46955364238410596,0.08878013245033112,-2.716,-4.246,-5.09
1621785858472.629,0.021,-0.471,0.087,-2.7173597535061624,-4.254606034849129,-5.093373565660858
1621785858477.607,0.042,-0.492,0.056,-2.7418089369194343,-4.409347702021735,-5.15403229919252
1621785858482.585,0.079,-0.504,0.026,-2.766258120332706,-4.564089369194342,-5.214691032724182
1621785858487.563,0.124,-0.52,-0.005,-2.7907073037459775,-4.718831036366948,-5.275349766255843
1621785858488.437,0.13348111819519373,-0.5207023050514958,-0.00903825404610103,-2.795,-4.746,-5.286
1621785858492.541,0.178,-0.524,-0.028,-2.746083661198129,-4.880769504862297,-5.207634028654145
1621785858497.668,0.234,-0.539,-0.051,-2.68497461212976,-5.049131170662905,-5.109734837799718
1621785858502.795,0.29,-0.534,-0.07,-2.623865563061391,-5.217492836463514,-5.01183564694529
1621785858504.881,0.30708593192097117,-0.5348136158057606,-0.07284765532016187,-2.599,-5.286,-4.972
1621785858507.923,0.332,-0.536,-0.077,-2.602488344679221,-5.348973801314354,-4.831548227389267
1621785858513.051,0.375,-0.522,-0.091,-2.608368697138479,-5.455129637815695,-4.59478666784546
1621785858518.179,0.396,-0.508,-0.103,-2.6142490495977366,-5.561285474317036,-4.3580251083016535
1621785858521.45,0.4017409064940012,-0.5003454580079985,-0.10746514949533421,-2.618,-5.629,-4.207
1621785858523.307,0.405,-0.496,-0.11,-2.6070195188780696,-5.701493584549887,-4.125654803117128
1621785858528.436,0.387,-0.468,-0.11,-2.5766896572043074,-5.9017325692736025,-3.9009662360237467
1621785858533.566,0.354,-0.44,-0.11,-2.546355464549298,-6.102000147312287,-3.6762455843141875
1621785858538.023,0.3105519539245085,-0.41132428959017564,-0.0978345470988624,-2.52,-6.276,-3.481
1621785858538.695,0.304,-0.407,-0.096,-2.5060955501236895,-6.314186564966427,-3.473865355165508
1621785858543.826,0.25,-0.363,-0.094,-2.3999510101307573,-6.605697225821651,-3.419400518317823
1621785858548.957,0.201,-0.316,-0.089,-2.2938014194840384,-6.897221757568618,-3.3649330898810224
1621785858554.088,0.154,-0.271,-0.077,-2.187656879491106,-7.188732418423843,-3.3104682530333376
1621785858554.603,0.15028538801922253,-0.2672853880192225,-0.077,-2.177,-7.218,-3.305
1621785858559.219,0.117,-0.234,-0.077,-2.2997546522584065,-7.357177610270302,-3.5724993669395206
1621785858564.351,0.094,-0.229,-0.073,-2.436234556268771,-7.511916730463459,-3.8699079559507688
1621785858569.483,0.087,-0.232,-0.08,-2.572707967728638,-7.666648489488251,-4.167302396796419
1621785858571.186,0.08998615933412604,-0.2336589774078478,-0.07900461355529131,-2.618,-7.718,-4.266
1621785858574.616,0.096,-0.237,-0.077,-2.618,-7.77280135715968,-4.5234629798634005
1621785858579.749,0.106,-0.26,-0.07,-2.618,-7.854814207489402,-4.908768635186058
1621785858584.882,0.112,-0.253,-0.047,-2.618,-7.936827057819124,-5.294074290508714
1621785858587.772,0.11087443541102078,-0.24005600722673895,-0.0323676603432701,-2.618,-7.983,-5.511
1621785858590.017,0.11,-0.23,-0.021,-2.429655528580887,-8.184604355182815,-5.611937482527772
1621785858595.151,0.126,-0.195,0.024,-1.9989783270801147,-8.645602221731775,-5.842745810343559
1621785858600.285,0.162,-0.138,0.084,-1.568280644449349,-9.10662201132936,-6.073565114397116
1621785858604.365,0.19537155897874767,-0.08238073503542054,0.14597575238910285,-1.226,-9.473,-6.257
1621785858605.42,0.204,-0.068,0.162,-1.1904689104308557,-9.546541092364043,-6.319290640031773
1621785858610.555,0.257,0.016,0.236,-1.017516953266354,-9.904511422309175,-6.622498006796016
1621785858615.691,0.321,0.105,0.307,-0.8445321045586267,-10.262549830099587,-6.925763036730851
1621785858620.827,0.407,0.216,0.389,-0.6715472558508996,-10.620588237889999,-7.229028066665686
1621785858620.962,0.409470979702429,0.21912815515520273,0.3916549888292057,-0.667,-10.63,-7.237
1621785858625.963,0.501,0.335,0.49,-1.9757585821444332,-9.167588821885571,-9.133856361229592
1621785858631.1,0.56,0.396,0.586,-3.3201687601117813,-7.665340432416532,-11.082384556552434
1621785858636.238,0.52,0.361,0.613,-4.66477061332549,-6.162877864391822,-13.031190557434916
1621785858637.561,0.46747084818246615,0.3656349251603706,0.6148024708956997,-5.011,-5.776,-13.533
1621785858641.376,0.316,0.379,0.62,-3.893577200152901,-4.9266759681260845,-15.853536122791025
1621785858646.514,-0.138,0.389,0.555,-2.3886390955335353,-3.7828116233938074,-18.97881979770061
1621785858651.653,-0.531,0.358,0.515,-0.8833434385015728,-2.6386755123643746,-22.104845996647946
1621785858654.167,-0.4957781842367809,0.27336980379115394,0.6035437312936481,-0.147,-2.079,-23.634
1621785858656.792,-0.459,0.185,0.696,-0.147,-4.005944044223588,-22.773593401746595
1621785858661.931,0.007,0.014,0.92,-0.147,-7.778288276632656,-21.08919064071275
1621785858667.07,0.693,-0.08,1.028,-0.147,-11.550811726307742,-19.4047078567438
1621785858670.773,1.232594499596257,-0.17581584572269987,0.9963015247233173,-0.147,-14.269,-18.191
1621785858672.21,1.442,-0.213,0.984,-0.4719476886896451,-13.40697157345484,-17.97211883589329
1621785858677.352,2.049,-0.454,0.771,-1.634714970235908,-10.322356772249577,-17.188891673403393
1621785858682.492,2.421,-0.693,0.476,-2.7969853898728596,-7.239060057323437,-16.405999191592564
1621785858687.383,2.586507359225145,-0.7795584464913113,0.2572259044725097,-3.903,-4.305,-15.661
1621785858687.634,2.595,-0.784,0.246,-3.8471486619542374,-4.267080914661925,-15.544115552485781
1621785858692.775,2.609,-0.719,0.208,-2.703119843637486,-3.490366731817714,-13.149917292459623
1621785858697.917,2.487,-0.614,0.297,-1.558819374843858,-2.7134681176245827,-10.755150528311315
1621785858703.06,2.225,-0.517,0.34,-0.4143015856687291,-1.9364219583523155,-8.359928960865286
1621785858703.996,2.15746218128294,-0.5029827168700441,0.3352668914106643,-0.206,-1.795,-7.924
1621785858708.202,1.854,-0.44,0.314,-0.05214005141388173,-2.04805912596401,-6.47953850899743
1621785858713.345,1.393,-0.34,0.278,0.13600725670216676,-2.3575119353654057,-4.713181872934264
1621785858718.489,0.89,-0.183,0.272,0.32419029012118994,-2.667023503488799,-2.946489842085935
1621785858720.616,0.6873953488372093,-0.10361205505457997,0.29515481727574755,0.402,-2.795,-2.216
1621785858723.633,0.4,0.009,0.328,0.4804081776524498,-2.9890239396075664,-2.2925931735401246
1621785858728.777,-0.07,0.227,0.405,0.6140916461050405,-3.3198286335330747,-2.4231821172600165
1621785858733.923,-0.527,0.475,0.461,0.747825872400423,-3.650758929620491,-2.553820643872635
1621785858737.239,-0.8079980070228718,0.6515904906519883,0.47066736262693365,0.834,-3.864,-2.638
1621785858739.068,-0.963,0.749,0.476,0.72608193351345,-3.958937096205803,-3.2874885469282273
1621785858744.214,-1.333,1.014,0.452,0.42246514154822035,-4.22603321390814,-5.114760249030894
1621785858749.36,-1.583,1.236,0.408,0.11884834958299062,-4.493129331610478,-6.94203195113356
1621785858753.866,-1.6688092798178196,1.3927332764019358,0.372975804155992,-0.147,-4.727,-8.542
1621785858754.506,-1.681,1.415,0.368,-0.17494562297223892,-4.820613987697638,-8.724685849347447
1621785858759.653,-1.63,1.513,0.34,-0.39964036877725084,-5.573310436454923,-10.193558113246326
1621785858764.8,-1.463,1.573,0.297,-0.6243351145822629,-6.326006885212209,-11.662430377145206
1621785858769.947,-1.227,1.567,0.227,-0.8490298603872748,-7.078703333969493,-13.131302641044087
1621785858770.496,-1.1972479374110954,1.5607083451872925,0.2192154101469891,-0.873,-7.159,-13.288
1621785858775.096,-0.948,1.508,0.154,-1.2335774248939635,-7.291727886464035,-12.905577777125497
1621785858780.245,-0.66,1.429,0.082,-1.63721515476173,-7.440306191936833,-12.477486534481999
1621785858785.393,-0.401,1.316,-0.007,-2.0407571950628878,-7.588849274256278,-12.049496778549099
1621785858787.131,-0.32707581792318635,1.286970412517781,-0.04278065433854907,-2.177,-7.639,-11.905
1621785858790.542,-0.182,1.23,-0.113,-2.1427638850166546,-7.297253870196188,-11.237498261163038
1621785858795.692,-0.003,1.197,-0.215,-2.0910727670251945,-6.781271273239519,-10.229676224155893
1621785858800.842,0.117,1.183,-0.293,-2.039379198520888,-6.265264215175572,-9.221806409485097
1621785858803.769,0.1567852469896653,1.184136721342562,-0.3231231155778894,-2.01,-5.972,-8.649
1621785858805.992,0.187,1.185,-0.346,-1.9786103572214477,-5.784730726912639,-8.370099684588865
1621785858811.143,0.234,1.175,-0.36,-1.9058711948947404,-5.350771979755007,-7.723804489107312
1621785858816.294,0.279,1.124,-0.344,-1.8331354800850876,-4.916833800337417,-7.0775399251815445
1621785858820.411,0.3333374875610103,1.0640689475430034,-0.32721930531204096,-1.775,-4.57,-6.561
1621785858821.446,0.347,1.049,-0.323,-1.8371865008359978,-4.507191634155642,-6.443280953917456
1621785858826.598,0.398,0.962,-0.304,-2.146681675515532,-4.194601507729313,-5.857406588249098
1621785858831.75,0.407,0.869,-0.288,-2.4561915168226216,-3.881996568009152,-5.271504458654777
1621785858836.903,0.393,0.78,-0.274,-2.7657600246399343,-3.5693323751136665,-4.685491273356605
1621785858837.057,0.3920149720458638,0.7776120534445182,-0.2737313560125083,-2.775,-3.56,-4.668
1621785858842.056,0.36,0.7,-0.265,-2.81912736948586,-3.2655173505739543,-4.391228335605694
1621785858847.209,0.318,0.63,-0.265,-2.8646145929542155,-2.9619597572239083,-4.105927519021859
1621785858852.363,0.251,0.525,-0.253,-2.9101104367330786,-2.6583446364955803,-3.8205726349122573
1621785858853.71,0.22382137274406708,0.4967760409265312,-0.2524773340912321,-2.922,-2.579,-3.746
1621785858857.517,0.147,0.417,-0.251,-2.792177612968473,-2.6530536151377024,-3.6070351913465344
1621785858862.673,0.035,0.318,-0.248,-2.616358772919812,-2.7533446436161637,-3.418834742843742
1621785858867.827,-0.08,0.236,-0.246,-2.440614859219957,-2.853592932416785,-3.230714497193193
1621785858870.367,-0.1327121549315782,0.20053013873762962,-0.23910308253231688,-2.354,-2.903,-3.138
1621785858872.983,-0.187,0.164,-0.232,-2.2031220988160825,-2.9552813122728874,-3.2103774323057084
1621785858878.139,-0.278,0.101,-0.229,-1.9057454870472395,-3.0583264857578247,-3.3530315613644355
1621785858883.295,-0.333,0.038,-0.225,-1.6083688752783964,-3.1613716592427616,-3.4956856904231626
1621785858887.029,-0.35472276665246416,-0.006893717748425891,-0.23151682999573925,-1.393,-3.236,-3.599
1621785858888.452,-0.363,-0.024,-0.234,-1.2815928985761997,-3.2435125095212984,-3.6475752036093048
1621785858893.609,-0.363,-0.089,-0.25,-0.8778090613464581,-3.270740844905373,-3.823631144899514
1621785858898.766,-0.346,-0.126,-0.257,-0.47400610827913525,-3.297970469326771,-3.9996954209878717
1621785858903.696,-0.317326264968997,-0.14702740568940217,-0.25508841766459983,-0.088,-3.324,-4.168
1621785858903.924,-0.316,-0.148,-0.255,-0.06935556531927357,-3.3311130638547155,-4.161420415934388
1621785858909.083,-0.29,-0.161,-0.258,0.3524597978910369,-3.4920404217926184,-4.012562609841828
1621785858914.242,-0.265,-0.162,-0.253,0.7742751611013474,-3.6529677797305213,-3.863704803749268
1621785858919.401,-0.253,-0.143,-0.237,1.1960905243116577,-3.813895137668424,-3.7148469976567076
1621785858920.366,-0.2546835604770017,-0.13869756766988453,-0.23288462994510695,1.275,-3.844,-3.687
1621785858924.56,-0.262,-0.12,-0.215,1.4822759433616914,-4.066117303383948,-3.5687722167718507
1621785858929.72,-0.298,-0.091,-0.176,1.7372836308259998,-4.33938403643126,-3.4233188028055586
1621785858934.88,-0.344,-0.061,-0.12,1.9922913182903081,-4.61265076947857,-3.277865388839266
1621785858937.039,-0.3628294852384557,-0.04844700984102952,-0.09405715367146102,2.099,-4.727,-3.217
1621785858940.04,-0.389,-0.031,-0.058,2.0106511937698537,-4.915753355876627,-3.3264013730915054
1621785858945.201,-0.431,-0.009,0.009,1.858714534568823,-5.240359375228727,-3.5145428981306632
1621785858950.364,-0.457,0.01,0.068,1.7067131878266217,-5.565103596679988,-3.7027645250537966
1621785858953.717,-0.46869459293249444,0.02169459293249444,0.10308377879748332,1.608,-5.776,-3.825
1621785858955.525,-0.475,0.028,0.122,1.447499992682463,-5.853594871869923,-4.018336943318357
1621785858960.688,-0.466,0.038,0.155,0.9891267104743228,-6.075198700405392,-4.570489499334104
1621785858965.85,-0.415,0.03,0.175,0.530840126447043,-6.296760614087723,-5.122537619458795
1621785858970.399,-0.33834685771031353,0.007973234974228024,0.1794053530051544,0.127,-6.492,-5.609
1621785858971.013,-0.328,0.005,0.18,0.07036779036081117,-6.50933188482135,-5.653415254733269
1621785858976.176,-0.202,-0.044,0.164,-0.40583816170661047,-6.655071328241594,-6.026891917595763
1621785858981.34,-0.061,-0.099,0.141,-0.8821341848828022,-6.800838337283821,-6.400439221022444
1621785858986.505,0.079,-0.171,0.103,-1.3584977613905715,-6.946626020542533,-6.774039504872268
1621785858987.085,0.09382753403933435,-0.17908774583963694,0.09850680786686837,-1.412,-6.963,-6.816
1621785858991.669,0.211,-0.243,0.063,-1.6113736525719968,-7.154135071887204,-6.594931418291381
1621785858996.834,0.347,-0.288,0.014,-1.8360194234397624,-7.36949795966126,-6.345840721943514
1621785859002.0,0.457,-0.323,-0.031,-2.0607076684559242,-7.584901566453613,-6.096702929604657
1621785859003.777,0.4889978729438457,-0.33332189449801475,-0.049923473246360366,-2.138,-7.659,-6.011
1621785859007.165,0.55,-0.353,-0.086,-2.022524072069964,-7.7943645763257186,-5.714496782590892
1621785859012.331,0.609,-0.356,-0.131,-1.846443461347217,-8.000771900318815,-5.262381189856386
