time,gyro_x,gyro_y,gyro_z,acc_x,acc_y,acc_z
1621785543026.581,,,,3.04,-6.678,-7.924
1621785543045.227,,,,1.677,-6.531,-8.748
1621785543063.75,0.374,1.026,1.304,0.6321417749893719,-6.13807857207271,-9.27482748669853
1621785543064.178,0.3728440964351947,1.0247718524623943,1.3019771687615909,0.608,-6.129,-9.287
1621785543069.674,0.358,1.009,1.276,0.5323634703891065,-6.154117036248145,-9.127449735650984
1621785543075.626,0.332,1.025,1.257,0.45045413512862453,-6.181317117391249,-8.954667402026042
1621785543081.608,0.297,1.04,1.248,0.36813154057789105,-6.208654431808096,-8.781013325219023
1621785543083.434,0.2894048576418504,1.042734251248934,1.2401010519475244,0.343,-6.217,-8.728
1621785543087.619,0.272,1.049,1.222,0.31797070863390164,-6.357549097671168,-8.40903697925767
1621785543093.659,0.244,1.07,1.199,0.2818453560641989,-6.560406846716421,-7.948670306766842
1621785543099.728,0.229,1.122,1.175,0.2455462396725158,-6.764240346454335,-7.486089259416419
1621785543102.996,0.22524966980188113,1.1455735041024615,1.171249669801881,0.226,-6.874,-7.237
1621785543105.828,0.222,1.166,1.168,0.2908691986644407,-6.9167620339454645,-7.113554883138565
1621785543110.622,0.213,1.197,1.148,0.40069215358931554,-6.98915776293823,-6.904563439065109
1621785543116.232,0.232,1.216,1.127,0.5292001669449082,-7.073870756816917,-6.660014607679466
1621785543120.545,0.2465885778859527,1.231356397774687,1.1154827016689848,0.628,-7.139,-6.472
1621785543121.849,0.251,1.236,1.112,0.6814121136476493,-7.108816778730658,-6.443178966863953
1621785543127.471,0.271,1.255,1.087,0.9116481190696676,-6.978710257545866,-6.318944236421468
1621785543133.1,0.288,1.276,1.073,1.142184080202923,-6.848434231187341,-6.19454765068245
1621785543138.736,0.293,1.286,1.066,1.373,-6.718,-6.07
1621785543144.378,0.288,1.3,1.058,1.4910544292286294,-6.581402990264256,-5.92753117310367
1621785543150.026,0.265,1.312,1.049,1.609236573232053,-6.4446582058414466,-5.784908219214722
1621785543155.68,0.244,1.321,1.051,1.7275464320102705,-6.307765646731571,-5.642131138333155
1621785543156.992,0.23890132827324478,1.321463515611523,1.0516952734172849,1.755,-6.276,-5.609
1621785543161.341,0.222,1.323,1.054,1.7644943438461844,-6.194586001518967,-5.5672248870767875
1621785543167.008,0.194,1.318,1.054,1.7768656646813499,-6.0885019253574235,-5.51279107540206
1621785543172.682,0.176,1.3,1.059,1.7892519087020826,-5.982289882879642,-5.458291601710837
1621785543175.315,0.1681182615424297,1.298609104978076,1.055290946608202,1.795,-5.933,-5.433
1621785543178.361,0.159,1.297,1.051,1.7640199699919004,-5.876175666883539,-5.41345110405906
1621785543184.047,0.154,1.278,1.058,1.706191573831875,-5.770105400130124,-5.376960458353803
1621785543189.74,0.138,1.236,1.051,1.648293654481962,-5.66390761223162,-5.340425942400382
1621785543193.702,0.11992176185783453,1.2311327820386477,1.0419608809289174,1.608,-5.59,-5.315
1621785543195.438,0.112,1.229,1.038,1.6292600010583131,-5.59,-5.280852299185099
1621785543201.143,0.08,1.215,1.038,1.6991241136628215,-5.59,-5.168636932479628
1621785543206.854,0.037,1.203,1.047,1.769059979892052,-5.59,-5.05630631548312
1621785543212.157,-0.00010295938847845743,1.205782721954136,1.0683342016483752,1.834,-5.59,-4.952
1621785543212.571,-0.003,1.206,1.07,1.8416682396983999,-5.594605415095832,-4.959891803538003
1621785543218.295,-0.051,1.204,1.101,1.9476717065197333,-5.658269304790277,-5.068985750441591
1621785543224.025,-0.101,1.21,1.136,2.0537882075347342,-5.722001080910074,-5.178196026996388
1621785543229.761,-0.136,1.208,1.176,2.1600177427434026,-5.785800743455222,-5.287522633202394
1621785543230.678,-0.1419089246991794,1.2057641906543646,1.1796731153535438,2.177,-5.796,-5.305
1621785543235.503,-0.173,1.194,1.199,2.0778215186547557,-5.846887388334209,-5.508809182869154
1621785543241.252,-0.192,1.18,1.218,1.9596484235417762,-5.90752070415134,-5.751651799789805
1621785543247.008,-0.197,1.148,1.227,1.8413297950604308,-5.968228691539674,-5.994793483972675
1621785543249.262,-0.1962176602686327,1.1393942629549594,1.2297381890597856,1.795,-5.992,-6.09
1621785543252.77,-0.195,1.126,1.234,1.7765683189570545,-6.06384594039189,-6.169369075511459
1621785543258.538,-0.171,1.101,1.248,1.746262320187437,-6.181977486616317,-6.299870417152056
1621785543264.312,-0.154,1.077,1.258,1.7159255356745509,-6.300229034411445,-6.430504325972853
1621785543267.914,-0.13966907386291652,1.0682768275687318,1.2710847586469023,1.697,-6.374,-6.512
1621785543270.093,-0.131,1.063,1.279,1.6775606276003288,-6.39576744095053,-6.529111303848812
1621785543275.879,-0.108,1.052,1.297,1.6259422873762603,-6.453567618327181,-6.574547806920298
1621785543281.672,-0.087,1.045,1.314,1.5742586047239575,-6.511440963572574,-6.62004182697951
1621785543286.633,-0.07245638262041092,1.036444930953183,1.319988548332772,1.53,-6.561,-6.659
1621785543287.471,-0.07,1.035,1.321,1.5229836970675557,-6.554430595343508,-6.670395906036773
1621785543293.268,-0.04,1.03,1.339,1.4744399578103027,-6.508978814000729,-6.749240832855878
1621785543299.07,-0.016,1.016,1.349,1.4258553310068234,-6.463488749414032,-6.828152169383822
1621785543304.879,0.017,0.997,1.356,1.3772134616386271,-6.4179450882858475,-6.907156479504141
1621785543305.382,0.019769347050178458,0.9972596262859542,1.357038505143817,1.373,-6.414,-6.914
1621785543310.693,0.049,1.0,1.368,1.4393421059461704,-6.272564276259441,-6.972155207765579
1621785543316.513,0.077,0.995,1.379,1.5120396843935737,-6.11757922603753,-7.035881595681175
1621785543322.339,0.11,0.986,1.384,1.5848165537646968,-5.962425134314413,-7.099677489683096
1621785543324.195,0.11604671997320719,0.9844087579017876,1.38527299367857,1.608,-5.913,-7.12
1621785543328.171,0.129,0.981,1.388,1.647387642919965,-5.832539681307879,-7.090933183299705
1621785543334.01,0.148,0.976,1.395,1.7052343887423043,-5.714371462569196,-7.048244140928139
1621785543339.854,0.154,0.99,1.393,1.7631295074758135,-5.596104428578819,-7.0055194009002015
1621785543343.071,0.1578493865286704,0.9867005258325682,1.3968493865286704,1.795,-5.531,-6.982
1621785543345.704,0.161,0.984,1.4,1.8222524044039914,-5.500966738003764,-6.956138024392131
1621785543351.561,0.152,0.993,1.41,1.8828722636206585,-5.434161178867029,-6.898611015135498
1621785543357.422,0.138,1.002,1.414,1.9435350798030067,-5.367308279400769,-6.8410432405951065
1621785543362.008,0.12315345896251924,1.0043441906901285,1.4194697782769665,1.991,-5.315,-6.796
1621785543363.291,0.119,1.005,1.421,1.996941820424526,-5.310408593308321,-6.792016279488102
1621785543369.165,0.094,1.025,1.428,2.0241464254509944,-5.289386853060595,-6.773776828390811
1621785543375.045,0.068,1.044,1.442,2.051378167240582,-5.268344143495914,-6.755519183327337
1621785543380.932,0.047,1.065,1.454,2.0786426992856044,-5.247276096006578,-6.737239553888061
1621785543381.009,0.046698848098118834,1.0652749647799784,1.4541309356095136,2.079,-5.247,-6.737
1621785543386.824,0.024,1.086,1.464,2.079,-5.315633615942215,-6.707106247278502
1621785543392.722,0.0,1.105,1.475,2.079,-5.385246971132911,-6.676785763684332
1621785543398.626,-0.021,1.129,1.497,2.079,-5.454932365974233,-6.646433902820112
1621785543400.072,-0.028340438716073862,1.1346276696823232,1.501893625810716,2.079,-5.472,-6.639
1621785543404.536,-0.051,1.152,1.517,2.0493621279420027,-5.503971562771226,-6.670971562771226
1621785543410.453,-0.072,1.161,1.538,2.01007622402614,-5.54635084494818,-6.71335084494818
1621785543416.374,-0.098,1.173,1.564,1.9707627635676723,-5.588759853474243,-6.755759853474243
1621785543419.2,-0.10848589664401895,1.1720467366687255,1.5740092649783817,1.952,-5.609,-6.776
1621785543422.303,-0.12,1.171,1.585,1.864677167357948,-5.648780401536935,-6.834700348609379
1621785543428.237,-0.145,1.171,1.602,1.6976851319371993,-5.724854551006387,-6.946956105753327
1621785543434.177,-0.157,1.168,1.611,1.5305282068246011,-5.801003816891015,-7.0593227054123515
1621785543438.389,-0.1697483065807299,1.1531269756558151,1.6131247177634551,1.412,-5.855,-7.139
1621785543440.124,-0.175,1.147,1.614,1.346569131465818,-5.8708620287355595,-7.195598602533701
1621785543446.076,-0.18,1.136,1.614,1.1221229313821222,-5.92527322875585,-7.3897476571515535
1621785543452.034,-0.187,1.124,1.606,0.8974465678379853,-5.97974022597867,-7.584095806332983
1621785543457.641,-0.1804189283228949,1.1023764787752262,1.5956583159359776,0.686,-6.031,-7.767
1621785543457.998,-0.18,1.101,1.595,0.6756693464795854,-6.033716647705726,-7.776240298318797
1621785543463.968,-0.169,1.079,1.583,0.502881746934648,-6.07915453166477,-7.930790924029832
1621785543469.944,-0.157,1.065,1.553,0.32991749462773357,-6.124638869927948,-8.085499557578055
1621785543475.927,-0.133,1.052,1.531,0.1567553912274049,-6.1701752370117555,-8.24038515990393
1621785543476.955,-0.1263971691316693,1.0486093571216681,1.5268955375683348,0.127,-6.178,-8.267
1621785543481.688,-0.096,1.033,1.508,0.03164893166913477,-6.135194547281574,-8.33236161942035
1621785543487.401,-0.052,1.012,1.482,-0.08344520837740638,-6.083525941400466,-8.411256796065157
1621785543493.115,-0.014,0.99,1.452,-0.19856394118891474,-6.031846295218955,-8.490168830653692
1621785543495.42,0.003752307692307692,0.985561923076923,1.437878846153846,-0.245,-6.011,-8.522
1621785543498.828,0.03,0.979,1.417,-0.27397934545454544,-5.944181381818182,-8.451489745454547
1621785543504.542,0.059,0.953,1.389,-0.32256889917355375,-5.8321468694214875,-8.333265480991736
1621785543510.256,0.084,0.946,1.354,-0.371158452892562,-5.720112357024793,-8.215041216528926
1621785543513.883,0.0960625641025641,0.9371117948717949,1.335588717948718,-0.402,-5.649,-8.14
1621785543515.969,0.103,0.932,1.325,-0.38866906436769455,-5.603584439625536,-8.063516581160417
1621785543521.685,0.108,0.915,1.3,-0.35213849367958955,-5.479132834399958,-7.8539301713651035
1621785543527.398,0.106,0.888,1.279,-0.31562820648437084,-5.354750330565399,-7.644460133812874
1621785543532.347,0.09733903012176885,0.8568205084383679,1.2599458662678913,-0.284,-5.247,-7.463
1621785543533.112,0.096,0.852,1.257,-0.27587793042351477,-5.236433021724471,-7.436188882571501
1621785543538.826,0.086,0.819,1.232,-0.21522416004442738,-5.157521228629229,-7.235969548718084
1621785543544.54,0.063,0.799,1.211,-0.1545677980668791,-5.078606063811501,-7.035741659945259
1621785543550.254,0.021,0.757,1.194,-0.0939140276877917,-4.99969427071626,-6.8355223260918425
1621785543550.811,0.0172949797051912,0.7543674855800043,1.1919524887844477,-0.088,-4.992,-6.816
1621785543555.968,-0.017,0.73,1.173,-0.0003040247514279615,-4.975522093822721,-6.755674106198434
1621785543561.682,-0.059,0.702,1.152,0.09686193674635074,-4.95726479532473,-6.688833826951555
1621785543567.396,-0.106,0.672,1.136,0.19403204992595727,-4.939006716733657,-6.621990691770678
1621785543569.276,-0.11882839933358964,0.6641056004100987,1.133039600153787,0.226,-4.933,-6.6
1621785543573.111,-0.145,0.648,1.127,0.25445494691470655,-5.012341530813269,-6.6610639006782755
1621785543578.825,-0.173,0.625,1.114,0.29684845239511853,-5.130548239525075,-6.7520397445559475
1621785543584.539,-0.194,0.604,1.094,0.33924376925416155,-5.248759998942261,-6.843019475625719
1621785543587.741,-0.2007244915399077,0.5871887711502307,1.0816717655101693,0.363,-5.315,-6.894
1621785543590.253,-0.206,0.574,1.072,0.3698373792991212,-5.382117947813823,-6.967955327112944
1621785543595.804,-0.201,0.557,1.045,0.3849468644895302,-5.530437588152328,-7.131384452641858
1621785543601.352,-0.187,0.529,1.023,0.4000483752847998,-5.67867894922426,-7.29472732450906
1621785543605.743,-0.16482758013384996,0.5107869408242339,1.0103300457907713,0.412,-5.796,-7.424
1621785543606.897,-0.159,0.506,1.007,0.40884105942200943,-5.806121503484582,-7.435346398810742
1621785543612.439,-0.126,0.483,0.99,0.3936711945774177,-5.854726988802968,-7.489834076619887
1621785543617.978,-0.094,0.463,0.965,0.37850934904463807,-5.90330677959167,-7.544292950370279
1621785543623.515,-0.063,0.428,0.944,0.3633535179957176,-5.951867299483109,-7.598730221076606
1621785543623.644,-0.06234645252382633,0.4271363836921991,0.9434864984115778,0.363,-5.953,-7.6
1621785543629.048,-0.035,0.391,0.922,0.3333604465273887,-5.929106890567997,-7.514105783814065
1621785543634.578,-0.012,0.354,0.895,0.30303128970992116,-5.904657876398814,-7.426213125281812
1621785543640.104,0.012,0.325,0.876,0.2727222184267698,-5.880225053629743,-7.33837867380819
1621785543641.512,0.016587907716785998,0.314294881994166,0.8719218598073013,0.265,-5.874,-7.316
1621785543645.628,0.03,0.283,0.86,0.3261602644836272,-5.864999055415617,-7.284150503778338
1621785543651.148,0.049,0.257,0.843,0.4081837285072829,-5.852927677691381,-7.241436397984886
1621785543656.665,0.065,0.227,0.826,0.49016365951155405,-5.840862706713394,-7.198744962216624
1621785543659.346,0.0674306078179645,0.21922205498251363,0.8196804196732923,0.53,-5.835,-7.178
1621785543662.18,0.07,0.211,0.813,0.5970172926866061,-5.825608027865773,-7.220184281619835
1621785543667.692,0.066,0.206,0.819,0.7273626938741926,-5.807341095157773,-7.302230674291356
1621785543673.2,0.058,0.195,0.812,0.857615721122859,-5.7890871079661546,-7.38421892184693
1621785543677.149,0.04795742604993569,0.18280544591777906,0.800522772628498,0.951,-5.776,-7.443
1621785543678.705,0.044,0.178,0.796,0.9209628774764378,-5.784582035006732,-7.481706729316077
1621785543684.207,0.042,0.148,0.773,0.8147632236968647,-5.8149247932294665,-7.61855876130025
1621785543689.705,0.052,0.134,0.756,0.7086389690325062,-5.845246008847855,-7.755313631742368
1621785543694.919,0.06243560925769624,0.11312878148460753,0.7360774732353071,0.608,-5.874,-7.885
1621785543695.201,0.063,0.112,0.735,0.5965278694892212,-5.878870848708487,-7.8874995144688285
1621785543700.694,0.086,0.084,0.714,0.37304480759093306,-5.973757511860833,-7.93619135477069
1621785543706.121,0.106,0.058,0.681,0.15225347501595315,-6.067501317870321,-7.984296728907139
1621785543711.545,0.14,0.019,0.651,-0.0684087340121522,-6.161190300474433,-8.032373969980302
1621785543712.518,0.14520670240079278,0.013434214675014638,0.6431001756677628,-0.108,-6.178,-8.041
1621785543716.965,0.169,-0.012,0.607,-0.39955591063230017,-6.237988836015015,-8.011259771975608
1621785543722.38,0.197,-0.037,0.559,-0.754561046065393,-6.311032612791136,-7.975047391116259
1621785543727.791,0.215,-0.065,0.513,-1.1093260860464143,-6.3840269889337,-7.938859501248971
1621785543730.013,0.2199312322210683,-0.06541093601842236,0.49491881518941616,-1.255,-6.414,-7.924
1621785543733.198,0.227,-0.066,0.469,-1.319426944599888,-6.462183324006715,-7.941886233911584
1621785543738.601,0.232,-0.056,0.435,-1.4287196558477895,-6.543920649132624,-7.972228119753778
1621785543744.0,0.239,-0.038,0.396,-1.5379284135422497,-6.625595187465025,-8.002546698377168
1621785543747.464,0.2460643161039196,-0.021302525572553632,0.3735226305784376,-1.608,-6.678,-8.022
1621785543749.394,0.25,-0.012,0.361,-1.5754075476460938,-6.667135849215365,-8.011135849215364
1621785543754.784,0.271,0.005,0.328,-1.4843836930455636,-6.636794564348521,-7.980794564348521
1621785543760.17,0.291,0.023,0.291,-1.3934258067230427,-6.606475268907681,-7.950475268907681
1621785543764.873,0.31284622363347697,0.03960312996144251,0.2761445679292357,-1.314,-6.58,-7.924
1621785543765.552,0.316,0.042,0.274,-1.2952324433759332,-6.558534607111223,-7.88450993293686
1621785543770.93,0.333,0.042,0.255,-1.1465766586528323,-6.388509553334177,-7.571713385915334
1621785543776.304,0.34,0.037,0.241,-0.998028849803872,-6.218607996963178,-7.25914403812898
1621785543781.674,0.34,0.024,0.227,-0.8495890168290523,-6.048829937998228,-6.946801889577797
1621785543782.238,0.33947440273037544,0.022002730375426622,0.2262641638225256,-0.834,-6.031,-6.914
1621785543787.039,0.335,0.005,0.22,-0.8611619850319234,-5.865256458682753,-6.598588377894603
1621785543792.401,0.304,-0.005,0.213,-0.8914966667136475,-5.6801529929106,-6.246334625304788
1621785543797.758,0.265,-0.024,0.208,-0.9218051049315725,-5.49520966582571,-5.894385618243576
1621785543799.56,0.24581195840554593,-0.03106927848216729,0.208,-0.932,-5.433,-5.776
1621785543803.111,0.208,-0.045,0.208,-1.0186815537278995,-5.342200557733958,-5.7053782115708565
1621785543808.46,0.147,-0.058,0.206,-1.1492491825092366,-5.205430191243294,-5.599001259855895
1621785543813.784,0.077,-0.077,0.208,-1.2792089378990132,-5.069296575739989,-5.49311955890888
1621785543816.807,0.036080919814568325,-0.08097824390691698,0.208568320558131,-1.353,-4.992,-5.433
1621785543819.103,0.005,-0.084,0.209,-1.3071199937421778,-5.033867177722152,-5.472325719649562
1621785543824.418,-0.063,-0.073,0.22,-1.2009203407668676,-5.130778231311867,-5.563353993628399
1621785543829.729,-0.126,-0.054,0.239,-1.0947987399021504,-5.2276180595062005,-5.654315365798157
1621785543833.973,-0.17319076979708278,-0.038802972438227584,0.26139561956471724,-1.01,-5.305,-5.727
1621785543835.035,-0.185,-0.035,0.267,-0.9990821972505847,-5.353695881581198,-5.768375991101478
1621785543840.337,-0.236,-0.009,0.288,-0.9445760082140209,-5.596805872454509,-5.974942059779819
1621785543845.634,-0.267,0.017,0.309,-0.8901200159717072,-5.839691974217101,-6.181317894016314
1621785543850.927,-0.295,0.049,0.328,-0.8357066910045063,-6.082387770235583,-6.38753202897724
1621785543851.093,-0.29531400073882524,0.04972220169929812,0.3283768008865903,-0.834,-6.09,-6.394
1621785543856.214,-0.305,0.072,0.34,-0.9104879667100427,-6.225278717593056,-6.690953282521343
1621785543861.498,-0.304,0.089,0.353,-0.9894081165720496,-6.364859061074488,-6.997349158456193
1621785543866.777,-0.279,0.087,0.356,-1.0682553374040125,-6.504310420271411,-7.303461898156755
1621785543868.166,-0.2703108858650375,0.0888431454225678,0.3552100805331852,-1.089,-6.541,-7.384
1621785543872.052,-0.246,0.094,0.353,-1.1449220036137322,-6.599204534373476,-7.538527332434681
1621785543877.323,-0.211,0.079,0.353,-1.2207752459345513,-6.678153827401268,-7.748129965296699
1621785543882.589,-0.169,0.066,0.351,-1.2965582212407147,-6.757029985372989,-7.957538431754955
1621785543885.191,-0.14773446563645645,0.06006543227063901,0.345065432270639,-1.334,-6.796,-8.061
1621785543887.85,-0.126,0.054,0.339,-1.3493492278047798,-6.822156337177534,-8.017928187282505
1621785543893.106,-0.068,0.04,0.333,-1.3796869230105548,-6.873854246354721,-7.93279689971528
1621785543898.359,-0.017,0.024,0.326,-1.4100077075724022,-6.925523338414196,-7.847713065485605
1621785543902.169,0.0127713567839196,0.02327386934673367,0.323821608040201,-1.432,-6.963,-7.786
1621785543903.606,0.024,0.023,0.323,-1.459412665455489,-6.932192577212562,-7.734399688554372
1621785543908.851,0.054,0.023,0.321,-1.559469360094587,-6.819744960636733,-7.546057675116071
1621785543914.089,0.068,0.017,0.314,-1.6593909940306253,-6.707449130547625,-7.357969893589411
1621785543919.101,0.07278620721812926,0.018914482887251702,0.31112827566912243,-1.755,-6.6,-7.178
1621785543919.325,0.073,0.019,0.311,-1.7605939690937737,-6.593889052719835,-7.173970221316333
1621785543924.556,0.065,0.012,0.309,-1.8912988565563698,-6.4511048036197,-7.079813145987828
1621785543929.783,0.061,0.007,0.304,-2.0219061393237636,-6.308427179553898,-6.985726383046388
1621785543935.005,0.047,0.0,0.302,-2.1523853159287047,-6.165889500845657,-6.89173190511297
1621785543935.99,0.044356945679127874,-0.0013215271604360642,0.2999233144621719,-2.177,-6.139,-6.874
1621785543940.223,0.033,-0.007,0.291,-2.221482830596182,-6.077427720361217,-6.795338271318616
1621785543945.437,0.016,0.0,0.295,-2.2762769137108814,-6.00158280305556,-6.698442519822001
1621785543950.645,0.0,-0.005,0.297,-2.3310068561654758,-5.925826668019539,-6.601660192204554
1621785543952.833,-0.007146060037523452,-0.0037389305816135088,0.29615928705440897,-2.354,-5.894,-6.561
1621785543955.85,-0.017,-0.002,0.295,-2.2958024418604652,-5.922200668604651,-6.46220784883721
1621785543961.05,-0.035,0.005,0.295,-2.195499011627907,-5.97080449127907,-6.2919396802325585
1621785543966.245,-0.054,0.026,0.305,-2.0952897674418605,-6.019362674418605,-6.1218313953488375
1621785543969.63,-0.06899727212868027,0.04425754867839338,0.30956438716959833,-2.03,-6.051,-6.011
1621785543971.436,-0.077,0.054,0.312,-1.9549503264925372,-6.0573619694496275,-5.998383891091418
1621785543976.622,-0.101,0.084,0.326,-1.7394589552238804,-6.075629197761194,-5.962159048507463
1621785543981.804,-0.119,0.124,0.339,-1.5241400419776119,-6.0938818067863805,-5.925963196711754
1621785543986.38,-0.13402622023107758,0.1549363357698656,0.34783895307710444,-1.334,-6.11,-5.894
1621785543986.981,-0.136,0.159,0.349,-1.3230596971291586,-6.102910395836988,-5.910590393498217
1621785543992.155,-0.152,0.208,0.351,-1.2288851078758114,-6.041882783722154,-6.053401201543589
1621785543997.324,-0.161,0.243,0.353,-1.1348038355844006,-5.980915643454365,-6.196070499327604
1621785544002.487,-0.169,0.283,0.339,-1.0408292112494886,-5.920017613868912,-6.338578071098638
1621785544003.082,-0.16923061272770287,0.28761225455405726,0.33830816181689144,-1.03,-5.913,-6.355
1621785544007.647,-0.171,0.323,0.333,-1.051376346607648,-5.8861425388775706,-6.492027862869539
1621785544012.802,-0.169,0.354,0.309,-1.0755159101235583,-5.855813343690914,-6.646768654638193
1621785544017.952,-0.169,0.391,0.29,-1.0996314655488297,-5.8255143125155735,-6.801355548389934
1621785544019.739,-0.169,0.39689120863513705,0.2834157079960233,-1.108,-5.815,-6.855
1621785544023.109,-0.169,0.408,0.271,-1.1456296480865347,-5.823092397437965,-6.920346109311563
1621785544028.266,-0.175,0.433,0.251,-1.2032177583654566,-5.835476937282894,-7.020351268559368
1621785544033.418,-0.185,0.44,0.23,-1.2607458923886439,-5.847848579008311,-7.120252275492107
1621785544036.396,-0.19830522621644692,0.44,0.22537209522906193,-1.294,-5.855,-7.178
1621785544038.566,-0.208,0.44,0.222,-1.2864247402683282,-5.894704809628073,-7.235728703472396
1621785544043.71,-0.232,0.426,0.22,-1.268466738181658,-5.988829510220276,-7.3725810642018486
1621785544048.849,-0.255,0.398,0.22,-1.2505257821339877,-6.08286486605634,-7.509303522358231
1621785544053.01,-0.2720170692278433,0.36801754469379994,0.2183793267402054,-1.236,-6.159,-7.62
1621785544053.984,-0.276,0.361,0.218,-1.253280357169169,-6.1883883625326,-7.647096070255058
1621785544059.115,-0.286,0.293,0.211,-1.3443260494791283,-6.343227975304639,-7.789858193230878
1621785544064.241,-0.276,0.223,0.208,-1.4352807697408165,-6.497912873708872,-7.93247766955958
1621785544069.365,-0.25,0.157,0.192,-1.526200833984116,-6.65253883330632,-8.075042804308426
1621785544069.579,-0.2479915072283983,0.15344329405028867,0.19128865881005774,-1.53,-6.659,-8.081
1621785544074.482,-0.202,0.072,0.175,-1.6376933963657851,-6.722785344954941,-8.188693396365785
1621785544079.595,-0.138,0.009,0.148,-1.7500040626384992,-6.789305436548973,-8.3010040626385
1621785544084.704,-0.065,-0.044,0.122,-1.8622289259861131,-6.855774708228689,-8.413228925986115
1621785544086.105,-0.042502342928182085,-0.057443721908769244,0.11541531988141915,-1.893,-6.874,-8.444
1621785544089.81,0.017,-0.093,0.098,-2.014165219967412,-6.752834780032588,-8.384428973485411
1621785544094.91,0.087,-0.133,0.065,-2.1809430454747445,-6.586056954525255,-8.302432454451193
1621785544100.006,0.143,-0.175,0.031,-2.3476011109465262,-6.419398889053474,-8.220494815582876
1621785544102.587,0.16073997890295358,-0.19578111814345991,0.0137668776371308,-2.432,-6.335,-8.179
1621785544105.098,0.178,-0.216,-0.003,-2.4200815629178427,-6.243625315703461,-8.04117397117813
1621785544110.185,0.199,-0.241,-0.035,-2.395935284504531,-6.0585038478680735,-7.761943931065221
1621785544115.268,0.201,-0.26,-0.061,-2.3718087059872235,-5.873533412568712,-7.482941702570198
1621785544119.02,0.18770012981393336,-0.27551651521707776,-0.07134434347805182,-2.354,-5.737,-7.277
1621785544120.346,0.183,-0.281,-0.075,-2.3231420454545457,-5.718791389746024,-7.202715315689533
1621785544125.443,0.161,-0.291,-0.087,-2.2045170454545455,-5.648793347970567,-6.9171480833135535
1621785544130.537,0.122,-0.312,-0.103,-2.085965909090909,-5.578838891526228,-6.6317586636601
1621785544135.477,0.08122913068508925,-0.3139414699673767,-0.11270734983688352,-1.971,-5.511,-6.355
1621785544135.626,0.08,-0.314,-0.113,-1.9661107839638354,-5.511362836069474,-6.352242445871997
1621785544140.711,0.042,-0.316,-0.115,-1.7991721092077089,-5.5237516059957175,-6.258087794432549
1621785544145.792,-0.003,-0.298,-0.119,-1.6323616761836783,-5.536130858910302,-6.164005472281704
1621785544150.868,-0.04,-0.276,-0.117,-1.465719560433024,-5.548497620747086,-6.070018082322151
1621785544151.895,-0.04810012033694344,-0.2721524428399519,-0.117,-1.432,-5.551,-6.051
1621785544155.94,-0.08,-0.257,-0.117,-1.327764565567416,-5.606575764804103,-6.14535529846741
1621785544161.008,-0.099,-0.227,-0.117,-1.19716199534856,-5.676209836603256,-6.263578478144194
1621785544166.072,-0.12,-0.19,-0.127,-1.0666663784364006,-5.745786883535095,-6.381704842268471
1621785544168.271,-0.12564838398456343,-0.17566179450072358,-0.12656550892426435,-1.01,-5.776,-6.433
1621785544171.133,-0.133,-0.157,-0.126,-0.9085529832008131,-5.839601497578765,-6.573869432653793
1621785544176.189,-0.134,-0.131,-0.133,-0.7293440545226282,-5.951955281879596,-6.8227191367250555
1621785544181.24,-0.127,-0.119,-0.134,-0.5503081993184672,-6.064200558976506,-7.071328510790937
1621785544184.606,-0.1129976302171495,-0.10833152778449484,-0.13800067708081445,-0.431,-6.139,-7.237
1621785544186.288,-0.106,-0.103,-0.14,-0.37534555209207526,-6.173383916796547,-7.291725152859369
1621785544191.331,-0.072,-0.099,-0.141,-0.20849529432921712,-6.276465801462654,-7.45578941373936
1621785544196.37,-0.04,-0.089,-0.143,-0.04177427766454861,-6.37946783958758,-7.6197265915357875
1621785544200.897,-0.005841082076889513,-0.09259567557085374,-0.13850540553643284,0.108,-6.472,-7.767
1621785544201.406,-0.002,-0.093,-0.138,0.11536361587015329,-6.470777953110911,-7.764242560865645
1621785544206.437,0.038,-0.08,-0.141,0.18814156898106404,-6.458699909828675,-7.73698954012624
1621785544211.464,0.077,-0.073,-0.136,0.2608630147279832,-6.446631244364292,-7.709757679591224
1621785544216.487,0.112,-0.07,-0.136,0.3335244214006613,-6.434572542831379,-7.68254830177337
1621785544217.142,0.11604675716440423,-0.06882513501678587,-0.13560837833892864,0.343,-6.433,-7.679
1621785544221.505,0.143,-0.061,-0.133,0.30620890251416377,-6.359417805028327,-7.581517019070375
1621785544226.52,0.164,-0.056,-0.129,0.2639166403678824,-6.2748332807357645,-7.4694579595149
1621785544231.561,0.178,-0.045,-0.122,0.22140614339599957,-6.189812286791999,-7.356820657319327
1621785544233.388,0.1794501937984496,-0.04137451550387597,-0.11837451550387597,0.206,-6.159,-7.316
1621785544236.6,0.182,-0.035,-0.112,0.12857451248254842,-6.095005464398841,-7.24627755843454
1621785544241.634,0.176,-0.024,-0.105,0.007237115878281991,-5.994716391695315,-7.137011994655698
1621785544246.664,0.169,-0.016,-0.105,-0.11400612493056914,-5.894505141639019,-7.027831219131401
1621785544249.651,0.16008568930341008,-0.013622850480909356,-0.10143427572136403,-0.186,-5.835,-6.963
1621785544251.69,0.154,-0.012,-0.099,-0.2267279732699196,-5.806590981608019,-6.949424008910027
1621785544256.713,0.134,-0.009,-0.094,-0.3270557177688811,-5.736609283284669,-6.915981427410373
1621785544261.731,0.113,-0.012,-0.094,-0.42728593359621925,-5.666695614219921,-6.8825713554679275
1621785544265.872,0.09483409599844221,-0.006219939635867978,-0.09152283127251484,-0.51,-5.609,-6.855
1621785544266.746,0.091,-0.005,-0.091,-0.5142129720432703,-5.609,-6.867152803970972
1621785544271.758,0.066,-0.012,-0.089,-0.538371660053409,-5.609,-6.936841327077142
1621785544276.765,0.049,-0.01,-0.084,-0.5625056350990479,-5.609,-7.006458562785715
1621785544281.768,0.028,-0.017,-0.086,-0.5866219580271872,-5.609,-7.076024878924579
1621785544282.054,0.027370922055088884,-0.01711437780816566,-0.086,-0.588,-5.609,-7.08
1621785544286.767,0.017,-0.019,-0.086,-0.5938395595753048,-5.674987023200944,-7.197375147463625
1621785544291.763,0.017,-0.021,-0.091,-0.6000294019782813,-5.7449322423545786,-7.3217909797634535
1621785544296.754,0.017,-0.019,-0.096,-0.6062131945914879,-5.8148090988838135,-7.446085211288908
1621785544298.196,0.021046880352336678,-0.02044531441154881,-0.09744531441154881,-0.608,-5.835,-7.482
1621785544301.743,0.031,-0.024,-0.101,-0.5626261560386913,-5.895571879074563,-7.553364686618758
1621785544306.727,0.049,-0.031,-0.099,-0.498866035962279,-5.980688544225113,-7.653647593923406
1621785544311.707,0.07,-0.03,-0.106,-0.4351590102792686,-6.06573433093787,-7.7538469935413445
1621785544314.299,0.08198071828083603,-0.030520900794818957,-0.10547909920518103,-0.402,-6.11,-7.806
1621785544316.683,0.093,-0.031,-0.105,-0.38169577161243323,-6.12585804698883,-7.803035879067508
1621785544321.655,0.129,-0.031,-0.11,-0.3393511109762021,-6.158930154201069,-7.796854176784847
1621785544326.624,0.155,-0.035,-0.106,-0.2970314017727052,-6.19198277379796,-7.79067611704711
1621785544330.385,0.17907501465129907,-0.03650468841570619,-0.106,-0.265,-6.217,-7.786
1621785544331.623,0.187,-0.037,-0.106,-0.2589368728527538,-6.211013621297655,-7.767196630999046
1621785544336.617,0.209,-0.031,-0.106,-0.23447990858595796,-6.1868662388570215,-7.691349083589363
1621785544341.607,0.23,-0.035,-0.105,-0.2100420746749807,-6.162737744615804,-7.615560864498358
1621785544346.516,0.247718901453958,-0.03696876682821755,-0.10303123317178244,-0.186,-6.139,-7.541
1621785544346.594,0.248,-0.037,-0.103,-0.18647429906542057,-6.138288551401869,-7.539722296395194
1621785544351.578,0.251,-0.033,-0.106,-0.21682646559048427,-6.092760301614274,-7.457957276368492
1621785544356.558,0.251,-0.028,-0.099,-0.24715632965165674,-6.047265505522515,-7.376252336448598
1621785544361.534,0.255,-0.028,-0.098,-0.2774594307561597,-6.00181085386576,-7.294619492656876
1621785544362.608,0.25240854197349044,-0.028647864506627395,-0.098,-0.284,-5.992,-7.277
1621785544366.507,0.243,-0.031,-0.098,-0.3197026825633383,-5.972812844064601,-7.219681407585389
1621785544371.477,0.234,-0.035,-0.099,-0.3652101341281669,-5.94835645852976,-7.1466218254813105
1621785544376.442,0.22,-0.038,-0.101,-0.4106706408345753,-5.923925301864412,-7.073637610632927
1621785544378.662,0.2128411316113161,-0.03889485854858549,-0.10278971709717097,-0.431,-5.913,-7.041
1621785544381.404,0.204,-0.04,-0.105,-0.43784723132497066,-5.9097475651206395,-7.012412809218247
1621785544386.362,0.18,-0.04,-0.101,-0.4502284595101282,-5.903866481732689,-6.960721181545215
1621785544391.317,0.161,-0.047,-0.099,-0.46260176195339053,-5.89798916307214,-6.909062643844594
1621785544394.68,0.14673875961348848,-0.05175374679550385,-0.09832089331492802,-0.471,-5.894,-6.874
1621785544396.269,0.14,-0.054,-0.098,-0.4690110007639419,-5.897878548510313,-6.875988999236058
1621785544401.217,0.122,-0.054,-0.098,-0.46281787624140563,-5.909955141329259,-6.882182123758594
1621785544406.161,0.101,-0.052,-0.099,-0.4566299465240642,-5.922021604278075,-6.888370053475936
1621785544410.659,0.09826849518161601,-0.05837351124289597,-0.099,-0.451,-5.933,-6.894
1621785544411.101,0.098,-0.059,-0.099,-0.44964086933880626,-5.936800018379256,-6.894
1621785544416.038,0.08,-0.063,-0.103,-0.4344645356940467,-5.979231808365625,-6.894
1621785544420.971,0.07,-0.068,-0.106,-0.41930096031612324,-6.021627927279411,-6.894
1621785544425.902,0.065,-0.077,-0.108,-0.40414263834219116,-6.064009358104486,-6.894
1621785544426.599,0.06401566270994434,-0.07545318425848396,-0.10771876077426981,-0.402,-6.07,-6.894
1621785544430.859,0.058,-0.066,-0.106,-0.34988228660255727,-6.119724553088377,-6.909688495359434
1621785544435.817,0.063,-0.079,-0.099,-0.28922166511727143,-6.177599737872807,-6.927948580398373
1621785544440.772,0.066,-0.075,-0.099,-0.22859688800158495,-6.23544072420257,-6.946197875550544
1621785544442.619,0.06823772431473082,-0.07238932163281404,-0.09974590810491028,-0.206,-6.257,-6.953
1621785544445.724,0.072,-0.068,-0.101,-0.1869639426380977,-6.249230180668611,-6.9739785121947495
1621785544450.672,0.082,-0.072,-0.094,-0.15663107255761388,-6.236849417370454,-7.0074065730997726
1621785544455.618,0.086,-0.063,-0.094,-0.12631167244460056,-6.224474152018204,-7.040819789550849
1621785544458.605,0.08660428705487232,-0.06058285178051069,-0.08795712945127673,-0.108,-6.217,-7.061
1621785544460.561,0.087,-0.059,-0.084,-0.10554740950485957,-6.207434897068952,-7.061
1621785544465.499,0.091,-0.052,-0.082,-0.09935593479758169,-6.183288145710568,-7.061
1621785544470.434,0.087,-0.049,-0.077,-0.093168133465983,-6.159155720517334,-7.061
1621785544474.556,0.087,-0.04147824365130439,-0.07532849858917876,-0.088,-6.139,-7.061
1621785544475.366,0.087,-0.04,-0.075,-0.09202076941956068,-6.138491041845626,-7.061
1621785544480.295,0.087,-0.035,-0.07,-0.11648590317830408,-6.135394189471101,-7.061
1621785544485.22,0.087,-0.028,-0.068,-0.14093164805497607,-6.132299791385446,-7.061
1621785544490.142,0.087,-0.03,-0.068,-0.16536285127009448,-6.129207234016444,-7.061
1621785544490.472,0.0867988785232235,-0.02973183803096467,-0.06786591901548233,-0.167,-6.129,-7.061
1621785544495.062,0.084,-0.026,-0.066,-0.1953230289148848,-6.143161514457442,-7.024006656111171
1621785544499.977,0.082,-0.023,-0.066,-0.22565116136073665,-6.158325580680368,-6.984394401488017
1621785544504.889,0.08,-0.021,-0.068,-0.25595970977510646,-6.173479854887553,-6.944807726008024
1621785544506.354,0.07910468470260593,-0.017717177242888404,-0.068,-0.265,-6.178,-6.933
1621785544509.798,0.077,-0.01,-0.068,-0.2565256307569083,-6.167352715566372,-6.924525630756908
1621785544514.704,0.075,-0.014,-0.063,-0.24445414497396878,-6.152185977018576,-6.912454144973969
1621785544519.607,0.072,-0.016,-0.063,-0.23239046856227474,-6.137029050244909,-6.900390468562275
1621785544522.204,0.06722888324114216,-0.007518014650919421,-0.06087950366272985,-0.226,-6.129,-6.894
1621785544524.506,0.063,0.0,-0.059,-0.226,-6.123396906902331,-6.891126618924273
1621785544529.568,0.052,0.0,-0.056,-0.226,-6.11107592564376,-6.8848081669968
1621785544534.483,0.04,0.002,-0.052,-0.226,-6.0991132713698,-6.878673472497334
1621785544538.227,0.030853280318091453,0.004286679920477137,-0.052,-0.226,-6.09,-6.874
1621785544539.395,0.028,0.005,-0.052,-0.23027234933637175,-6.092872786622732,-6.875473223909093
1621785544544.304,0.014,0.005,-0.045,-0.24822889785360144,-6.104947017522249,-6.881665137190897
1621785544549.21,0.002,0.01,-0.045,-0.26617472977550577,-6.117014042435254,-6.887853355095002
1621785544554.083,-0.011914255838271175,0.007018373748941891,-0.045,-0.284,-6.129,-6.894
1621785544554.113,-0.012,0.007,-0.045,-0.284,-6.12909298199602,-6.894166988074485
1621785544559.013,-0.024,0.012,-0.044,-0.284,-6.144264922322158,-6.921414554374489
1621785544563.909,-0.035,0.007,-0.044,-0.284,-6.159424767429303,-6.9486403986485445
1621785544568.802,-0.04,0.005,-0.042,-0.284,-6.174575541122202,-6.975849951403138
1621785544569.908,-0.04,0.005,-0.04154776879305182,-0.284,-6.178,-6.982
1621785544573.693,-0.04,0.005,-0.04,-0.30293772032902466,-6.201492361927144,-7.0054923619271445
1621785544578.579,-0.042,0.0,-0.037,-0.32738306326921884,-6.2318169645618156,-7.035816964561816
1621785544583.464,-0.035,0.0,-0.04,-0.3518235203166553,-6.262135506215597,-7.0661355062155975
1621785544585.698,-0.030880852340936377,-0.0009153661464585835,-0.04091536614645858,-0.363,-6.276,-7.08
1621785544588.345,-0.026,-0.002,-0.042,-0.36955237711522965,-6.285912570507655,-7.08
1621785544593.222,-0.023,-0.002,-0.047,-0.3816248992747784,-6.304176129672101,-7.08
1621785544598.096,-0.01,-0.01,-0.049,-0.3936901692183723,-6.3224287175354865,-7.08
1621785544601.453,-0.005176889156143516,-0.017579174183203046,-0.049,-0.402,-6.335,-7.08
1621785544602.968,-0.003,-0.021,-0.049,-0.402,-6.336927269339461,-7.06872547436415
1621785544607.835,0.003,-0.023,-0.052,-0.402,-6.343118070867365,-7.032509285425919
1621785544612.7,0.009,-0.021,-0.052,-0.402,-6.349306388000373,-6.99630763019782
1621785544617.176,0.016363421858527037,-0.025602138661579395,-0.051079572267684115,-0.402,-6.355,-6.963
1621785544617.563,0.017,-0.026,-0.051,-0.402,-6.354506706918553,-6.961298138869005
1621785544622.421,0.017,-0.024,-0.056,-0.402,-6.3483139335843894,-6.939933070866142
1621785544627.277,0.024,-0.026,-0.056,-0.402,-6.342123338831658,-6.91857551896922
1621785544632.129,0.023,-0.024,-0.059,-0.402,-6.335938346145467,-6.897237294201862
1621785544632.865,0.02345530051344005,-0.024607067351253398,-0.06006236786469345,-0.402,-6.335,-6.894
1621785544636.979,0.026,-0.028,-0.066,-0.3815047948729944,-6.3194972166347005,-6.878497216634701
1621785544641.825,0.019,-0.037,-0.063,-0.3573632408663517,-6.301236297578394,-6.860236297578394
1621785544646.667,0.023,-0.037,-0.065,-0.3332411470271788,-6.282990098392353,-6.841990098392353
1621785544648.522,0.019550718789407312,-0.037,-0.065,-0.324,-6.276,-6.835
1621785544651.507,0.014,-0.037,-0.065,-0.3276303444180523,-6.279821415176897,-6.835
1621785544656.343,0.01,-0.037,-0.063,-0.3335115795724466,-6.286012189023628,-6.835
1621785544661.177,-0.003,-0.042,-0.065,-0.33939043942992875,-6.29220046255782,-6.835
1621785544664.145,-0.009759350990699554,-0.04077102709260008,-0.06684345936109988,-0.343,-6.296,-6.835
1621785544666.007,-0.014,-0.04,-0.068,-0.3500468860109307,-6.305316222183943,-6.83738877491896
1621785544670.834,-0.017,-0.04,-0.065,-0.3683140924252627,-6.329466088291025,-6.84358104827975
1621785544675.658,-0.021,-0.044,-0.065,-0.38657021156646887,-6.353601296647196,-6.849769563242871
1621785544679.735,-0.022691396161442244,-0.04484569808072112,-0.059925811515673263,-0.402,-6.374,-6.855
1621785544680.479,-0.023,-0.045,-0.059,-0.3991785708680572,-6.375912833309791,-6.85968644160899
1621785544685.296,-0.017,-0.042,-0.061,-0.38090919220930053,-6.388298852739457,-6.890032189211671
1621785544690.111,-0.014,-0.042,-0.061,-0.36264629533719417,-6.400680477737495,-6.920367170456864
1621785544694.922,-0.007,-0.049,-0.061,-0.344399139946953,-6.413051430544439,-6.950676004833875
1621785544695.291,-0.006616439051632228,-0.04938356094836777,-0.06115342437934711,-0.343,-6.414,-6.953
1621785544699.731,-0.002,-0.054,-0.063,-0.3375662211039472,-6.391406919326938,-6.947280232740997
1621785544704.536,-0.002,-0.063,-0.063,-0.33168575247680454,-6.3669565497719764,-6.941090265765057
1621785544709.337,0.003,-0.065,-0.063,-0.3258100644755465,-6.34252605755622,-6.934905331026891
1621785544710.816,0.0011508877244747417,-0.06592455613776263,-0.06454092689627106,-0.324,-6.335,-6.933
1621785544714.136,-0.003,-0.068,-0.068,-0.3113575412832472,-6.3433568794907345,-6.9079293615277955
1621785544718.931,-0.005,-0.066,-0.065,-0.29309900100844577,-6.355426084079163,-6.8717217477625105
1621785544723.724,-0.009,-0.065,-0.063,-0.27484696836001515,-6.367490987016261,-6.835527038951216
1621785544726.31,-0.009,-0.06553988480554565,-0.06084046077781742,-0.265,-6.374,-6.816
1621785544728.514,-0.009,-0.066,-0.059,-0.25944080027791816,-6.379701743304699,-6.824267527791814
1621785544733.3,-0.01,-0.07,-0.058,-0.24736784676604345,-6.392084259727135,-6.842222176604345
1621785544738.082,0.0,-0.063,-0.059,-0.2353053625568469,-6.404456038403234,-6.860161255684689
1621785544741.771,-0.0023152357117319578,-0.0575977833392921,-0.06054349047448797,-0.226,-6.414,-6.874
1621785544742.862,-0.003,-0.056,-0.061,-0.22458560283575713,-6.414,-6.875414397164243
1621785544747.638,0.005,-0.054,-0.058,-0.21839441077334515,-6.414,-6.8816055892266546
1621785544752.412,0.01,-0.052,-0.059,-0.21220543414618706,-6.414,-6.887794565853813
1621785544757.183,0.012,-0.051,-0.052,-0.20602057189878625,-6.414,-6.893979428101214
1621785544757.199,0.012029961587708067,-0.05100332906530089,-0.052013316261203583,-0.206,-6.414,-6.894
1621785544761.95,0.021,-0.052,-0.056,-0.21217209553109834,-6.395792318183259,-6.8637567318976185
1621785544766.714,0.021,-0.052,-0.056,-0.21836131815154303,-6.377534111452948,-6.8334295410574395
1621785544771.474,0.017,-0.051,-0.052,-0.22454514891052682,-6.3592918107139464,-6.803128770338419
1621785544772.594,0.014646243842364532,-0.051,-0.05176462438423645,-0.226,-6.355,-6.796
1621785544776.232,0.007,-0.051,-0.051,-0.226,-6.345527470082482,-6.777528566660839
1621785544780.986,0.0,-0.047,-0.047,-0.226,-6.333148530743926,-6.753389634950654
1621785544785.738,-0.01,-0.054,-0.042,-0.226,-6.3207753126837565,-6.729261859733325
1621785544787.956,-0.013269329631914456,-0.04932952909726506,-0.042934094180546986,-0.226,-6.315,-6.718
1621785544790.487,-0.017,-0.044,-0.044,-0.226,-6.318302486341844,-6.714697513658156
1621785544795.231,-0.024,-0.042,-0.04,-0.226,-6.324492378510106,-6.708507621489894
1621785544799.973,-0.035,-0.042,-0.042,-0.226,-6.3306797222177975,-6.702320277782203
1621785544803.284,-0.03849338004224409,-0.043397352016897636,-0.042,-0.226,-6.335,-6.698
1621785544804.712,-0.04,-0.044,-0.042,-0.226,-6.335,-6.705281726333935
1621785544809.448,-0.052,-0.037,-0.037,-0.226,-6.335,-6.7294325571002185
1621785544814.18,-0.058,-0.038,-0.038,-0.226,-6.335,-6.75356222367644
1621785544818.58,-0.058,-0.03986091894682499,-0.03706954052658751,-0.226,-6.335,-6.776
1621785544818.909,-0.058,-0.04,-0.037,-0.22684035320653304,-6.335840353206533,-6.776430950362324
1621785544823.635,-0.066,-0.037,-0.037,-0.2389172332154912,-6.347917233215491,-6.7826242221617905
1621785544828.358,-0.065,-0.03,-0.03,-0.25098600291139445,-6.359986002911394,-6.788813334826356
1621785544833.078,-0.065,-0.035,-0.035,-0.2630472861644778,-6.372047286164477,-6.794998608289476
1621785544833.842,-0.06467593311590827,-0.03581016721022934,-0.03386576590567894,-0.265,-6.374,-6.796
1621785544837.794,-0.063,-0.04,-0.028,-0.2699301561347825,-6.379189638036613,-6.816239588342791
1621785544842.509,-0.066,-0.042,-0.026,-0.27581241383732485,-6.385381488249815,-6.840387804174281
1621785544847.219,-0.063,-0.037,-0.028,-0.28168827546407615,-6.39156660575166,-6.86450976243147
1621785544849.072,-0.063,-0.037,-0.026031639004149378,-0.284,-6.394,-6.874
1621785544851.926,-0.063,-0.037,-0.023,-0.27667532091962144,-6.397756245682245,-6.877756245682245
1621785544856.63,-0.056,-0.04,-0.026,-0.2646030718313706,-6.403947142650579,-6.883947142650579
1621785544861.331,-0.051,-0.035,-0.026,-0.25253771508442713,-6.410134505084909,-6.890134505084909
1621785544864.268,-0.047248245750818645,-0.035,-0.02162295337595509,-0.245,-6.414,-6.894
1621785544866.028,-0.045,-0.035,-0.019,-0.23815208256186504,-6.411678672054869,-6.896321327945131
1621785544870.724,-0.04,-0.031,-0.017,-0.21988052035871264,-6.4054849221554955,-6.902515077844504
1621785544875.415,-0.042,-0.03,-0.017,-0.20162890631289143,-6.399297934343353,-6.908702065656647
1621785544879.432,-0.037715810853036144,-0.0240021351942506,-0.01614316217060723,-0.186,-6.394,-6.914
1621785544880.103,-0.037,-0.023,-0.016,-0.186,-6.393112953969765,-6.913112953969764
1621785544884.788,-0.035,-0.024,-0.014,-0.186,-6.386920733773253,-6.906920733773253
1621785544889.47,-0.037,-0.014,-0.01,-0.186,-6.380732708410642,-6.900732708410642
1621785544894.149,-0.035,-0.019,-0.014,-0.186,-6.3745485552024,-6.894548555202401
1621785544894.564,-0.035,-0.01811241058841957,-0.013822482117683913,-0.186,-6.374,-6.894
1621785544898.825,-0.035,-0.009,-0.012,-0.18063783512823,-6.362993451052683,-6.888355615924453
1621785544903.497,-0.037,-0.005,-0.005,-0.17475828724814851,-6.350924905404094,-6.882166618155946
1621785544908.166,-0.037,-0.005,-0.003,-0.1688827334174186,-6.338864558067333,-6.875981824649914
1621785544909.662,-0.037961908748430306,-0.003396818752616157,-0.003,-0.167,-6.335,-6.874
1621785544912.832,-0.04,0.0,-0.003,-0.17941461122095098,-6.330791657213237,-6.8864146112209506
1621785544917.495,-0.037,0.0,0.003,-0.1976770168217029,-6.32460101124688,-6.904677016821703
1621785544922.156,-0.037,0.003,0.0,-0.21593081710044404,-6.318413282338833,-6.922930817100444
1621785544924.727,-0.03368680195060563,0.006313198049394368,0.00386539772429343,-0.226,-6.315,-6.933
1621785544926.812,-0.031,0.009,0.007,-0.22863498920086395,-6.315,-6.937160509264522
1621785544931.466,-0.038,0.014,0.002,-0.23451681579759334,-6.315,-6.946447603890936
1621785544936.116,-0.031,0.019,0.009,-0.2403933970996606,-6.315,-6.955726416473149
1621785544939.761,-0.0325687716717453,0.020568771671745298,0.009,-0.245,-6.315,-6.963
1621785544940.763,-0.033,0.021,0.009,-0.2423950914653994,-6.313730941995964,-6.964269058004036
1621785544945.407,-0.033,0.023,0.009,-0.23032136579649762,-6.307848870516243,-6.9701511294837575
1621785544950.048,-0.033,0.024,0.016,-0.21825525681921748,-6.301970509732439,-6.976029490267561
1621785544954.687,-0.035,0.028,0.019,-0.2061948603606536,-6.2960949319705755,-6.981905068029425
1621785544954.762,-0.034967651862388704,0.028194088825667773,0.01908087034402824,-0.206,-6.296,-6.982
1621785544959.321,-0.033,0.04,0.024,-0.206,-6.296,-6.982
1621785544963.952,-0.031,0.044,0.026,-0.206,-6.296,-6.982
1621785544968.581,-0.028,0.044,0.03,-0.206,-6.296,-6.982
1621785544969.729,-0.026759235803251003,0.04598522271479839,0.030744458518049397,-0.206,-6.296,-6.982
1621785544973.207,-0.023,0.052,0.033,-0.19691721432074547,-6.300424946869381,-6.97757505313062
1621785544977.828,-0.019,0.058,0.038,-0.18484997547817558,-6.306303858100376,-6.971696141899624
1621785544982.447,-0.016,0.058,0.042,-0.17278719960765082,-6.31218059506294,-6.9658194049370605
1621785544984.663,-0.01503962334021055,0.05511887002063165,0.04440094164947363,-0.167,-6.315,-6.963
1621785544987.062,-0.014,0.052,0.047,-0.17955657131622924,-6.315,-6.955111897506471
1621785544991.675,-0.016,0.068,0.052,-0.2037023493561388,-6.315,-6.939943395917298
1621785544996.284,-0.012,0.066,0.059,-0.22782640322422099,-6.315,-6.924788541564271
1621785544999.565,-0.014849358634580728,0.07241105692780664,0.05828766034135482,-0.245,-6.315,-6.914
1621785545000.89,-0.016,0.075,0.058,-0.2484757040807948,-6.311524295919206,-6.906959471220953
1621785545005.493,-0.009,0.08,0.056,-0.2605506856063716,-6.2994493143936285,-6.882499893258888
1621785545010.094,-0.014,0.087,0.059,-0.27262054355858445,-6.287379456441416,-6.858050693817226
1621785545014.432,-0.014,0.0860561487383798,0.06277540504648074,-0.284,-6.276,-6.835
1621785545014.69,-0.014,0.086,0.063,-0.28434792054113656,-6.276,-6.83466947548592
1621785545019.284,-0.017,0.089,0.068,-0.29054169615378284,-6.276,-6.828785388653906
1621785545023.874,-0.023,0.096,0.066,-0.29673020523032867,-6.276,-6.822906305031188
1621785545028.462,-0.028,0.101,0.07,-0.30291575188031794,-6.276,-6.817030035713698
1621785545029.266,-0.029578930549637835,0.10292980400511291,0.0708771836386877,-0.304,-6.276,-6.816
1621785545033.046,-0.037,0.112,0.075,-0.304,-6.271147509072913,-6.820852490927087
1621785545037.627,-0.033,0.112,0.075,-0.304,-6.2652663477400194,-6.82673365225998
1621785545042.205,-0.037,0.112,0.08,-0.304,-6.259388947542065,-6.832611052457935
1621785545044.066,-0.03740674529057047,0.11891466993969796,0.08162698116228187,-0.304,-6.257,-6.835
1621785545046.78,-0.038,0.129,0.084,-0.30032435113241857,-6.260491866424202,-6.838675648867581
1621785545051.351,-0.049,0.119,0.082,-0.294133906430815,-6.266372788890726,-6.844866093569185
1621785545055.92,-0.049,0.12,0.086,-0.28794643742767395,-6.272250884443709,-6.851053562572327
1621785545058.834,-0.04772335419006364,0.12382993742980908,0.08663832290496817,-0.284,-6.276,-6.855
1621785545060.485,-0.047,0.126,0.087,-0.2906111672603761,-6.271629906387209,-6.8593700936127915
1621785545065.047,-0.049,0.136,0.091,-0.30887765719493,-6.259555446938944,-6.871444553061056
1621785545069.606,-0.051,0.136,0.099,-0.3271314389859995,-6.2474893877889155,-6.883510612211085
1621785545073.569,-0.057090529023958836,0.13774015114970253,0.09812992442514874,-0.343,-6.237,-6.894
1621785545074.161,-0.058,0.138,0.098,-0.34456966144752355,-6.2361950454115265,-6.8955696614475235
1621785545078.715,-0.061,0.131,0.103,-0.35664906105235195,-6.230000481511614,-6.907649061052352
1621785545083.264,-0.058,0.134,0.108,-0.36871421455493386,-6.223813223305162,-6.919714214554934
1621785545087.81,-0.059,0.131,0.105,-0.3807722450063925,-6.217629617945439,-6.9317722450063926
1621785545088.273,-0.05849054170249355,0.13079621668099742,0.10581513327601032,-0.382,-6.217,-6.933
1621785545092.353,-0.054,0.129,0.113,-0.40119033433739953,-6.211715705037528,-6.938562415749971
1621785545096.893,-0.061,0.131,0.105,-0.42254405964486014,-6.205835693720981,-6.944751901346336
1621785545101.43,-0.056,0.131,0.108,-0.4438828570953086,-6.199959792973756,-6.950937060027626
1621785545102.943,-0.057001184578936034,0.13333609735085075,0.10699881542106396,-0.451,-6.198,-6.953
1621785545105.964,-0.059,0.138,0.105,-0.4429500575489166,-6.198,-6.958985854643114
1621785545110.494,-0.061,0.131,0.11,-0.4308796977430816,-6.198,-6.96796125039617
1621785545115.022,-0.056,0.129,0.105,-0.4188138918080368,-6.198,-6.9769332599376135
1621785545117.579,-0.05713049109552078,0.12730426335671885,0.10952196438208311,-0.412,-6.198,-6.982
1621785545119.546,-0.058,0.126,0.113,-0.412,-6.203251980876601,-6.984693323526462
1621785545124.067,-0.059,0.127,0.11,-0.412,-6.215324496004815,-6.990884356925545
1621785545128.584,-0.063,0.129,0.113,-0.412,-6.227386580187891,-6.9970700411219955
1621785545132.184,-0.063,0.13218866904530222,0.10901416369337226,-0.412,-6.237,-7.002
1621785545133.1,-0.063,0.133,0.108,-0.41319454405308487,-6.237,-7.004451958845806
1621785545137.611,-0.056,0.136,0.113,-0.41907716411407886,-6.237,-7.016526810549951
1621785545142.12,-0.056,0.129,0.117,-0.4249572371728275,-6.237,-7.0285964341968565
1621785545146.625,-0.056,0.127,0.119,-0.4308318978518047,-6.237,-7.040654948222126
1621785545146.754,-0.05594273318872017,0.1271718004338395,0.11888546637744034,-0.431,-6.237,-7.041
1621785545151.127,-0.054,0.133,0.115,-0.45476474539836087,-6.225268037081822,-7.0232516458417305
1621785545155.626,-0.058,0.124,0.12,-0.47921409377939006,-6.21319810560258,-7.004992005911595
1621785545160.122,-0.059,0.129,0.122,-0.5036475211608222,-6.201136033857316,-6.9867442563482465
1621785545161.291,-0.06134157474324838,0.1271787751996957,0.12121947508558387,-0.51,-6.198,-6.982
1621785545164.615,-0.068,0.122,0.119,-0.5189373358917391,-6.193416750824749,-6.970771039520636
1621785545169.104,-0.075,0.133,0.115,-0.5310071702686326,-6.187227092169932,-6.955606375816333
1621785545173.59,-0.077,0.131,0.117,-0.5430691274490003,-6.181041473103077,-6.940451609102538
1621785545175.796,-0.07847582489382554,0.13001611673744964,0.117,-0.549,-6.178,-6.933
1621785545178.074,-0.08,0.129,0.117,-0.552148004453291,-6.178,-6.936148004453291
1621785545182.554,-0.08,0.133,0.113,-0.5583387537532472,-6.178,-6.942338753753247
1621785545187.031,-0.086,0.131,0.11,-0.5645254546067946,-6.178,-6.948525454606795
1621785545190.269,-0.08672392336662846,0.1346196168331423,0.10855215326674308,-0.569,-6.178,-6.953
1621785545191.504,-0.087,0.136,0.108,-0.5723353961651617,-6.178,-6.9538552297859395
1621785545195.975,-0.089,0.138,0.106,-0.5844121943796287,-6.178,-6.956951844712726
1621785545200.442,-0.093,0.131,0.106,-0.596477122856853,-6.178,-6.960045416117142
1621785545204.708,-0.09873262616873531,0.131,0.106,-0.608,-6.178,-6.963
1621785545204.907,-0.099,0.131,0.106,-0.608,-6.177737537924371,-6.964077475889422
1621785545209.368,-0.099,0.136,0.101,-0.608,-6.17185323480059,-6.9882340887133685
1621785545213.826,-0.103,0.133,0.098,-0.608,-6.165972796149087,-7.012374836861642
1621785545218.28,-0.103,0.133,0.096,-0.608,-6.16009751012729,-7.036494432109019
1621785545219.112,-0.10356068001096791,0.1326262133260214,0.09469174664107485,-0.608,-6.159,-7.041
1621785545222.732,-0.106,0.131,0.089,-0.5981769582278695,-6.173608626225219,-7.041
1621785545227.181,-0.11,0.133,0.084,-0.5861040311210015,-6.191563235768767,-7.041
1621785545231.626,-0.11,0.133,0.082,-0.5740417041806105,-6.209502080962169,-7.041
1621785545233.484,-0.1079087661445452,0.13049051937345424,0.08116350645781809,-0.569,-6.217,-7.041
1621785545236.068,-0.105,0.127,0.08,-0.569,-6.227633843586643,-7.048029150845409
1621785545240.507,-0.101,0.131,0.077,-0.569,-6.245899742886819,-7.060103219874338
1621785545244.943,-0.099,0.133,0.073,-0.569,-6.26415358681401,-7.072169320097396
1621785545247.822,-0.09835041040048477,0.1271536936043629,0.06975205200242385,-0.569,-6.276,-7.08
1621785545249.375,-0.098,0.124,0.068,-0.569,-6.269594377784226,-7.086405622215774
1621785545253.806,-0.093,0.119,0.061,-0.569,-6.25131806311765,-7.10468193688235
1621785545258.232,-0.087,0.119,0.059,-0.569,-6.233061888750448,-7.122938111249552
1621785545262.126,-0.08435883424408015,0.11283727990285368,0.05283727990285367,-0.569,-6.217,-7.139
1621785545262.655,-0.084,0.112,0.052,-0.5675542953915631,-6.217741386978685,-7.135367203804441
1621785545267.075,-0.082,0.106,0.049,-0.5554762906702247,-6.22393523555373,-7.1050173457867185
1621785545271.492,-0.08,0.106,0.04,-0.5434062916966027,-6.230124978617127,-7.074687604776079
1621785545275.906,-0.086,0.099,0.044,-0.531344298470697,-6.236310616168874,-7.044377980772521
1621785545276.398,-0.086,0.09844235346211325,0.04277317761664914,-0.53,-6.237,-7.041
1621785545280.317,-0.086,0.094,0.033,-0.5082601361197305,-6.26396843873755,-7.024763899127394
1621785545284.724,-0.08,0.098,0.031,-0.48381159246369854,-6.2942970118804755,-7.006504860194408
1621785545289.128,-0.068,0.091,0.023,-0.4593820095660969,-6.324602064082563,-6.988259981827845
1621785545290.639,-0.0669700449326011,0.08928340822100182,0.0240299550673989,-0.451,-6.335,-6.982
1621785545293.529,-0.065,0.086,0.026,-0.4430667743487525,-6.347001546498041,-6.976100934772149
1621785545297.927,-0.052,0.091,0.014,-0.4309947075400371,-6.365264416798405,-6.967124269709259
1621785545302.323,-0.035,0.093,0.014,-0.4189280019245309,-6.38351917657571,-6.958151591174651
1621785545304.847,-0.029826976537306794,0.09185043923051261,0.011126098076281551,-0.412,-6.394,-6.953
1621785545306.714,-0.026,0.091,0.009,-0.41450291954458546,-6.368180408908486,-6.945227776151024
1621785545311.103,-0.016,0.091,0.005,-0.42038615498561754,-6.307490190674682,-6.926958781886767
1621785545315.488,-0.01,0.099,0.002,-0.4262641541932928,-6.246853988321822,-6.908706047505039
1621785545319.021,-0.01,0.09255016992590116,-0.00525605883336119,-0.431,-6.198,-6.894
1621785545319.87,-0.01,0.091,-0.007,-0.431,-6.18917319843928,-6.890457270121888
1621785545324.249,-0.01,0.082,-0.014,-0.431,-6.1436534995338565,-6.8721874589965815
1621785545328.625,-0.021,0.08,-0.016,-0.431,-6.098164255377922,-6.8539298712061045
1621785545332.998,-0.031,0.087,-0.028,-0.431,-6.052705465971479,-6.835684506750457
1621785545333.162,-0.03141307627829003,0.0868122380553227,-0.028075104777870914,-0.431,-6.051,-6.835
1621785545337.367,-0.042,0.082,-0.03,-0.3815240369639705,-6.051,-6.878813051604195
1621785545341.734,-0.051,0.066,-0.033,-0.3301406222960579,-6.051,-6.92431523206313
1621785545346.097,-0.058,0.066,-0.047,-0.2788031703180701,-6.051,-6.96977671062195
1621785545347.27,-0.058,0.06707596708279685,-0.049420925936292895,-0.265,-6.051,-6.982
1621785545350.458,-0.058,0.07,-0.056,-0.2604696688466009,-6.079767602824084,-7.013259284958454
1621785545354.814,-0.066,0.066,-0.059,-0.25427958089753155,-6.119074661300675,-7.055970891807033
1621785545359.168,-0.056,0.059,-0.066,-0.24809226846149843,-6.158364095269485,-7.098663347615661
1621785545361.344,-0.054999775558298734,0.0635010099876557,-0.0690006733251038,-0.245,-6.178,-7.12
1621785545363.519,-0.054,0.068,-0.072,-0.22982018916475416,-6.184040945128312,-7.138122835384936
1621785545367.866,-0.056,0.056,-0.08,-0.19948271785242366,-6.196114020446484,-7.174342061339454
1621785545372.211,-0.047,0.07,-0.091,-0.16915887752973086,-6.208181671187147,-7.210545013561444
1621785545375.386,-0.04041741184410325,0.0648802092120803,-0.09465699341994263,-0.147,-6.217,-7.237
1621785545376.552,-0.038,0.063,-0.096,-0.1347655833405942,-6.2186645464842725,-7.238664546484273
1621785545380.89,-0.03,0.061,-0.099,-0.0892502744619674,-6.224857105515379,-7.244857105515378
1621785545385.225,-0.017,0.063,-0.101,-0.04376314367866166,-6.231045830792019,-7.251045830792019
1621785545389.396,-0.018925717184241672,0.06107428281575832,-0.10581429296060418,0.0,-6.237,-7.257
1621785545389.557,-0.019,0.061,-0.106,0.0019221888427009468,-6.236769797743389,-7.25723020225661
1621785545393.885,-0.017,0.068,-0.113,0.053631693855451155,-6.230577042652042,-7.263422957347958
1621785545398.211,-0.012,0.072,-0.115,0.105314947427254,-6.224387431445837,-7.269612568554162
1621785545402.533,-0.01,0.075,-0.119,0.156951531770706,-6.218203409368777,-7.275796590631223
1621785545403.374,-0.010389463569046409,0.07597365892261601,-0.11997365892261601,0.167,-6.217,-7.277
1621785545406.852,-0.012,0.08,-0.124,0.21588761271119672,-6.217,-7.267022936181388
1621785545411.168,-0.01,0.093,-0.122,0.27655272695439026,-6.217,-7.254642300621553
1621785545415.481,-0.007,0.099,-0.126,0.3371766611222971,-6.217,-7.242270069158715
1621785545417.318,-0.006211009174311927,0.10176146788990825,-0.126,0.363,-6.217,-7.237
1621785545420.138,-0.005,0.106,-0.126,0.37833286065561406,-6.217,-7.240484741058094
1621785545425.167,0.0,0.119,-0.122,0.40567845343873044,-6.217,-7.246699648508803
1621785545430.197,0.003,0.126,-0.12,0.43302935630345907,-6.217,-7.25291576279624
1621785545433.502,0.005628671294723045,0.13520034953153068,-0.1167141608815962,0.451,-6.217,-7.257
1621785545435.226,0.007,0.14,-0.115,0.4801739274125706,-6.214984346833313,-7.246603473140247
1621785545440.256,0.017,0.143,-0.106,0.5652872701598366,-6.2091037886071385,-7.216272172815767
1621785545445.286,0.024,0.164,-0.099,0.6503964817930536,-6.203223515803389,-7.185942344670112
1621785545449.754,0.030217880891132358,0.1799888365771975,-0.09011731301266805,0.726,-6.198,-7.159
1621785545450.316,0.031,0.182,-0.089,0.7372255385962528,-6.193551489348854,-7.152188218065431
1621785545455.32,0.042,0.194,-0.08,0.8371776952458595,-6.153941965970682,-7.091536135392605
1621785545460.324,0.044,0.201,-0.068,0.937124975466884,-6.1143343750471795,-7.030887011790993
1621785545465.328,0.045,0.208,-0.056,1.0370722556879084,-6.074726784123677,-6.970237888189381
1621785545465.925,0.04440332731619261,0.2100286871249451,-0.05468732009562375,1.049,-6.07,-6.963
1621785545470.332,0.04,0.225,-0.045,1.11578488372093,-6.0432860465116285,-6.9229290697674415
1621785545475.336,0.03,0.237,-0.028,1.1916157505285412,-6.012953699788584,-6.877430549682876
1621785545480.339,0.012,0.253,-0.017,1.2674355179704018,-5.98262579281184,-6.8319386892177585
1621785545482.092,0.009547335545578763,0.2572045676361507,-0.01034276790942807,1.294,-5.972,-6.816
1621785545485.342,0.005,0.265,0.002,1.341450942484292,-5.987884001933302,-6.819820202996617
1621785545490.345,-0.012,0.284,0.012,1.414495166747221,-6.012335246495892,-6.825700882068632
1621785545495.349,-0.023,0.312,0.028,1.4875572136297728,-6.036792457104882,-6.831582996012567
1621785545498.256,-0.02764844817489752,0.31548633613117316,0.037296896349795036,1.53,-6.051,-6.835
1621785545500.352,-0.031,0.318,0.044,1.5350564063066328,-6.061112812613266,-6.850298870363658
1621785545505.355,-0.04,0.347,0.056,1.5471258155128669,-6.085251631025734,-6.8868165700132895
1621785545510.358,-0.045,0.368,0.07,1.559195224719101,-6.109390449438202,-6.923334269662922
1621785545514.422,-0.04824993899165406,0.37693733222704867,0.08299975596661623,1.569,-6.129,-6.953
1621785545515.36,-0.049,0.379,0.086,1.5519381145869522,-6.131843647568841,-6.954682975091764
1621785545520.363,-0.058,0.389,0.089,1.4609354712022113,-6.1470107547996315,-6.963659426309986
1621785545525.365,-0.056,0.408,0.096,1.369950591362929,-6.162174901439512,-6.972634125341752
1621785545530.368,-0.063,0.403,0.099,1.2789479479781882,-6.177342008670302,-6.981610576559975
1621785545530.585,-0.06321694567816877,0.4029132217287325,0.09886983259309874,1.275,-6.178,-6.982
1621785545535.37,-0.068,0.401,0.096,1.1906244335689686,-6.218559482810706,-6.961868285904175
1621785545540.371,-0.068,0.4,0.094,1.1024433568968641,-6.260948281070631,-6.940828590417497
1621785545545.373,-0.077,0.4,0.089,1.0142450607214064,-6.303345356776026,-6.919784786417739
1621785545546.748,-0.07837446310035143,0.4002748926200703,0.08817532213978914,0.99,-6.315,-6.914
1621785545550.375,-0.082,0.401,0.086,0.8910213473130788,-6.319488827786255,-6.878762701877898
1621785545555.377,-0.087,0.4,0.079,0.7545192850991826,-6.325679397501171,-6.830166729615809
1621785545560.378,-0.098,0.384,0.073,0.6180438730340982,-6.331868758592558,-6.781580245048421
1621785545562.908,-0.10305907049404413,0.37944683655536027,0.06692911540714704,0.549,-6.335,-6.757
1621785545565.379,-0.108,0.375,0.061,0.49655007780984184,-6.353043996555215,-6.732992309668061
1621785545570.38,-0.124,0.368,0.042,0.39039612008400437,-6.389563433906961,-6.684402888784806
1621785545575.382,-0.136,0.353,0.028,0.28421625092540825,-6.426091785395924,-6.6358016075664406
1621785545579.067,-0.1396840949033392,0.33457952548330405,0.01400043936731107,0.206,-6.453,-6.6
1621785545580.383,-0.141,0.328,0.009,0.17243608613524744,-6.464975474121648,-6.6
1621785545585.383,-0.147,0.311,0.0,0.0449293237627503,-6.5104693917642615,-6.6
1621785545590.384,-0.143,0.291,-0.024,-0.08260234227427274,-6.555972194937665,-6.6
1621785545595.223,-0.1517099609375,0.2677734375,-0.05109765625,-0.206,-6.6,-6.6
1621785545595.384,-0.152,0.267,-0.052,-0.20756584812995843,-6.599611031356252,-6.600388968643747
1621785545600.384,-0.162,0.239,-0.079,-0.25615459010200226,-6.587541216471477,-6.612458783528523
1621785545605.385,-0.169,0.223,-0.105,-0.3047528220627125,-6.575469044200982,-6.624530955799018
1621785545610.385,-0.171,0.201,-0.124,-0.3533415640347563,-6.563399229316207,-6.636600770683793
1621785545611.379,-0.17199389648437502,0.19722319335937502,-0.130162158203125,-0.363,-6.561,-6.639
1621785545615.385,-0.176,0.182,-0.155,-0.31439323227590793,-6.51462517569181,-6.614696616137954
1621785545620.384,-0.187,0.159,-0.175,-0.2537391902307797,-6.456756268230387,-6.58436959511539
1621785545625.385,-0.197,0.15,-0.195,-0.19306145057203744,-6.398864751311076,-6.554030725286019
1621785545627.533,-0.20602314905254934,0.14613293612033598,-0.20187478023051378,-0.167,-6.374,-6.541
1621785545630.384,-0.218,0.141,-0.211,-0.07699410617944419,-6.346292303274848,-6.525469571262335
1621785545635.383,-0.241,0.131,-0.227,0.08082064650677787,-6.297710114702815,-6.498238790406674
1621785545640.382,-0.26,0.127,-0.232,0.2386353991929999,-6.249127926130782,-6.471008009551012
1621785545643.688,-0.27058097284625904,0.1329517972260207,-0.23993572963469428,0.343,-6.217,-6.453
1621785545645.381,-0.276,0.136,-0.244,0.3851389380129688,-6.205783914508985,-6.464320908719903
1621785545650.38,-0.286,0.138,-0.253,0.5095505826871628,-6.1726693722698345,-6.497744932662223
1621785545655.38,-0.295,0.138,-0.26,0.6339926087153676,-6.139546743451382,-6.531177118759352
1621785545659.84,-0.2967847792106291,0.12818371434153966,-0.2644619480265729,0.745,-6.11,-6.561
1621785545660.378,-0.297,0.127,-0.265,0.761018790627362,-6.110965789871504,-6.562298820861678
1621785545665.377,-0.302,0.126,-0.265,0.9099070143613001,-6.119942418745276,-6.574370839002268
1621785545670.375,-0.312,0.134,-0.269,1.0587661526832957,-6.128917294028723,-6.586440498866213
1621785545675.373,-0.309,0.134,-0.271,1.207625291005291,-6.1378921693121695,-6.598510158730158
1621785545675.99,-0.3098638894315296,0.1348638894315296,-0.2707531744481344,1.226,-6.139,-6.6
1621785545680.372,-0.316,0.141,-0.269,1.3030692751957909,-6.181605197907532,-6.576119379516797
1621785545685.37,-0.311,0.145,-0.274,1.3909717879713344,-6.2301991926461255,-6.548881981191981
1621785545690.368,-0.318,0.159,-0.265,1.4788700069547338,-6.27879081370385,-6.521645913337969
1621785545692.138,-0.3172915770959547,0.16006263435606802,-0.2632289427398867,1.51,-6.296,-6.512
1621785545695.365,-0.316,0.162,-0.26,1.5433712186493718,-6.33116966755862,-6.504006893736677
1621785545700.363,-0.314,0.18,-0.257,1.5950564651458117,-6.385640346500975,-6.491627193977051
1621785545705.361,-0.305,0.183,-0.246,1.6467417116422514,-6.440111025443331,-6.479247494217425
1621785545708.287,-0.2979730786143548,0.1841711535642742,-0.240144232178629,1.677,-6.472,-6.472
1621785545710.358,-0.293,0.185,-0.236,1.6845665729232817,-6.483413982884272,-6.464561674075418
1621785545715.355,-0.288,0.19,-0.223,1.7028255465844144,-6.510957180440896,-6.446612174544135
1621785545720.352,-0.274,0.195,-0.209,1.7210845202455471,-6.53850037799752,-6.428662675012852
1621785545724.434,-0.26092984170412353,0.195,-0.19756361149110807,1.736,-6.561,-6.414
1621785545725.349,-0.258,0.195,-0.195,1.732656101618025,-6.565420747013459,-6.414
1621785545730.346,-0.258,0.194,-0.183,1.7143958112808106,-6.589561469832149,-6.414
1621785545735.343,-0.243,0.197,-0.173,1.6961346287615304,-6.613703372145774,-6.414
1621785545740.339,-0.232,0.192,-0.162,1.6778770149705127,-6.637840556479661,-6.414
1621785545740.579,-0.2318559143987883,0.19166380026383936,-0.16142365759515317,1.677,-6.639,-6.414
1621785545745.336,-0.229,0.185,-0.15,1.6655084914933838,-6.679367606805293,-6.436983017013232
1621785545750.332,-0.22,0.182,-0.147,1.6534389867674857,-6.7217656105860115,-6.461122026465028
1621785545755.329,-0.216,0.173,-0.136,1.641367122873346,-6.764171901701323,-6.485265754253308
1621785545756.723,-0.21460477051664303,0.17104667872330026,-0.13460477051664305,1.638,-6.776,-6.492
1621785545760.324,-0.211,0.166,-0.131,1.6357692749765584,-6.80232255527661,-6.533491485436012
1621785545765.32,-0.204,0.154,-0.122,1.6326743897643747,-6.838842200780376,-6.591056350382626
1621785545770.316,-0.197,0.15,-0.115,1.6295796557877862,-6.875360061704122,-6.648618402347177
1621785545772.866,-0.19342644183773217,0.14489491691104595,-0.11346847507331378,1.628,-6.894,-6.678
1621785545775.311,-0.19,0.14,-0.112,1.629514716113615,-6.92217371971324,-6.710717868054085
1621785545780.307,-0.18,0.124,-0.108,1.6326096373151031,-6.979739254060921,-6.7775681660062315
1621785545785.303,-0.164,0.108,-0.105,1.6357047097613358,-7.037307601560846,-6.844421730844854
1621785545789.008,-0.1550991202346041,0.10429130009775171,-0.09832434017595308,1.638,-7.08,-6.894
1621785545790.298,-0.152,0.103,-0.096,1.6215376960421046,-7.095743077085949,-6.913578953736332
1621785545795.292,-0.129,0.094,-0.087,1.557810135962856,-7.156686423375327,-6.989371440238351
1621785545800.287,-0.106,0.066,-0.084,1.4940669983817547,-7.217644666596089,-7.065182453380923
1621785545805.151,-0.08652875922396519,0.052370131456775645,-0.08010575184479304,1.432,-7.277,-7.139
1621785545805.283,-0.086,0.052,-0.08,1.4283831866170553,-7.278202876849079,-7.138680869407388
1621785545810.277,-0.061,0.019,-0.086,1.2916261911244213,-7.323685407024231,-7.126614075687449
1621785545815.272,-0.03,-0.014,-0.087,1.1548491393653386,-7.369174607496143,-7.114545512296941
1621785545820.266,0.0,-0.052,-0.096,1.0180921438727046,-7.414657137671296,-7.102478718577003
1621785545821.292,0.008217061843070153,-0.060011635296993396,-0.09743798582253728,0.99,-7.424,-7.1
1621785545825.26,0.04,-0.091,-0.103,0.9442750703330611,-7.505862374081133,-7.0348542668723715
1621785545830.255,0.077,-0.129,-0.106,0.8867173064706416,-7.608909338415464,-6.952849925885591
1621785545835.249,0.127,-0.162,-0.106,0.8291679825755514,-7.711941192485706,-6.870857609583447
1621785545837.433,0.14624717617720406,-0.17905999706615813,-0.10993692239988265,0.804,-7.757,-6.835
1621785545840.242,0.171,-0.201,-0.115,0.790422314012074,-7.722881712132903,-6.768504153238618
1621785545845.236,0.22,-0.236,-0.119,0.7662810585084654,-7.662219070098195,-6.650273901926074
1621785545850.23,0.255,-0.264,-0.122,0.7421409831600926,-7.601559393581771,-6.532049430348146
1621785545853.569,0.27238375048885416,-0.28606399100508406,-0.1246744231521314,0.726,-7.561,-6.453
1621785545855.224,0.281,-0.297,-0.126,0.7239482445520581,-7.535865995762712,-6.379547154963681
1621785545860.217,0.297,-0.325,-0.129,0.7177584745762712,-7.460041313559322,-6.157953389830508
1621785545865.21,0.302,-0.344,-0.131,0.7115687046004843,-7.384216631355932,-5.936359624697337
1621785545869.702,0.3100969634736688,-0.37548819128648964,-0.13729763825729793,0.706,-7.316,-5.737
1621785545870.203,0.311,-0.379,-0.138,0.713018357370946,-7.3117144543487145,-5.720541020324773
1621785545875.196,0.321,-0.391,-0.136,0.78296935393556,-7.269001013968552,-5.556496647850236
1621785545880.189,0.33,-0.41,-0.136,0.8529169302480439,-7.226289662060929,-5.392460296320959
1621785545885.181,0.337,-0.424,-0.133,0.9228508255520076,-7.183586664043465,-5.228456028572726
1621785545885.834,0.3379155583805985,-0.4270082632505378,-0.13247682378251516,0.932,-7.178,-5.207
1621785545890.174,0.344,-0.447,-0.129,1.0005996731284332,-7.080615365990224,-5.180636204052602
1621785545895.166,0.339,-0.469,-0.126,1.0795026104326508,-6.96860413734659,-5.150312722265099
1621785545900.159,0.333,-0.487,-0.119,1.1584209833386299,-6.856570996201631,-5.119983308363977
1621785545901.967,0.3261181102362205,-0.49786614173228344,-0.1182755905511811,1.187,-6.816,-5.109
1621785545905.151,0.314,-0.517,-0.117,1.2740360488520968,-6.672716164474779,-5.263928114169832
1621785545910.143,0.288,-0.524,-0.117,1.410506651331023,-6.448050274679541,-5.50685197572529
1621785545915.134,0.241,-0.532,-0.117,1.5469438836508922,-6.223439320792409,-5.749716436884241
1621785545918.099,0.20357959602875728,-0.529030126668949,-0.12115782266347142,1.628,-6.09,-5.894
1621785545920.126,0.178,-0.527,-0.124,1.6390592794429306,-6.044380472297911,-6.129386709052377
1621785545925.118,0.093,-0.517,-0.126,1.6662971843778382,-5.9320241144414165,-6.709120753860128
1621785545930.109,0.005,-0.48,-0.122,1.6935297608234938,-5.819689736603088,-7.288741386618226
1621785545934.227,-0.06678223439639994,-0.4412210917628644,-0.11044883584425748,1.716,-5.727,-7.767
1621785545935.1,-0.082,-0.433,-0.108,1.6454068063461305,-5.7286240765411165,-7.871049170400872
1621785545940.091,-0.176,-0.396,-0.099,1.241845101126317,-5.737908471599855,-8.465869413830688
1621785545945.082,-0.246,-0.394,-0.115,0.8382833959065035,-5.747192866658593,-9.060689657260507
1621785545950.074,-0.26,-0.387,-0.147,0.4346427273828266,-5.756479078357756,-9.655626286786969
1621785545950.354,-0.2584286902490337,-0.3881784823132247,-0.14991814668036596,0.412,-5.757,-9.689
1621785545955.064,-0.232,-0.408,-0.199,0.1082625650962819,-5.848413285696984,-9.929653506116022
1621785545960.055,-0.15,-0.41,-0.269,-0.2135964636066368,-5.945280474143152,-10.184664890396027
1621785545965.045,-0.016,-0.421,-0.346,-0.5353925154414436,-6.042128708974204,-10.439626377618989
1621785545966.481,0.028318606585449393,-0.429921277949019,-0.36297920641910075,-0.628,-6.07,-10.513
1621785545970.035,0.138,-0.452,-0.405,-0.6949895246745383,-5.968413911595519,-10.162847517408416
1621785545975.026,0.297,-0.497,-0.456,-0.789065697850439,-5.825752346351802,-9.671113835906752
1621785545980.016,0.419,-0.515,-0.501,-0.8831280653950955,-5.683111716621253,-9.179452316076294
1621785545982.609,0.45433245266402467,-0.5186371642448261,-0.5217837956847204,-0.932,-5.609,-8.924
1621785545985.006,0.487,-0.522,-0.541,-0.9435965416994732,-5.534663194234147,-8.587254269880685
1621785545989.996,0.522,-0.524,-0.553,-0.9677356307915935,-5.379925443643631,-7.88629225970565
1621785545994.985,0.515,-0.522,-0.564,-0.9918699957604021,-5.225217975894858,-7.1854674308037065
1621785545998.733,0.48871789854717995,-0.522,-0.5549889937876046,-1.01,-5.109,-6.659
1621785545999.976,0.48,-0.522,-0.552,-0.9911093276801939,-5.14308031496063,-6.600014839491218
1621785546004.965,0.422,-0.52,-0.546,-0.915298076923077,-5.27985,-6.363298076923077
1621785546009.954,0.344,-0.503,-0.52,-0.83948682616596,-5.41661968503937,-6.126581314354937
1621785546014.856,0.2634325422069978,-0.4833494005382921,-0.4787337411304135,-0.765,-5.551,-5.894
1621785546014.943,0.262,-0.483,-0.478,-0.7609181154591713,-5.557520202326145,-5.896492382481221
1621785546019.932,0.173,-0.457,-0.421,-0.5272788193603102,-5.930724164041677,-6.039151608311122
1621785546024.921,0.082,-0.449,-0.349,-0.2936280894111946,-6.303946389629271,-6.181817815604556
1621785546029.91,0.003,-0.438,-0.265,-0.05997735946207905,-6.677168615216864,-6.324484022897989
1621785546030.977,-0.010264255298321177,-0.43992545641427244,-0.24488967745093243,-0.01,-6.757,-6.355
1621785546034.898,-0.059,-0.447,-0.171,0.08072072208508126,-7.00021909406188,-6.784281701019219
1621785546039.886,-0.101,-0.461,-0.087,0.19613261952719177,-7.309634368705607,-7.330399660765398
1621785546044.875,-0.11,-0.503,-0.01,0.31156711241689505,-7.619110220956823,-7.876624539988793
1621785546047.098,-0.10242549547345241,-0.5217134817714706,0.02252581355517494,0.363,-7.757,-8.12
1621785546049.864,-0.093,-0.545,0.063,0.3696933773630635,-7.841096279689772,-8.389279720067861
1621785546054.851,-0.042,-0.595,0.126,0.3817609518904508,-7.992714523751817,-8.87476752605429
1621785546059.839,0.037,-0.637,0.176,0.3938308894813379,-8.14436245758604,-9.360350399903053
1621785546063.215,0.08979412628487518,-0.6444453255017132,0.19765912873225647,0.402,-8.247,-9.689
1621785546064.827,0.115,-0.648,0.208,0.4029999545612893,-8.199002181058116,-9.694899731911606
1621785546069.815,0.23,-0.634,0.225,0.406094482225891,-8.050464853157234,-9.713157445132756
1621785546074.802,0.363,-0.606,0.241,0.409188404041016,-7.901956606031232,-9.731411583841995
1621785546079.334,0.46566844501003374,-0.5742000391561842,0.2500857030982331,0.412,-7.767,-9.748
1621785546079.79,0.476,-0.571,0.251,0.4039349805335474,-7.736183136143977,-9.705524230810015
1621785546084.777,0.56,-0.545,0.246,0.3157421793337474,-7.399193801033161,-9.24104214449107
1621785546089.764,0.618,-0.504,0.234,0.22755369559618852,-7.062220963172805,-8.776582796806593
1621785546094.751,0.649,-0.469,0.222,0.1393608943963885,-6.72523162806199,-8.312100710487647
1621785546095.45,0.6502614187105302,-0.46367400988887253,0.22073858128946983,0.127,-6.678,-8.247
1621785546099.738,0.658,-0.431,0.213,0.127,-6.3884732815175065,-7.881632183385603
1621785546104.725,0.641,-0.428,0.23,0.127,-6.051752587003621,-7.456707998121297
1621785546109.711,0.602,-0.415,0.255,0.127,-5.715114312985773,-7.03188782328076
1621785546111.564,0.5811881702002644,-0.4094254027322137,0.26391935562845814,0.127,-5.59,-6.874
1621785546114.697,0.546,-0.4,0.279,0.09277607394499585,-5.484994772331237,-6.660489370406848
1621785546119.684,0.476,-0.389,0.298,0.03829994696567922,-5.317852110008333,-6.320632623683612
1621785546124.67,0.384,-0.37,0.321,-0.01616284567012652,-5.150750359875748,-5.980859065080688
1621785546127.676,0.3219014346570044,-0.36397101307349555,0.3366753660089115,-0.049,-5.05,-5.776
1621785546129.656,0.281,-0.36,0.347,-0.03695623645648649,-5.064501674470761,-5.738639753905836
1621785546134.642,0.176,-0.342,0.387,-0.006627040050916029,-5.101020502795836,-5.644557348729372
1621785546139.627,0.07,-0.33,0.429,0.023694731099695415,-5.137530390507797,-5.550497976996864
1621785546143.787,-0.023429284770157155,-0.31248200910559554,0.4598650315758555,0.049,-5.168,-5.472
1621785546144.614,-0.042,-0.309,0.466,0.018299633188831963,-5.183606875435778,-5.499671400854883
1621785546149.599,-0.136,-0.293,0.504,-0.16678179282747752,-5.277695092005942,-5.6664922848394825
1621785546154.584,-0.218,-0.286,0.525,-0.35185415466699005,-5.371778700700276,-5.833304998938976
1621785546159.569,-0.272,-0.269,0.538,-0.5369355806832995,-5.46586691727044,-6.000125882923576
1621785546159.894,-0.273629689489666,-0.2693259378979332,0.5381955627387599,-0.549,-5.472,-6.011
1621785546164.554,-0.297,-0.274,0.541,-0.7219764798593642,-5.494851407874398,-6.249348861879793
1621785546169.54,-0.302,-0.258,0.536,-0.9070604976813263,-5.519302306549874,-6.504381020216409
1621785546174.525,-0.291,-0.257,0.525,-1.092099202861213,-5.543747219107083,-6.759350741066287
1621785546176.004,-0.28239446485427383,-0.2572967425912319,0.5166912074455058,-1.147,-5.551,-6.835
1621785546179.509,-0.262,-0.258,0.497,-1.191830940867957,-5.488976610935108,-6.852192448196935
1621785546184.493,-0.229,-0.251,0.469,-1.255575374027982,-5.40078649709721,-6.876638128874808
1621785546189.478,-0.194,-0.236,0.447,-1.3193354201088356,-5.312574782859135,-6.901089797032029
1621785546192.11,-0.18660779704182584,-0.23758404349103732,0.4322155940836517,-1.353,-5.266,-6.914
1621785546194.463,-0.18,-0.239,0.419,-1.3702397137745974,-5.251682271610927,-6.849424122979897
1621785546199.447,-0.176,-0.23,0.396,-1.4067602862254025,-5.221351626694157,-6.71262672447773
1621785546204.43,-0.178,-0.216,0.372,-1.4432719141323793,-5.191028410296838,-6.575862830114309
1621785546208.214,-0.18559245652706344,-0.20688905216752387,0.35757433259857946,-1.471,-5.168,-6.472
1621785546209.414,-0.188,-0.204,0.353,-1.4753965765574542,-5.159206846885092,-6.457394423639644
1621785546214.398,-0.206,-0.187,0.342,-1.4936573525175494,-5.122685294964901,-6.396731506890854
1621785546219.382,-0.232,-0.169,0.323,-1.5119190229998332,-5.0861619540003336,-6.3360656185090285
1621785546224.317,-0.26468147966683,-0.1571158255756982,0.3210193042626164,-1.53,-5.05,-6.276
1621785546224.365,-0.265,-0.157,0.321,-1.5302926836663533,-5.05052862254025,-6.2764121463873135
1621785546229.348,-0.307,-0.145,0.316,-1.560615900063673,-5.105296064400716,-6.319112185803948
1621785546234.332,-0.339,-0.14,0.319,-1.5909465449804432,-5.1600769230769234,-6.361822685788788
1621785546239.314,-0.377,-0.126,0.316,-1.6212638185622024,-5.214833631484795,-6.404514356750856
1621785546240.421,-0.384773205975998,-0.12400117560617194,0.3175546411951996,-1.628,-5.227,-6.414
1621785546244.298,-0.412,-0.117,0.323,-1.663395988112927,-5.4018128392516,-6.505981411286654
1621785546249.281,-0.431,-0.101,0.321,-1.7088863298662704,-5.626479425053826,-6.6241944082239135
1621785546254.263,-0.44,-0.084,0.326,-1.7543677563150073,-5.851101980167996,-6.742384237498863
1621785546256.523,-0.4345565737247023,-0.08853618856274809,0.3246391434311756,-1.775,-5.953,-6.796
1621785546259.245,-0.428,-0.094,0.323,-1.781594031480302,-6.102126558092985,-6.895417705395324
1621785546264.229,-0.396,-0.068,0.307,-1.7936667273223545,-6.375155217905559,-7.07743681193704
1621785546269.211,-0.342,-0.051,0.302,-1.8057346920207442,-6.648076881084524,-7.2593845873896825
1621785546272.623,-0.28447150487577794,-0.0578486303719312,0.30063027392561376,-1.814,-6.835,-7.384
1621785546274.193,-0.258,-0.061,0.3,-1.8025880060060973,-6.8704064429041605,-7.405068296604129
1621785546279.174,-0.162,-0.066,0.278,-1.7663840717091595,-6.982731469825429,-7.471906329152321
1621785546284.156,-0.059,-0.042,0.239,-1.7301730392974688,-7.095078519102726,-7.538757465912365
1621785546288.72,0.03810692933450946,-0.024594040968342643,0.2151813192198373,-1.697,-7.198,-7.6
1621785546289.138,0.047,-0.023,0.213,-1.685029787814903,-7.195455356194926,-7.587536438505755
1621785546294.12,0.157,0.002,0.182,-1.5423451382464017,-7.165123261492727,-7.438971076699073
1621785546299.101,0.26,0.038,0.154,-1.3996954484097492,-7.134798598577343,-7.290442115480867
1621785546304.082,0.346,0.065,0.138,-1.257045758573097,-7.10447393566196,-7.141913154262661
1621785546304.817,0.3564749534359376,0.0685408293304578,0.13563944711302814,-1.236,-7.1,-7.12
1621785546309.063,0.417,0.089,0.122,-1.266864007280449,-6.939612680115274,-6.866493068405885
1621785546314.045,0.461,0.112,0.099,-1.3030766873957227,-6.751430547550433,-6.569053875322312
1621785546319.026,0.487,0.122,0.086,-1.3392822690732595,-6.56328530259366,-6.271672986500834
1621785546320.913,0.4881368204323741,0.12616834158537182,0.08183165841462817,-1.353,-6.492,-6.159
1621785546324.006,0.49,0.133,0.075,-1.3983528100113765,-6.418589943117179,-5.979894835039818
1621785546328.987,0.478,0.113,0.049,-1.4713884110731892,-6.300371300720516,-5.691466105422829
1621785546333.968,0.45,0.12,0.03,-1.544424012135002,-6.1821526583238535,-5.40303737580584
1621785546337.008,0.42436101578586133,0.11938954799490145,0.013517795862339445,-1.589,-6.11,-5.227
1621785546338.948,0.408,0.119,0.003,-1.5464525900644672,-6.079264618885097,-5.227
1621785546343.928,0.367,0.127,-0.017,-1.4372300796359498,-6.000364505119454,-5.227
1621785546348.908,0.326,0.129,-0.031,-1.3280075692074327,-5.921464391353812,-5.227
1621785546353.103,0.29988601823708205,0.14837488969506815,-0.03858147857633101,-1.236,-5.855,-5.227
1621785546353.888,0.295,0.152,-0.04,-1.236,-5.850220201162068,-5.255678793027595
1621785546358.867,0.262,0.166,-0.047,-1.236,-5.819900071301789,-5.437599572189269
1621785546363.848,0.248,0.176,-0.056,-1.236,-5.789568047696346,-5.619591713821928
1621785546368.827,0.243,0.18,-0.065,-1.236,-5.759247917836066,-5.801512492983601
1621785546369.196,0.24337062457103636,0.18074124914207274,-0.06574124914207276,-1.236,-5.757,-5.815
1621785546373.807,0.248,0.19,-0.075,-1.1374339508139517,-5.8074291414440244,-5.848810447104516
1621785546378.786,0.26,0.18,-0.08,-1.0309976484153354,-5.8618849240665725,-5.8853205740900885
1621785546383.765,0.267,0.218,-0.08,-0.924561346016719,-5.9163407066891205,-5.921830701075661
1621785546385.288,0.2685296165538884,0.22503623614788662,-0.07143414729822498,-0.892,-5.933,-5.933
1621785546388.744,0.272,0.241,-0.052,-0.6561835589002852,-6.0573512927110515,-5.8760861959094495
1621785546393.723,0.26,0.276,-0.003,-0.3164279601869272,-6.2365120319232865,-5.794086893852036
1621785546398.702,0.227,0.312,0.056,0.023327638526430827,-6.4156727711355215,-5.7120875917946226
1621785546401.379,0.19580971064247182,0.3431902893575282,0.09633227072094164,0.206,-6.512,-5.668
1621785546403.68,0.169,0.37,0.131,0.34630022306186553,-6.66760310162213,-5.869940789972838
1621785546408.659,0.103,0.435,0.227,0.6498845996267129,-7.004300147190483,-6.30690423514059
1621785546413.637,0.045,0.473,0.318,0.9534094323303137,-7.340931154307218,-6.7437819759942945
1621785546417.468,0.01806424717999019,0.485313487003433,0.36879313388916135,1.187,-7.6,-7.08
1621785546418.615,0.01,0.489,0.384,1.203043133802817,-7.5845985915492955,-7.383464788732394
1621785546423.593,-0.003,0.483,0.436,1.2726726566294317,-7.517754249635745,-8.700545896066052
1621785546428.571,-0.005,0.454,0.485,1.3423021794560466,-7.450909907722195,-10.017627003399708
1621785546433.55,0.033,0.403,0.52,1.411945361826129,-7.384052452646916,-11.334966488586693
1621785546433.554,0.033075345825566566,0.40294113607377613,0.5200149121946434,1.412,-7.384,-11.336
1621785546438.527,0.129,0.328,0.539,1.2333835581109576,-7.12349193682965,-11.839092677154603
1621785546443.504,0.286,0.25,0.546,1.0546355871778146,-6.862792041506744,-12.342555820198129
1621785546448.483,0.49,0.18,0.545,0.8758086988182108,-6.601977046892304,-12.846241242775005
1621785546449.647,0.5403482238442823,0.1714152798053528,0.5445359610705597,0.834,-6.541,-12.964
1621785546453.5,0.707,0.143,0.543,0.8618136711453876,-6.338221696692173,-12.157403536783756
1621785546458.517,0.902,0.136,0.548,0.8980303066819304,-6.074180755558233,-11.107121106224016
1621785546463.532,1.035,0.129,0.56,0.9342310809182381,-5.810255452792673,-10.057298653371092
1621785546465.855,1.0632440389294404,0.14289051094890512,0.5720384428223845,0.951,-5.688,-9.571
1621785546468.549,1.096,0.159,0.586,1.127016161585733,-5.480902608748042,-8.950040245812747
1621785546473.564,1.075,0.19,0.613,1.4546598385347629,-5.095403060609712,-7.794160380768767
1621785546478.582,0.984,0.237,0.648,1.782510874804193,-4.70965953729365,-6.637548981805036
1621785546482.064,0.8861010661603622,0.2918511756973857,0.6806329779465459,2.01,-4.442,-5.835
1621785546483.597,0.843,0.316,0.695,2.0786694685466376,-4.45410701373825,-5.709768076644974
1621785546488.614,0.675,0.408,0.752,2.3034118763557485,-4.493731019522777,-5.29990726681128
1621785546493.629,0.497,0.503,0.812,2.528055856832972,-4.533337671728128,-4.890225958062183
1621785546498.271,0.32952875912408763,0.5723941605839415,0.8554870072992701,2.736,-4.57,-4.511
1621785546498.646,0.316,0.578,0.859,2.6933333333333334,-4.592698481561823,-4.543902386117137
1621785546503.662,0.164,0.641,0.888,2.1226111111111114,-4.896320227765727,-4.984014642082429
1621785546508.678,0.035,0.674,0.887,1.5519166666666666,-5.199927196312364,-5.424105477223427
1621785546513.694,-0.056,0.691,0.852,0.9811944444444443,-5.503548942516269,-5.86421773318872
1621785546514.478,-0.06490859089802872,0.6913125821367729,0.8435602823071306,0.892,-5.551,-5.933
1621785546518.71,-0.113,0.693,0.798,0.3004984030372424,-5.891537784741473,-6.337519193684464
1621785546523.726,-0.157,0.686,0.723,-0.40060877425575525,-6.295177413522961,-6.816996022658793
1621785546528.743,-0.178,0.674,0.644,-1.101818322887791,-6.698875979269616,-7.2965428618777874
1621785546530.683,-0.17877358123235665,0.6639434439793634,0.6084152633115936,-1.373,-6.855,-7.482
1621785546533.759,-0.18,0.648,0.552,-1.5907051929073954,-7.000200063273024,-7.653393015863451
1621785546538.775,-0.157,0.639,0.463,-1.9457137799605297,-7.2369756248211035,-7.9328810316515765
1621785546543.791,-0.134,0.63,0.372,-2.300739646574971,-7.47376271109839,-8.212382651139668
1621785546546.889,-0.10929520564614262,0.625676660988075,0.32135517157459237,-2.52,-7.62,-8.385
1621785546548.807,-0.094,0.623,0.29,-2.550177151120752,-7.549231622077609,-8.45920028922632
1621785546553.824,-0.038,0.616,0.199,-2.629115600144613,-7.364113220053025,-8.65329600506146
1621785546558.84,0.002,0.6,0.115,-2.708038684020246,-7.179030850807424,-8.847353940708604
1621785546563.096,0.0418785105865174,0.5821819420783645,0.05306103674860063,-2.775,-7.022,-9.012
1621785546563.856,0.049,0.579,0.042,-2.7385253467240553,-6.975894921688187,-8.987388913797227
1621785546568.872,0.084,0.545,-0.017,-2.4977902917264467,-6.671598442730751,-8.824954163677667
1621785546573.951,0.113,0.506,-0.063,-2.25404399808704,-6.363495665949307,-8.660487595648016
1621785546579.03,0.14,0.445,-0.093,-2.010285987565758,-6.0553780786704925,-8.4960131217121
1621785546579.432,0.14055396894081448,0.4418344631953459,-0.0954532910236069,-1.991,-6.031,-8.483
1621785546584.108,0.147,0.405,-0.124,-1.8205915312741774,-5.807588228292566,-8.164410254121288
1621785546589.186,0.122,0.353,-0.154,-1.6355293399988098,-5.564964887222519,-7.818424418258645
1621785546594.264,0.086,0.316,-0.182,-1.4504760459441766,-5.322353210736178,-7.472455216330418
1621785546595.841,0.07233986928104574,0.30606535947712415,-0.18665686274509805,-1.393,-5.247,-7.365
1621785546599.344,0.042,0.284,-0.197,-1.2506193409209254,-5.1925666145949565,-7.28324318976419
1621785546604.423,0.012,0.255,-0.204,-1.044173339284386,-5.11364048203526,-7.164699233801979
1621785546609.502,-0.024,0.227,-0.213,-0.8377372610280442,-5.034718143271591,-7.046160975972626
1621785546612.251,-0.05052086137281292,0.21292770621034418,-0.22165987310132668,-0.726,-4.992,-6.982
1621785546614.581,-0.073,0.201,-0.229,-0.6924923534662303,-5.019828384409402,-6.933300327283547
1621785546619.66,-0.117,0.159,-0.239,-0.6194559357334126,-5.0804857482892,-6.827149940493901
1621785546624.74,-0.157,0.136,-0.257,-0.5464019637012794,-5.141157691163344,-6.720974040464148
1621785546628.662,-0.18402725437415882,0.11978364737550472,-0.2701275235531629,-0.49,-5.188,-6.639
1621785546629.819,-0.192,0.115,-0.274,-0.45545866987966144,-5.208019872967706,-6.637590149791007
1621785546634.899,-0.215,0.099,-0.298,-0.3038018950719205,-5.295918901631785,-6.631400077349874
1621785546639.979,-0.218,0.079,-0.321,-0.15213783152602378,-5.383822154788999,-6.625209707409225
1621785546645.058,-0.225,0.075,-0.332,-0.0005029229327502271,-5.471708509973672,-6.619020527466643
1621785546645.075,-0.22496684445725817,0.07499005333717745,-0.3320331555427418,0.0,-5.472,-6.619
1621785546650.139,-0.215,0.072,-0.342,0.22391441146731694,-5.565760304526259,-6.543436596681139
1621785546655.219,-0.204,0.07,-0.344,0.44854130732171527,-5.659818949622316,-6.4676327544162255
1621785546660.299,-0.197,0.08,-0.347,0.6731682031761137,-5.7538775947183725,-6.391828912151311
1621785546661.494,-0.19629437208631711,0.07835353486807324,-0.347,0.726,-5.776,-6.374
1621785546665.379,-0.194,0.073,-0.347,0.8698891136228435,-5.803925847709697,-6.237210678167757
1621785546670.46,-0.194,0.066,-0.346,1.0580761451516953,-5.840448988697204,-6.058309190957763
1621785546675.541,-0.199,0.063,-0.34,1.2462631766805474,-5.876972129684711,-5.879407703747769
1621785546677.91,-0.20645954257159332,0.06066889294637709,-0.33300667883913126,1.334,-5.894,-5.796
1621785546680.622,-0.215,0.058,-0.325,1.397092103893787,-5.894,-5.726301393080686
1621785546685.703,-0.239,0.056,-0.304,1.515285440299728,-5.894,-5.5957317910825
1621785546690.785,-0.269,0.051,-0.281,1.6335071735478213,-5.894,-5.465130818750836
1621785546694.331,-0.2920311839323467,0.039833365366134924,-0.2614583893907361,1.716,-5.894,-5.374
1621785546695.866,-0.302,0.035,-0.253,1.7142238000356866,-5.899515568310236,-5.385031136620472
1621785546700.947,-0.335,0.024,-0.227,1.7083440046392673,-5.917773880330697,-5.421547760661393
1621785546706.028,-0.368,0.01,-0.204,1.702464209242848,-5.936032192351157,-5.458064384702314
1621785546710.75,-0.4005277497477296,-0.010446014127144297,-0.18448335015136225,1.697,-5.953,-5.492
1621785546711.109,-0.403,-0.012,-0.183,1.6912076072087077,-5.963076577648248,-5.502076577648248
1621785546716.192,-0.428,-0.037,-0.168,1.6091684113483615,-6.105793820258134,-5.644793820258133
1621785546721.274,-0.443,-0.063,-0.147,1.5271449771010528,-6.248483643609112,-5.787483643609113
1621785546726.355,-0.44,-0.089,-0.134,1.4451373044667817,-6.391146047701183,-5.930146047701184
1621785546727.169,-0.43695686010760953,-0.09380495772482705,-0.13063652959262106,1.432,-6.414,-5.953
1621785546731.437,-0.421,-0.119,-0.113,1.3683175580237001,-6.576975065792408,-6.026819647025588
1621785546736.519,-0.391,-0.15,-0.101,1.2924902091975556,-6.771031178910746,-6.114717471787324
1621785546741.603,-0.337,-0.169,-0.086,1.216633718423361,-6.965161871626745,-6.2026490774194505
1621785546743.589,-0.3170689373558801,-0.18072415449654114,-0.08052872790161414,1.187,-7.041,-6.237
1621785546746.685,-0.286,-0.199,-0.072,1.2109427777117032,-7.120557891294006,-6.25547552925785
1621785546751.767,-0.232,-0.209,-0.052,1.2502451088249287,-7.251153038772598,-6.285803312321598
1621785546756.85,-0.171,-0.222,-0.024,1.2895549922692675,-7.381773281398668,-6.316136923168411
1621785546760.011,-0.13493246878001922,-0.222,-0.002856964457252642,1.314,-7.463,-6.335
1621785546761.933,-0.113,-0.222,0.01,1.2520908090913145,-7.4905021925586786,-6.308668113507648
1621785546767.016,-0.08,-0.227,0.038,1.0883731214603185,-7.563231222035586,-6.239033936348907
1621785546772.099,-0.056,-0.223,0.066,0.9246554338293224,-7.635960251512494,-6.169399759190165
1621785546776.435,-0.022738378793699582,-0.223,0.08135151747983096,0.785,-7.698,-6.11
1621785546777.183,-0.017,-0.223,0.084,0.7657808314877299,-7.689073561544064,-6.108178277866136
1621785546782.266,0.021,-0.229,0.093,0.6351858287379045,-7.6284180626365625,-6.095799604619707
1621785546787.35,0.08,-0.225,0.093,0.5045657356897603,-7.56775091041515,-6.0834185531459495
1621785546792.433,0.143,-0.215,0.096,0.37397073293993494,-7.507095411507647,-6.07103987989952
1621785546792.86,0.14904725316941989,-0.21558792739147137,0.09641994813676527,0.363,-7.502,-6.07
1621785546797.517,0.215,-0.222,0.101,0.3740578066472442,-7.360233248112253,-6.042213716630002
1621785546802.601,0.281,-0.234,0.108,0.38612951126701944,-7.205467804268982,-6.011879689636721
1621785546807.685,0.339,-0.236,0.119,0.3982012158867947,-7.050702360425709,-5.981545662643439
1621785546809.285,0.3519020841336919,-0.2397762197464464,0.12434964464079908,0.402,-7.002,-5.972
1621785546812.769,0.38,-0.248,0.136,0.4123914019080453,-6.762785686688263,-5.984512096174994
1621785546817.853,0.412,-0.25,0.159,0.42755435848664075,-6.413728237287128,-6.002769533687996
1621785546822.937,0.433,-0.253,0.187,0.44271731506523615,-6.0646707878859925,-6.021026971200999
1621785546825.714,0.43190772037641634,-0.24371562319953907,0.20393033416554637,0.451,-5.874,-6.031
1621785546828.022,0.431,-0.236,0.218,0.4702439633267456,-5.741820660653521,-6.0708925955094575
1621785546833.107,0.408,-0.213,0.246,0.5126446052572923,-5.450587054400642,-6.1587888167377445
1621785546838.191,0.367,-0.185,0.258,0.5550371041799783,-5.159409379318543,-6.246668157570174
1621785546842.144,0.31802285385058576,-0.16323237948914923,0.2541129249087766,0.588,-4.933,-6.315
1621785546843.276,0.304,-0.157,0.253,0.4630434020296875,-4.8870539962259105,-6.387328791548417
1621785546848.362,0.243,-0.129,0.236,-0.09847963626097689,-4.680584389533588,-6.712355908530334
1621785546853.447,0.182,-0.136,0.195,-0.6598679068661685,-4.474164336339728,-7.037305017756052
1621785546858.532,0.126,-0.145,0.126,-1.2212561774713602,-4.267744283145867,-7.362254126981769
1621785546858.575,0.1253324371038986,-0.14535490685615515,0.12496062992125985,-1.226,-4.266,-7.365
1621785546863.617,0.047,-0.187,0.003,-1.824675403405545,-4.365421235624498,-7.425143710439512
1621785546868.702,-0.051,-0.239,-0.145,-2.4284528245817363,-4.465689756619417,-7.485799976226561
1621785546873.788,-0.138,-0.253,-0.325,-3.0323751894445934,-4.56598234822145,-7.546470803245074
1621785546875.006,-0.14853541946630833,-0.2462956421578038,-0.35660625839892496,-3.177,-4.59,-7.561
1621785546878.875,-0.182,-0.225,-0.457,-2.9462447363337843,-5.077176163801429,-7.912077651149314
1621785546883.96,-0.159,-0.157,-0.527,-2.642958901056448,-5.717480646647152,-8.373505386249832
1621785546889.046,-0.101,-0.101,-0.574,-2.339614819987816,-6.357908099433887,-8.835021738161394
1621785546891.437,-0.06433067729083665,-0.08783665338645419,-0.6045577689243028,-2.197,-6.659,-9.052
1621785546894.132,-0.023,-0.073,-0.639,-2.285397281236072,-6.684748373198633,-9.24650681919477
1621785546899.219,0.059,-0.089,-0.717,-2.4522462487000447,-6.733348165205764,-9.613636458178576
1621785546904.305,0.162,-0.133,-0.799,-2.61906318526222,-6.781938627247065,-9.98069561729312
1621785546907.87,0.24679929932331907,-0.1841599078562173,-0.8361434947449249,-2.736,-6.816,-10.238
1621785546909.392,0.283,-0.206,-0.852,-2.6634007219144102,-6.756920485435451,-10.174475631675108
1621785546914.478,0.403,-0.298,-0.89,-2.4207975520268565,-6.5594959670830795,-9.962197858023499
1621785546919.566,0.504,-0.419,-0.948,-2.178101216559469,-6.3619956328634455,-9.749838564489535
1621785546924.306,0.5533925502808046,-0.5215128402054433,-1.004848029568473,-1.952,-6.178,-9.552
1621785546924.652,0.557,-0.529,-1.009,-1.9377412292427887,-6.169954430680569,-9.507580875144818
1621785546929.739,0.562,-0.63,-1.052,-1.7282237768469833,-6.051733357098298,-8.854889136440603
1621785546934.826,0.538,-0.709,-1.054,-1.5187063244511778,-5.933512283516027,-8.202197397736386
1621785546939.914,0.49,-0.768,-1.025,-1.3091385943023495,-5.8152628405073825,-7.549349033063006
1621785546940.743,0.4764760510654636,-0.7730511134574775,-1.0194600691111537,-1.275,-5.796,-7.443
1621785546945.001,0.407,-0.799,-0.991,-1.2011885422389854,-5.732548045082637,-7.239953744264437
1621785546950.089,0.297,-0.833,-0.962,-1.112988061119938,-5.656726578857491,-6.99732505234397
1621785546955.176,0.199,-0.859,-0.929,-1.0248087403293586,-5.580923303090151,-6.754754569888481
1621785546957.184,0.17018881957773513,-0.865709452975048,-0.9155810940499041,-0.99,-5.551,-6.659
1621785546960.264,0.126,-0.876,-0.895,-0.9111304909560723,-5.716232558139535,-6.789387596899225
1621785546965.353,0.077,-0.876,-0.845,-0.7808066767649766,-5.989262496658648,-7.004839793281654
1621785546970.44,0.066,-0.867,-0.806,-0.6505391309513202,-6.262174552258754,-7.220198966408269
1621785546973.624,0.06162034060925881,-0.8488556968097865,-0.774716718637563,-0.569,-6.433,-7.355
1621785546975.529,0.059,-0.838,-0.756,-0.4974000890868596,-6.528466547884187,-7.407251714922049
1621785546980.617,0.07,-0.813,-0.707,-0.30617336302895315,-6.783435515961395,-7.546803904974016
1621785546985.705,0.089,-0.777,-0.663,-0.11493746102449881,-7.038416718634001,-7.68636279138827
1621785546990.067,0.09928554979850317,-0.7435719631548647,-0.6201435425062368,0.049,-7.257,-7.806
1621785546990.794,0.101,-0.738,-0.613,0.10232147576274961,-7.271325172592977,-7.803833538712791
1621785546995.883,0.12,-0.693,-0.559,0.47555390097245936,-7.371596570410511,-7.788669037191003
1621785547000.971,0.145,-0.649,-0.515,0.8486968005344815,-7.471843916561503,-7.773508173112612
1621785547006.06,0.162,-0.607,-0.456,1.2219292257441912,-7.572115314379037,-7.758343671590825
1621785547006.511,0.16217718726016886,-0.603633442056792,-0.4496212586339217,1.255,-7.581,-7.757
1621785547011.15,0.164,-0.569,-0.384,1.4764503006458316,-7.608646024794003,-7.734996021082325
1621785547016.239,0.161,-0.52,-0.307,1.719391804617326,-7.638975027837577,-7.710856610496623
1621785547021.328,0.141,-0.49,-0.22,1.9623216539232424,-7.669302575903794,-7.686718357954124
1621785547022.955,0.13620388582393858,-0.4746524346366035,-0.19474046533940992,2.04,-7.679,-7.679
1621785547026.417,0.126,-0.442,-0.141,1.8913750408266279,-7.557110692122688,-7.794573799697141
1621785547031.508,0.12,-0.412,-0.075,1.6728083078476201,-7.377861204311292,-7.964535749279967
1621785547036.597,0.119,-0.391,-0.012,1.4543359066480597,-7.198689079248196,-8.134424344547046
1621785547039.4,0.11129056549474795,-0.3816385438150511,0.015533694661614469,1.334,-7.1,-8.228
1621785547041.687,0.105,-0.374,0.038,1.2494419750887038,-7.049515521311183,-8.268888255466976
1621785547046.777,0.086,-0.358,0.08,1.0612534330972847,-6.937159533247227,-8.359887320179931
1621785547051.867,0.096,-0.337,0.113,0.8730739173681319,-6.824808934218145,-8.450882020220016
1621785547055.845,0.12491085215556516,-0.3190283892005946,0.13800398024265093,0.726,-6.737,-8.522
1621785547056.958,0.133,-0.314,0.145,0.7087431086436979,-6.7303679397924805,-8.48552366885864
1621785547062.048,0.19,-0.293,0.175,0.6298247213027149,-6.700038520343789,-8.318711861890836
1621785547067.138,0.251,-0.264,0.201,0.5509101191978268,-6.669710555613283,-8.151908055873054
1621785547072.228,0.3,-0.239,0.225,0.47199173185684384,-6.639381136164591,-7.98509624890525
1621785547072.292,0.3002261111377475,-0.23862314810375412,0.2252386728676224,0.471,-6.639,-7.983
1621785547077.32,0.318,-0.209,0.244,0.34201188797696613,-6.459272488460797,-7.632103429852031
1621785547082.41,0.312,-0.173,0.269,0.2114392169667107,-6.277337108001009,-7.2768962584781605
1621785547087.501,0.298,-0.162,0.288,0.08083523056145087,-6.0953580937680885,-6.921603897356743
1621785547088.742,0.28971236752505636,-0.15858744545149378,0.2931188318227593,0.049,-6.051,-6.835
1621785547092.592,0.264,-0.148,0.309,-0.10477944341372915,-5.933968460111317,-6.637684823747681
1621785547097.684,0.199,-0.133,0.325,-0.30816421521335813,-5.779185528756957,-6.37672080148423
1621785547102.775,0.127,-0.117,0.347,-0.5115002300556586,-5.624439703153989,-6.115819339517625
1621785547105.191,0.09330623891046852,-0.10703423967774421,0.35554208027621925,-0.608,-5.551,-5.992
1621785547107.866,0.056,-0.096,0.365,-0.7483117729107313,-5.507914693138652,-5.9601331315289645
1621785547112.958,-0.005,-0.075,0.38,-1.0153997210351378,-5.42590043328585,-5.899473528015195
1621785547118.05,-0.056,-0.07,0.387,-1.2824876691595444,-5.343886173433048,-5.838813924501425
1621785547121.644,-0.08917925478348437,-0.06011681772406848,0.3933534743202417,-1.471,-5.286,-5.796
1621785547123.141,-0.103,-0.056,0.396,-1.5424324721385432,-5.284180064404113,-5.787901286598306
1621785547128.234,-0.14,-0.052,0.389,-1.7854333476783355,-5.277988959294819,-5.760350868861947
1621785547133.326,-0.157,-0.054,0.379,-2.0283992758247136,-5.271798744564975,-5.732804413314141
1621785547138.096,-0.17479843697559572,-0.05868379920410413,0.35745452366112096,-2.256,-5.266,-5.707
1621785547138.418,-0.176,-0.059,0.356,-2.261557474333867,-5.264082279983384,-5.705082279983384
1621785547143.511,-0.182,-0.068,0.332,-2.349453207524776,-5.2337520621921545,-5.674752062192154
1621785547148.603,-0.192,-0.073,0.311,-2.4373320871164914,-5.20342766007952,-5.64442766007952
1621785547153.696,-0.213,-0.08,0.281,-2.5252278203074003,-5.173097442288292,-5.614097442288291
1621785547154.552,-0.21770671716929568,-0.08100858225056336,0.27746996212302827,-2.54,-5.168,-5.609
1621785547158.788,-0.241,-0.086,0.26,-2.492125941968789,-5.183185857117428,-5.563699816056489
1621785547163.881,-0.279,-0.084,0.239,-2.434567258054946,-5.201443719219131,-5.509235685041239
1621785547168.975,-0.323,-0.07,0.215,-2.37699753753041,-5.219705082181214,-5.4547611107814635
1621785547171.01,-0.34377656871674417,-0.06560495661761181,0.2070090120320215,-2.354,-5.227,-5.433
1621785547174.068,-0.375,-0.059,0.195,-2.328357859134872,-5.261561146383434,-5.503980418916513
1621785547179.161,-0.412,-0.051,0.176,-2.2856550762475525,-5.319117071144603,-5.622186672995906
1621785547184.254,-0.442,-0.033,0.155,-2.2429502462469593,-5.3766757550584465,-5.740398593722186
1621785547187.468,-0.4539905565409137,-0.02542701692152821,0.14174727961267436,-2.216,-5.413,-5.815
1621785547189.347,-0.461,-0.021,0.134,-2.2026444378522694,-5.472358053989915,-5.88999661821418
1621785547194.442,-0.463,-0.003,0.115,-2.166428582023139,-5.633317413230495,-6.093362577870069
1621785547199.535,-0.459,0.019,0.101,-2.1302266093147435,-5.794215069712251,-6.296650578463364
1621785547203.928,-0.43657757009345793,0.03883522645578721,0.08806398274622573,-2.099,-5.933,-6.472
1621785547204.629,-0.433,0.042,0.086,-2.0893766314665405,-5.958889416231608,-6.4857963336497395
1621785547209.723,-0.393,0.052,0.068,-2.019438775510204,-6.14704081632653,-6.5860612244897965
1621785547214.817,-0.342,0.072,0.059,-1.9495009195538682,-6.3351922164214525,-6.686326115329853
1621785547219.912,-0.279,0.079,0.047,-1.8795463039867109,-6.523388704318937,-6.786615033222592
1621785547220.389,-0.273290294751977,0.07834478792235802,0.04671919482386772,-1.873,-6.541,-6.796
1621785547225.006,-0.218,0.072,0.044,-1.8673905441278975,-6.568486333773302,-6.735417876581293
1621785547230.1,-0.15,0.082,0.037,-1.861201812276617,-6.598811119844577,-6.668579572587462
1621785547235.196,-0.093,0.08,0.017,-1.855010707559062,-6.629147532960596,-6.601715641637871
1621785547236.851,-0.07415590702132759,0.08194938892882818,0.012451425832734245,-1.853,-6.639,-6.58
1621785547240.29,-0.035,0.086,0.003,-1.8857940862447358,-6.587824515095795,-6.412060857702118
1621785547245.385,0.0,0.093,-0.009,-1.9343799009431164,-6.51200588706329,-6.163251972240347
1621785547250.48,0.037,0.084,-0.021,-1.982965715641497,-6.436187259030785,-5.914443086778575
1621785547253.315,0.03978211701566917,0.08678211701566918,-0.03769270209401505,-2.01,-6.394,-5.776
1621785547255.575,0.042,0.089,-0.051,-2.002038406216172,-6.3360725417797354,-5.718072541779735
1621785547260.67,0.031,0.115,-0.079,-1.9840897726767204,-6.205480759820277,-5.587480759820276
1621785547265.766,0.024,0.115,-0.087,-1.96613683882735,-6.0748576893989945,-5.456857689398994
1621785547269.779,0.012973213857875318,0.12602678614212467,-0.09960204130528534,-1.952,-5.972,-5.354
1621785547270.861,0.01,0.129,-0.103,-1.948123404444576,-5.965560909077432,-5.3604390909225685
1621785547275.957,-0.024,0.152,-0.12,-1.929866143833484,-5.935235289757313,-5.390764710242688
1621785547281.052,-0.056,0.173,-0.14,-1.9116123819548427,-5.904915481891094,-5.421084518108906
1621785547286.149,-0.093,0.194,-0.148,-1.8933516226112996,-5.874584051117074,-5.451415948882926
1621785547286.247,-0.09351997700488646,0.1941348088531187,-0.14826961770623742,-1.893,-5.874,-5.452
1621785547291.245,-0.12,0.201,-0.162,-1.93762048514323,-6.025770357630034,-5.54457991815432
1621785547296.341,-0.131,0.209,-0.182,-1.9831149842832572,-6.180513551983868,-5.63897326671016
1621785547301.437,-0.119,0.206,-0.218,-2.0286094834232844,-6.335256746337702,-5.733366615265998
1621785547302.713,-0.11324256358672223,0.20424773674378502,-0.23026584279350482,-2.04,-6.374,-5.757
1621785547306.534,-0.096,0.199,-0.267,-2.04,-6.440119222673505,-5.922878049865109
1621785547311.631,-0.054,0.188,-0.318,-2.04,-6.528320432243337,-6.144154768610477
1621785547316.727,-0.002,0.173,-0.379,-2.04,-6.616500518810589,-6.3653784945599
1621785547319.183,0.02594846002778177,0.16288072998994108,-0.4050209800258658,-2.04,-6.659,-6.472
1621785547321.824,0.056,0.152,-0.433,-1.991261053224444,-6.6432881026841955,-6.630882553469001
1621785547326.921,0.113,0.119,-0.48,-1.8971940298507464,-6.612963864886096,-6.937528672427337
1621785547332.018,0.169,0.072,-0.517,-1.803122500704027,-6.582638174569062,-7.244189479612859
1621785547335.655,0.20039665660775016,0.04274402452459645,-0.5419746132107104,-1.736,-6.561,-7.463
1621785547337.115,0.213,0.031,-0.552,-1.6499523717787228,-6.556657740697381,-7.446517138157407
1621785547342.212,0.243,-0.009,-0.56,-1.349548302485144,-6.541498318045079,-7.388973207273159
1621785547347.311,0.264,-0.056,-0.559,-1.0490147300721686,-6.5263323602199135,-7.331404469406204
1621785547352.13,0.2687272117641424,-0.072072519998084,-0.5400911529434306,-0.765,-6.512,-7.277
1621785547352.408,0.269,-0.073,-0.539,-0.7411674520612904,-6.51878518716102,-7.256965131442459
1621785547357.505,0.271,-0.091,-0.515,-0.3043350523102457,-6.643152485107139,-6.88974129397469
1621785547362.603,0.265,-0.093,-0.485,0.13260196793218926,-6.7675495687738945,-6.522429507127827
1621785547367.702,0.25,-0.08,-0.45,0.5696017604694584,-6.891964523873033,-6.155064950653507
1621785547368.605,0.24521726846087538,-0.07628009769179198,-0.44078881333205633,0.647,-6.914,-6.09
1621785547372.8,0.223,-0.059,-0.398,0.9092387020299304,-7.128628374574011,-6.084907986368351
1621785547377.898,0.178,-0.017,-0.323,1.227914505852719,-7.389447503333827,-6.078720106682471
1621785547382.996,0.119,0.033,-0.237,1.5466055711957327,-7.650279122833012,-6.072531930656393
1621785547385.082,0.0895449844385923,0.061636820684701936,-0.19568115872635863,1.677,-7.757,-6.07
1621785547388.095,0.047,0.103,-0.136,1.5963601866943251,-7.941685286709141,-6.383782130686027
1621785547393.193,-0.016,0.173,-0.024,1.4599109053193065,-8.254188176026078,-6.914727633723515
1621785547398.292,-0.075,0.206,0.072,1.323442021040154,-8.566735960883094,-7.445749414728107
1621785547401.559,-0.10319826636655333,0.2047182606197021,0.11429739954983,1.236,-8.767,-7.786
1621785547403.39,-0.119,0.204,0.138,1.1956684594186149,-8.871662014401279,-8.08020914451655
1621785547408.489,-0.099,0.18,0.166,1.083338207840697,-9.16316365899191,-8.899632026550508
1621785547413.589,-0.017,0.157,0.183,0.9709864432393991,-9.45472113076718,-9.719211841052537
1621785547418.037,0.11036289202777115,0.13431893703615036,0.20131932008618625,0.873,-9.709,-10.434
1621785547418.688,0.129,0.131,0.204,0.836580637992088,-9.69312084216141,-10.433249492539966
1621785547423.787,0.312,0.119,0.22,0.5512637606862933,-9.568720208021572,-10.427369860578134
1621785547428.886,0.506,0.096,0.216,0.26596054405642067,-9.444325530054968,-10.421490510126976
1621785547433.987,0.693,0.087,0.192,-0.01946561865674956,-9.31987724652927,-10.415608626079742
1621785547434.515,0.7094595642805841,0.08793167344984439,0.18910146037826192,-0.049,-9.307,-10.415
1621785547439.086,0.852,0.096,0.164,-0.08172912315008223,-8.673219945780188,-9.713265410426203
1621785547444.186,0.983,0.124,0.15,-0.11824631497859356,-7.966086188761981,-8.93031206020473
1621785547449.286,1.052,0.148,0.162,-0.15476175873664877,-7.258986282091167,-8.147396189798972
1621785547450.995,1.0597066621996745,0.1573820235474299,0.16903651766057243,-0.167,-7.022,-7.885
1621785547454.387,1.075,0.176,0.183,0.02480926139898676,-6.42660923473469,-7.30977801973158
1621785547459.487,1.054,0.215,0.215,0.3132203655971322,-5.531358886617486,-6.444854161111605
1621785547464.587,0.99,0.262,0.257,0.6016176636150861,-4.636151393950167,-5.579971706218707
1621785547467.476,0.9316514121589278,0.2976889420775491,0.28249210148396364,0.765,-4.129,-5.09
1621785547469.687,0.887,0.325,0.302,0.8873312498148532,-3.8644854993038478,-4.850568770921586
1621785547474.788,0.749,0.382,0.358,1.1695738661610926,-3.2541977367657076,-4.298153123796546
1621785547479.889,0.586,0.445,0.414,1.4518029741979441,-2.64393918298427,-3.7457639156323133
1621785547483.959,0.424827318847516,0.48808576624868383,0.45788365080884463,1.677,-2.157,-3.305
1621785547484.99,0.384,0.499,0.469,1.7456798886156946,-2.149056151316764,-3.2835453535562995
1621785547490.091,0.166,0.539,0.525,2.085485143822022,-2.109752629084338,-3.177394895873449
1621785547495.191,-0.07,0.599,0.59,2.425209082560654,-2.070458512308558,-3.071269840329413
1621785547500.293,-0.29,0.653,0.661,2.765079390941138,-2.0311474657108155,-2.96509906093551
1621785547500.442,-0.29604220499569334,0.654459469805723,0.6632183941046991,2.775,-2.03,-2.962
1621785547505.395,-0.497,0.703,0.737,2.8134543987205873,-2.6485750544194517,-3.571862729709319
1621785547510.496,-0.672,0.738,0.803,2.853057425478669,-3.285626867660778,-4.199941982200767
1621785547515.597,-0.799,0.742,0.84,2.892658556810946,-3.922648191201078,-4.827991174423598
1621785547516.929,-0.821448378145632,0.7373015022485886,0.8449595254042676,2.903,-4.089,-4.992
1621785547520.7,-0.885,0.724,0.859,2.492366400568729,-4.717189339297087,-5.723362460936921
1621785547525.802,-0.908,0.688,0.862,1.9367907848161259,-5.56711170189132,-6.712875131444482
1621785547530.903,-0.892,0.651,0.836,1.3813215095010294,-6.416871384351071,-7.702198403412373
1621785547533.413,-0.8565771163324879,0.6268927597262764,0.809432837249366,1.108,-6.835,-8.189
1621785547536.005,-0.82,0.602,0.782,0.6810080857743684,-7.056985487071646,-8.569771140005331
1621785547541.107,-0.703,0.548,0.703,-0.1595417468826823,-7.493972366199686,-9.319333619642805
1621785547546.21,-0.548,0.482,0.616,-1.0002524657169092,-7.931042887184196,-10.06903956994343
1621785547549.899,-0.4243845565017702,0.45019251746244376,0.5364812936561094,-1.608,-8.247,-10.611
1621785547551.313,-0.377,0.438,0.506,-1.7358725401643593,-8.289967231805731,-10.594190464203747
1621785547556.415,-0.168,0.379,0.393,-2.197246909010143,-8.44499644628711,-10.533540312430592
1621785547561.519,0.021,0.332,0.283,-2.6587978973865405,-8.600085007773746,-10.472866943066558
1621785547566.387,0.16790488948425988,0.2947968137020381,0.18283757535164097,-3.099,-8.748,-10.415
1621785547566.622,0.175,0.293,0.178,-3.095221292663064,-8.736806470718886,-10.389818123935736
1621785547571.724,0.295,0.274,0.073,-3.0132198119493596,-8.493896424076404,-9.843347878877617
1621785547576.827,0.365,0.267,-0.007,-2.931206559561709,-8.250951506626194,-9.296799185607462
1621785547581.93,0.393,0.271,-0.079,-2.8491893832827424,-8.007994965573406,-8.750224342933294
1621785547582.875,0.3981875179477362,0.2724821479850675,-0.08900449889920552,-2.834,-7.963,-8.649
1621785547587.031,0.421,0.279,-0.133,-2.621612016231603,-7.672255284355884,-8.25489656895403
1621785547591.985,0.44,0.269,-0.173,-2.3684382532856882,-7.325677608866816,-7.785111758827448
1621785547596.939,0.436,0.255,-0.206,-2.115276966870571,-6.97911701290049,-7.315350099933378
1621785547598.999,0.43017839542676917,0.24626759314015376,-0.21473240685984624,-2.01,-6.835,-7.12
1621785547601.893,0.422,0.234,-0.227,-1.8682265072003903,-6.700279015133024,-6.926688949231145
1621785547606.846,0.389,0.211,-0.25,-1.625594581401025,-6.469716789724188,-6.595855366731755
1621785547611.801,0.33,0.187,-0.267,-1.382855015865267,-6.239052279106663,-6.264875015255065
1621785547615.003,0.2782821511312663,0.18118174200226744,-0.2747576773303101,-1.226,-6.09,-6.051
1621785547616.754,0.25,0.178,-0.279,-1.14983251953125,-6.055637084960938,-6.044543273925782
1621785547621.707,0.169,0.175,-0.284,-0.9343715820312499,-5.958432006835937,-6.026278625488281
1621785547626.659,0.094,0.162,-0.278,-0.7189637451171875,-5.861250885009765,-6.008018478393555
1621785547631.003,0.04489651094027203,0.14709358367829686,-0.28238424009461854,-0.53,-5.776,-5.992
1621785547631.613,0.038,0.145,-0.283,-0.5139084167480469,-5.77748713684082,-5.992724502563477
1621785547636.565,-0.016,0.127,-0.291,-0.38330194091796876,-5.789557403564453,-5.998604888916016
1621785547641.517,-0.056,0.11,-0.309,-0.25268902587890624,-5.8016282653808595,-6.004485565185547
1621785547646.469,-0.079,0.099,-0.323,-0.12208255004882812,-5.8136985321044925,-6.010365951538086
1621785547647.003,-0.08212613367507887,0.09846101143533123,-0.32483256111987385,-0.108,-5.815,-6.011
1621785547651.422,-0.108,0.094,-0.34,0.0682259354208631,-5.885435130928402,-5.973158380638466
1621785547656.373,-0.124,0.096,-0.354,0.26565622901788444,-5.964345357993042,-5.93076347433315
1621785547661.324,-0.138,0.098,-0.372,0.4630865226149057,-6.043255585057682,-5.8883685680278335
1621785547663.002,-0.13427259281171425,0.09833885519893508,-0.372,0.53,-6.07,-5.874
1621785547666.276,-0.127,0.099,-0.372,0.6783950485377618,-6.084123114964283,-5.853941083094206
1621785547671.226,-0.115,0.117,-0.379,0.9027692472067892,-6.1054773490445085,-5.82361188106722
1621785547676.178,-0.106,0.133,-0.386,1.1272209078698334,-6.126838955369681,-5.793272208315526
1621785547678.997,-0.10941711467324292,0.133,-0.38087432799013565,1.255,-6.139,-5.776
1621785547681.128,-0.112,0.133,-0.377,1.3321446104996413,-6.127275085105409,-5.730299479444945
1621785547686.079,-0.131,0.143,-0.363,1.5113944616605859,-6.100031584410827,-5.624111743783107
1621785547691.029,-0.161,0.145,-0.344,1.6906001190712443,-6.072794800555666,-5.51795018852947
1621785547694.99,-0.2026020513832043,0.15620055229547808,-0.32319897430839784,1.834,-6.051,-5.433
1621785547695.98,-0.213,0.159,-0.318,1.8437209540242172,-6.055829518559802,-5.433
1621785547700.929,-0.269,0.169,-0.288,1.8923161350414561,-6.079972347345437,-5.433
1621785547705.879,-0.328,0.161,-0.264,1.9409209051625416,-6.1041199401444475,-5.433
1621785547710.828,-0.389,0.157,-0.23,1.9895160861797805,-6.128262768930082,-5.433
1621785547710.979,-0.3907096074176366,0.156419954626159,-0.22911466758729535,1.991,-6.129,-5.433
1621785547715.778,-0.445,0.138,-0.201,1.967289747308955,-6.237947110466448,-5.583064890449652
1621785547720.727,-0.49,0.11,-0.176,1.9428388884647683,-6.350297259332773,-5.73781716161539
1621785547725.675,-0.52,0.091,-0.155,1.9183928544163675,-6.4626252385678296,-5.892538896098939
1621785547726.969,-0.5236604015588773,0.0860323121700952,-0.14924794040747866,1.912,-6.492,-5.933
1621785547730.624,-0.534,0.072,-0.133,1.8424939904396829,-6.613178240351869,-6.076584782907497
1621785547735.573,-0.527,0.042,-0.115,1.7483816185341865,-6.777255730845004,-6.2710011301333255
1621785547740.521,-0.501,0.019,-0.094,1.6542878174681959,-6.94130084454558,-6.465379113914385
1621785547742.955,-0.4872258844426901,0.008669413332017567,-0.09006453841219716,1.608,-7.022,-6.561
1621785547745.469,-0.473,-0.002,-0.086,1.5524808156407515,-7.103627356040935,-6.591826515961509
1621785547750.416,-0.431,-0.03,-0.075,1.443227126928364,-7.264258133496258,-6.652488620742324
1621785547755.365,-0.368,-0.045,-0.073,1.3339303039560102,-7.424952329311135,-6.713174675423858
1621785547758.939,-0.32537546266594286,-0.06667349355969007,-0.073,1.255,-7.541,-6.757
1621785547760.312,-0.309,-0.075,-0.073,1.2802582566985425,-7.5705538785860504,-6.735951452751214
1621785547765.259,-0.237,-0.101,-0.068,1.3712625339891844,-7.677035073783264,-6.660114555009012
1621785547770.207,-0.169,-0.122,-0.056,1.4622847759005224,-7.783537288808774,-6.584262686749565
1621785547774.921,-0.11086346808825707,-0.1353428106026951,-0.031220494594994815,1.549,-7.885,-6.512
1621785547775.153,-0.108,-0.136,-0.03,1.550147813731781,-7.8844188284902375,-6.506435282794023
1621785547780.1,-0.058,-0.136,0.0,1.5746043328138846,-7.872035780853729,-6.387867601674458
1621785547785.046,-0.014,-0.126,0.03,1.599054817123476,-7.85965578879824,-6.269329177743147
1621785547789.993,0.014,-0.119,0.065,1.6235113362055793,-7.847272741161731,-6.150761496623582
1621785547790.901,0.02005909651937793,-0.11698030116020736,0.07069187854850655,1.628,-7.845,-6.129
1621785547794.938,0.047,-0.108,0.096,1.5981853742016319,-7.763388778534975,-6.1711952754943
1621785547799.884,0.082,-0.094,0.124,1.56165813036702,-7.663403187360572,-6.222890612107692
1621785547804.829,0.119,-0.08,0.145,1.525138098585093,-7.563437337652416,-6.274575741832962
1621785547806.879,0.13350587422252935,-0.07212538256491263,0.15577579227959323,1.51,-7.522,-6.296
1621785547809.775,0.154,-0.061,0.171,1.506555854396528,-7.496984626669519,-6.313764540481066
1621785547814.72,0.195,-0.049,0.19,1.5006747914056053,-7.454269537577555,-6.344098444328983
1621785547819.665,0.237,-0.037,0.211,1.4947937284146826,-7.41155444848559,-6.3744323481769
1621785547822.855,0.2608736790123457,-0.03441906172839506,0.22713086419753087,1.491,-7.384,-6.394
1621785547824.609,0.274,-0.033,0.236,1.4650911397047588,-7.355017207127357,-6.358430208747211
1621785547829.554,0.314,-0.042,0.257,1.3920421467648767,-7.273301384516642,-6.258142608270424
1621785547834.499,0.351,-0.056,0.286,1.3189931538249946,-7.191585561905926,-6.157855007793637
1621785547838.831,0.37816231297219893,-0.056,0.31491472026072787,1.255,-7.12,-6.07
1621785547839.443,0.382,-0.056,0.319,1.2433518317565604,-7.102336165920311,-6.065516987879993
1621785547844.386,0.394,-0.066,0.347,1.14928369683168,-6.959686790261199,-6.029313133320088
1621785547849.33,0.408,-0.07,0.379,1.0551923306179216,-6.817002185575204,-5.993100337770714
1621785547854.274,0.407,-0.072,0.398,0.9611056106619389,-6.674324626694585,-5.956889330419234
1621785547854.805,0.4063554600681582,-0.07178515335605275,0.39982619647355166,0.951,-6.659,-5.953
1621785547859.217,0.401,-0.07,0.415,0.8888418453918706,-6.479984514728587,-6.207434046195943
1621785547864.16,0.4,-0.073,0.421,0.819206276655915,-6.279434076769036,-6.492475640888454
1621785547869.103,0.387,-0.072,0.419,0.7495672684470397,-6.078873733127475,-6.777531314490117
1621785547870.776,0.3836156277783266,-0.06963093944482861,0.4166309394448286,0.726,-6.011,-6.874
1621785547874.046,0.377,-0.065,0.412,0.4368427796040058,-5.952840899013837,-6.924377249445761
1621785547878.989,0.323,-0.052,0.377,-0.00026086690619986364,-5.864924868129348,-7.000529867747114
1621785547883.931,0.239,-0.068,0.316,-0.43725657059857803,-5.777030548123232,-7.076663680146778
1621785547886.744,0.17125366865951874,-0.07198507831414595,0.27045624783833194,-0.686,-5.727,-7.12
1621785547888.872,0.12,-0.075,0.236,-0.6938628781971901,-6.009264000366922,-7.194497439190326
1621785547893.814,-0.002,-0.079,0.161,-0.7121214970416916,-6.664717470072926,-7.367490116039077
1621785547898.756,-0.077,-0.049,0.112,-0.7303810179027351,-7.320203320643948,-7.5404913391123545
1621785547902.713,-0.09061125382867305,-0.028182788262029444,0.09358477423179527,-0.745,-7.845,-7.679
1621785547903.698,-0.094,-0.023,0.089,-0.8345939932408668,-7.889179958099491,-7.836900157509214
1621785547908.639,-0.056,-0.007,0.061,-1.2839628247671768,-8.110769547199242,-8.628866300674384
1621785547913.581,0.016,-0.045,0.01,-1.7334426773507867,-8.332413882219809,-9.421028106983927
1621785547918.521,0.12,-0.115,-0.063,-2.1827226920312572,-8.553959674582906,-10.2128377196336
1621785547918.678,0.12416294356034398,-0.11817781951171297,-0.06576470297519027,-2.197,-8.561,-10.238
1621785547923.461,0.251,-0.215,-0.15,-2.129284683031276,-8.3464682878336,-10.302719064005506
1621785547928.402,0.422,-0.328,-0.234,-2.0593295862965513,-8.124840636231552,-10.369578802477633
1621785547933.343,0.606,-0.431,-0.295,-1.9893779460120824,-7.903223935153322,-10.436435237439781
1621785547934.641,0.6559372219476025,-0.45675709342560555,-0.3102439940682155,-1.971,-7.845,-10.454
1621785547938.282,0.796,-0.529,-0.353,-1.8927578469162996,-7.3260469438325995,-9.785177863436124
1621785547943.222,0.941,-0.581,-0.433,-1.7865986753548704,-6.621929989598629,-8.877718122858543
1621785547948.162,1.011,-0.618,-0.517,-1.6804342572197748,-5.917778236661772,-7.9702135340186
1621785547950.602,1.011494018783984,-0.6333145823035097,-0.5510872960949086,-1.628,-5.57,-7.522
1621785547953.101,1.012,-0.649,-0.586,-1.552680026924489,-5.236775670052626,-7.021380553175866
1621785547958.041,0.953,-0.654,-0.635,-1.403791365805899,-4.578074899033166,-6.03178169746665
1621785547962.979,0.841,-0.648,-0.644,-1.254961571411088,-3.9196345612532126,-5.042574103536899
1621785547966.561,0.7235079584775087,-0.6385716262975779,-0.6374726643598616,-1.147,-3.442,-4.325
1621785547967.918,0.679,-0.635,-0.635,-1.1578860325621252,-3.4228643958868896,-4.1865432733504715
1621785547972.857,0.475,-0.599,-0.628,-1.1975089974293058,-3.3532146529562983,-3.6825886889460158
1621785547977.795,0.257,-0.581,-0.606,-1.2371241278002203,-3.2835786816011754,-3.178733749540948
1621785547982.516,0.03614179768614656,-0.5580536932660932,-0.5907024621773954,-1.275,-3.217,-2.697
1621785547982.733,0.026,-0.557,-0.59,-1.2700671951275497,-3.2361876597242416,-2.7109966639631504
1621785547987.671,-0.183,-0.515,-0.567,-1.1577125652287021,-3.6732255038486845,-3.029799057340046
