time,gyro_x,gyro_y,gyro_z,acc_x,acc_y,acc_z
1621786673564.098,-0.035,0.04,0.014,,,
1621786673569.1,-0.031,0.038,0.017,,,
1621786673574.101,-0.035,0.038,0.019,,,
1621786673579.102,-0.03,0.044,0.023,,,
1621786673584.103,-0.031,0.049,0.019,,,
1621786673586.84,-0.030452694786174576,0.042432337434094906,0.0211892208553017,-0.814,-6.011,-7.139
1621786673589.104,-0.03,0.037,0.023,-0.814,-6.013801891495823,-7.141801891495823
1621786673594.105,-0.035,0.042,0.024,-0.814,-6.01999125258721,-7.14799125258721
1621786673599.107,-0.033,0.051,0.026,-0.814,-6.026181822302125,-7.154181822302125
1621786673603.0,-0.030664616285881664,0.053335383714118334,0.026,-0.814,-6.031,-7.159
1621786673604.108,-0.03,0.054,0.026,-0.815371266260746,-6.031,-7.163045235469201
1621786673609.109,-0.028,0.051,0.03,-0.8215610014051097,-6.031,-7.181304954145074
1621786673614.11,-0.024,0.049,0.031,-0.8277510387236163,-6.031,-7.1995655642346685
1621786673619.111,-0.028,0.049,0.03,-0.83394077386798,-6.031,-7.217825282910542
1621786673619.159,-0.02791390081999219,0.048952167122217886,0.029980866848887153,-0.834,-6.031,-7.218
1621786673624.113,-0.019,0.044,0.028,-0.8459566688825769,-6.031,-7.218
1621786673629.114,-0.023,0.054,0.031,-0.8580264700549949,-6.031,-7.218
1621786673634.115,-0.014,0.052,0.028,-0.8700962712274128,-6.031,-7.218
1621786673635.318,-0.014481156024214022,0.05007537590314391,0.02751884397578598,-0.873,-6.031,-7.218
1621786673639.116,-0.016,0.044,0.026,-0.8821667648791985,-6.035700905066255,-7.2132990949337445
1621786673644.117,-0.016,0.047,0.026,-0.8942374779021803,-6.041891014308811,-7.20710898569119
1621786673649.119,-0.014,0.04,0.031,-0.9063105480259281,-6.0480823323209885,-7.200917667679011
1621786673651.476,-0.012114718086404687,0.04,0.029586038564803515,-0.912,-6.051,-7.198
1621786673654.12,-0.01,0.04,0.028,-0.9152727437559495,-6.051,-7.198
1621786673659.121,-0.014,0.033,0.024,-0.9214628529985042,-6.051,-7.198
1621786673664.122,-0.009,0.03,0.023,-0.927652962241059,-6.051,-7.198
1621786673667.634,-0.009702255418863503,0.028595489162272995,0.023702255418863505,-0.932,-6.051,-7.198
1621786673669.123,-0.01,0.028,0.024,-0.9391879787860932,-6.049156928516386,-7.2015939893930465
1621786673674.124,-0.009,0.024,0.021,-0.9633294048320566,-6.042966819273832,-7.213664702416029
1621786673679.126,-0.01,0.016,0.019,-0.9874755450795522,-6.036775501261653,-7.225737772539777
1621786673683.792,-0.011866041788713142,0.012267916422573716,0.020866041788713142,-1.01,-6.031,-7.237
1621786673684.127,-0.012,0.012,0.021,-1.0112230196262106,-6.031414582924139,-7.237414582924139
1621786673689.128,-0.003,0.007,0.014,-1.0294827383020835,-6.037604318068503,-7.243604318068503
1621786673694.129,-0.002,0.005,0.014,-1.0477424569779563,-6.043794053212866,-7.249794053212867
1621786673699.131,0.002,0.002,0.007,-1.0660066327224378,-6.049985299227945,-7.2559852992279446
1621786673699.951,0.0016721343487600079,0.0016721343487600079,0.006344268697520016,-1.069,-6.051,-7.257
1621786673704.132,0.0,0.0,0.003,-1.069,-6.045825043814589,-7.2365589230676255
1621786673709.133,0.01,-0.005,0.0,-1.069,-6.039635402187708,-7.212109838641445
1621786673714.134,0.007,-0.009,0.0,-1.069,-6.033445760560826,-7.1876607542152655
1621786673716.11,0.006209724663151729,-0.009395137668424135,-0.0019756883421206796,-1.069,-6.031,-7.178
1621786673719.135,0.005,-0.01,-0.005,-1.069,-6.0163977607542725,-7.170698880377136
1621786673724.136,0.005,-0.012,-0.005,-1.069,-5.992256334708308,-7.158628167354155
1621786673729.138,0.009,-0.002,-0.01,-1.069,-5.968110194460813,-7.146555097230407
1621786673732.268,0.0077481937121655926,-0.006381322007420425,-0.01,-1.069,-5.953,-7.139
1621786673734.139,0.007,-0.009,-0.01,-1.0644846571078912,-5.955199782434617,-7.141315560457492
1621786673739.14,0.002,-0.021,-0.014,-1.052414673576382,-5.961080030821763,-7.147505295601856
1621786673744.141,0.0,-0.01,-0.014,-1.040344100805294,-5.966960566274344,-7.153695332920362
1621786673748.427,0.0,-0.015142062097246632,-0.016571031048623317,-1.03,-5.972,-7.159
1621786673749.142,0.0,-0.016,-0.017,-1.0308409163027548,-5.973726091358286,-7.161611266413817
1621786673754.144,0.0,-0.017,-0.021,-1.0367230239199745,-5.985799891204159,-7.1798767584883425
1621786673759.145,0.005,-0.012,-0.023,-1.0426039831366445,-5.997871333806797,-7.198138684476949
1621786673764.146,0.009,-0.016,-0.028,-1.0484849423533145,-6.009942776409435,-7.216400610465556
1621786673764.584,0.009613063854715876,-0.016437902753368483,-0.028175161101347393,-1.049,-6.011,-7.218
1621786673769.147,0.016,-0.021,-0.03,-1.049,-6.005634422736957,-7.218
1621786673774.148,0.019,-0.019,-0.031,-1.049,-5.999753818956529,-7.218
1621786673779.149,0.014,-0.023,-0.038,-1.049,-5.9938732151761025,-7.218
1621786673780.742,0.014955437329168294,-0.023,-0.03768152089027724,-1.049,-5.992,-7.218
1621786673784.151,0.017,-0.023,-0.037,-1.0365531902035143,-5.98778074244187,-7.218
1621786673789.152,0.019,-0.033,-0.038,-1.0182925801139195,-5.981590705123363,-7.218
1621786673794.153,0.017,-0.033,-0.035,-1.0000328614380467,-5.975400969978999,-7.218
1621786673796.901,0.017,-0.03409890646358133,-0.036648359695372,-0.99,-5.972,-7.218
1621786673799.154,0.017,-0.035,-0.038,-0.9845619900888378,-5.969350713120203,-7.215211276968635
1621786673804.156,0.021,-0.04,-0.038,-0.9724898319937149,-5.9634694053302715,-7.209020426663444
1621786673809.157,0.017,-0.037,-0.04,-0.9604200308212969,-5.957589245784734,-7.2028307850365625
1621786673813.06,0.017,-0.037,-0.03765861159929701,-0.951,-5.953,-7.198
1621786673814.158,0.017,-0.037,-0.037,-0.9469915547430919,-5.954290855252225,-7.199358795002342
1621786673819.159,0.023,-0.031,-0.037,-0.9287329395235001,-5.960170748289043,-7.205548156093729
1621786673824.16,0.017,-0.035,-0.038,-0.9104743243039084,-5.96605064132586,-7.2117375171851155
1621786673829.162,0.021,-0.031,-0.037,-0.8922112522850538,-5.971931969603118,-7.217928389055914
1621786673829.22,0.02097685998828354,-0.031,-0.03691900995899238,-0.892,-5.972,-7.218
1621786673834.163,0.019,-0.031,-0.03,-0.8681393324973182,-5.953951546376177,-7.2118818801275175
1621786673839.164,0.023,-0.035,-0.03,-0.8439993654342998,-5.935691827700304,-7.205692144983154
1621786673844.165,0.019,-0.035,-0.028,-0.8198593983712813,-5.917432109024431,-7.19950240983879
1621786673845.379,0.018271821909783246,-0.03233001366920524,-0.026786369849638742,-0.814,-5.913,-7.198
1621786673849.166,0.016,-0.024,-0.023,-0.8072034809935336,-5.917687254487219,-7.188859853749925
1621786673854.167,0.016,-0.024,-0.024,-0.7982285006345561,-5.923876896114099,-7.176790052577506
1621786673859.169,0.01,-0.017,-0.019,-0.7892517676920288,-5.93006774641929,-7.164717894482384
1621786673861.538,0.01094747119703183,-0.017,-0.01805252880296817,-0.785,-5.933,-7.159
1621786673864.17,0.012,-0.017,-0.017,-0.7817427595896723,-5.929742759589672,-7.159
1621786673869.171,0.01,-0.017,-0.014,-0.7755533984982853,-5.923553398498285,-7.159
1621786673874.172,0.002,-0.014,-0.007,-0.769363735251016,-5.917363735251016,-7.159
1621786673877.698,0.0005901991409605623,-0.010475497852401405,-0.007,-0.765,-5.913,-7.159
1621786673879.174,0.0,-0.009,-0.007,-0.759610186906003,-5.914827055286101,-7.160735702521795
1621786673884.175,0.0,-0.005,0.0,-0.7413493646404665,-5.921017164528656,-7.166616306302222
1621786673889.176,0.0,-0.007,0.005,-0.7230885423749301,-5.92720727377121,-7.17249691008265
1621786673893.856,-0.004679017769966803,-0.0004493751220464755,0.011550624877953525,-0.706,-5.933,-7.178
1621786673894.177,-0.005,0.0,0.012,-0.706,-5.933,-7.178397358997991
1621786673899.178,-0.009,0.0,0.012,-0.706,-5.933,-7.184587094142354
1621786673904.179,-0.01,0.005,0.023,-0.706,-5.933,-7.190776829286718
1621786673909.181,-0.012,0.012,0.024,-0.706,-5.933,-7.196967773127654
1621786673910.015,-0.012,0.01233352860769381,0.02466705721538762,-0.706,-5.933,-7.198
1621786673914.182,-0.012,0.014,0.028,-0.695943618564177,-5.933,-7.198
1621786673919.183,-0.014,0.019,0.035,-0.683873957577955,-5.933,-7.198
1621786673924.184,-0.014,0.024,0.038,-0.6718048857868021,-5.933,-7.198
1621786673926.175,-0.013203768795157196,0.024796231204842804,0.04038869361452841,-0.667,-5.933,-7.198
1621786673929.185,-0.012,0.026,0.044,-0.667,-5.929274945237555,-7.198
1621786673934.187,-0.017,0.037,0.049,-0.667,-5.923084749603444,-7.198
1621786673939.188,-0.016,0.04,0.054,-0.667,-5.916895762519828,-7.198
1621786673942.336,-0.0166294669009959,0.0456652021089631,0.0552589338019918,-0.667,-5.913,-7.198
1621786673944.189,-0.017,0.049,0.056,-0.6647068100791589,-5.910821469575201,-7.195706810079159
1621786673949.19,-0.017,0.045,0.063,-0.6585179164904225,-5.904942020665901,-7.189517916490423
1621786673954.191,-0.019,0.052,0.066,-0.6523290229016859,-5.899062571756602,-7.183329022901686
1621786673958.497,-0.019,0.06146937381033725,0.07374766948118502,-0.647,-5.894,-7.178
1621786673959.193,-0.019,0.063,0.075,-0.6461816753531233,-5.894818324646876,-7.178861394365133
1621786673964.194,-0.023,0.061,0.075,-0.6403021376236876,-5.900697862376313,-7.18505038144875
1621786673969.195,-0.023,0.072,0.087,-0.6344225998942519,-5.906577400105748,-7.191239368532367
1621786673974.196,-0.024,0.077,0.087,-0.628543062164816,-5.912456937835184,-7.197428355615983
1621786673974.658,-0.02390763522749463,0.07810837727006444,0.08764655340753759,-0.628,-5.913,-7.198
1621786673979.197,-0.023,0.089,0.094,-0.6223816387894172,-5.918618361210583,-7.208955804360636
1621786673984.199,-0.024,0.096,0.098,-0.6161903207772389,-5.924809679222761,-7.221028874484384
1621786673989.2,-0.023,0.099,0.105,-0.6100002115346841,-5.930999788465316,-7.2330995875073665
1621786673990.816,-0.02170747900800625,0.09964626049599688,0.1059693907439953,-0.608,-5.933,-7.237
1621786673994.201,-0.019,0.101,0.108,-0.6161701770820742,-5.933,-7.249360011483138
1621786673999.202,-0.016,0.11,0.117,-0.6282407077239212,-5.933,-7.267620557838753
1621786674004.203,-0.012,0.11,0.12,-0.6403112383657682,-5.933,-7.285881104194368
1621786674006.974,-0.006459954121723852,0.11498604129044854,0.12332402752696568,-0.647,-5.933,-7.296
1621786674009.205,-0.002,0.119,0.126,-0.6388547536674171,-5.92761585411914,-7.290615854119141
1621786674014.206,-0.003,0.12,0.129,-0.6205961384478252,-5.915546599990935,-7.278546599990936
1621786674019.207,0.002,0.126,0.134,-0.6023375232282334,-5.903477345862731,-7.2664773458627305
1621786674023.134,-0.0019262351103300135,0.12992623511033002,0.134,-0.588,-5.894,-7.257
1621786674024.208,-0.003,0.131,0.134,-0.5867371228261034,-5.890078434038953,-7.253078434038953
1621786674029.209,-0.005,0.136,0.147,-0.5808565190456764,-5.871817611773416,-7.234817611773416
1621786674034.211,-0.012,0.15,0.152,-0.5749747669341069,-5.85355322363749,-7.21655322363749
1621786674039.212,-0.012,0.154,0.159,-0.5690941631536799,-5.835292401371953,-7.198292401371954
1621786674039.292,-0.012176137473149776,0.1541120874829135,0.15914411247803165,-0.569,-5.835,-7.198
1621786674044.213,-0.023,0.161,0.168,-0.569,-5.835,-7.198
1621786674049.214,-0.024,0.164,0.169,-0.569,-5.835,-7.198
1621786674054.216,-0.028,0.164,0.178,-0.569,-5.835,-7.198
1621786674055.45,-0.030220562390158173,0.16622056239015817,0.17849345830892402,-0.569,-5.835,-7.198
1621786674059.217,-0.037,0.173,0.18,-0.5780936154136758,-5.839663392519834,-7.198
1621786674064.218,-0.042,0.178,0.187,-0.5901657876841707,-5.845854250094447,-7.198
1621786674069.219,-0.045,0.185,0.194,-0.6022379599546657,-5.85204510766906,-7.198
1621786674071.606,-0.04356810193321617,0.18643189806678384,0.19447729935559463,-0.608,-5.855,-7.198
1621786674074.22,-0.042,0.188,0.195,-0.6175443667185398,-5.864382597791107,-7.198
1621786674079.222,-0.049,0.19,0.197,-0.6358076510492997,-5.88233633492982,-7.198
1621786674084.223,-0.047,0.187,0.208,-0.6540673697251727,-5.900286566848475,-7.198
1621786674087.765,-0.047,0.19266580424701002,0.21012467659262873,-0.667,-5.913,-7.198
1621786674089.224,-0.047,0.195,0.211,-0.672328221322374,-5.9166123534388975,-7.2015220446029256
1621786674094.225,-0.047,0.194,0.213,-0.6905887676779886,-5.928992384866433,-7.213592575244772
1621786674099.226,-0.042,0.197,0.216,-0.7088493140336033,-5.9413724162939685,-7.225663105886619
1621786674103.923,-0.04387807497071456,0.20545133736821553,0.216,-0.726,-5.953,-7.237
1621786674104.228,-0.044,0.206,0.216,-0.7267359602338828,-5.95224516899089,-7.237
1621786674109.229,-0.04,0.206,0.223,-0.738805943765392,-5.939865698702162,-7.237
1621786674114.23,-0.04,0.208,0.223,-0.7508759272969012,-5.927486228413435,-7.237
1621786674119.231,-0.04,0.209,0.227,-0.7629459108284105,-5.915106758124708,-7.237
1621786674120.082,-0.04,0.209,0.22751054481546573,-0.765,-5.913,-7.237
1621786674124.232,-0.04,0.209,0.23,-0.765,-5.92327271216402,-7.22184774955807
1621786674129.234,-0.047,0.211,0.229,-0.765,-5.935654599845892,-7.20358446522731
1621786674134.235,-0.054,0.211,0.236,-0.765,-5.948034674482905,-7.185323855137716
1621786674136.241,-0.05319781292716266,0.211,0.237203280609256,-0.765,-5.953,-7.178
1621786674139.236,-0.052,0.211,0.239,-0.7687068483630706,-5.978391911287034,-7.185413696726141
1621786674144.237,-0.059,0.213,0.239,-0.7748962094544576,-6.020789034763034,-7.197792418908915
1621786674149.239,-0.056,0.206,0.248,-0.7810867791693735,-6.063194437310209,-7.210173558338747
1621786674152.401,-0.059161247803163446,0.206,0.2492644991212654,-0.785,-6.09,-7.218
1621786674154.24,-0.061,0.206,0.25,-0.7905771334461501,-6.10673140033845,-7.233593209839236
1621786674159.241,-0.052,0.208,0.255,-0.8057426719448809,-6.152228015834643,-7.275994817478545
1621786674164.242,-0.044,0.201,0.26,-0.8209082104436117,-6.197724631330836,-7.318396425117854
1621786674168.559,-0.030187853934778363,0.20704281390353446,0.26172651825815274,-0.834,-6.237,-7.355
1621786674169.243,-0.028,0.208,0.262,-0.8356504600601327,-6.23949684983456,-7.357073654947347
1621786674174.245,-0.014,0.206,0.262,-0.8477233897895357,-6.2577610255790415,-7.372242207684288
1621786674179.246,0.0,0.201,0.262,-0.8597933733210449,-6.2760207442549145,-7.387407058787979
1621786674184.247,0.021,0.202,0.264,-0.8718633568525541,-6.294280462930788,-7.4025719098916705
1621786674184.718,0.021941710603397776,0.2008699472759227,0.26343497363796137,-0.873,-6.296,-7.404
1621786674189.248,0.031,0.19,0.258,-0.8839333403840633,-6.268526478009277,-7.384656397782042
1621786674194.25,0.04,0.195,0.26,-0.8960056808738877,-6.238190853188693,-7.3632976415308145
1621786674199.251,0.051,0.19,0.253,-0.9080756644053969,-6.207861150981311,-7.341943055282759
1621786674200.877,0.05096592865449897,0.19007696840098123,0.25307265817052627,-0.912,-6.198,-7.335
1621786674217.036,0.050627328032175165,0.19084187944538744,0.2537947341964457,-1.01,-6.129,-7.277
1621786674233.197,0.050288681367492566,0.1916068945011463,0.2545169084090821,-1.206,-6.07,-7.335
1621786674249.357,0.04995006028189819,0.19237185177282035,0.25523902807354243,-1.412,-6.031,-7.365
1621786674265.517,0.04961143408048617,0.19313682060131135,0.2559611586476379,-1.569,-5.992,-7.296
1621786674281.676,0.049272833458162364,0.19390173164571756,0.25668323467355736,-1.549,-5.953,-7.198
1621786674297.835,0.04893423283583855,0.19466664269012374,0.2574053106994768,-1.412,-5.913,-7.139
1621786674313.996,0.04859558617115596,0.19543165774588261,0.2581274849121132,-1.255,-5.913,-7.12
1621786674330.158,0.04825692415902044,0.19619670747209236,0.2588496918536552,-1.128,-5.894,-7.159
1621786674346.32,0.04791825703106728,0.1969617687551191,0.2595719097048324,-1.01,-5.894,-7.178
1621786674362.481,0.04757961548220233,0.197726772254061,0.2602940730078336,-0.853,-5.835,-7.178
1621786674378.641,0.047240989280790305,0.19849174108255202,0.2610162035819291,-0.706,-5.835,-7.08
1621786674394.799,0.04690240912173707,0.19925660589969035,0.2617382359693077,-0.549,-5.855,-7.022
1621786674410.958,0.046563808499413266,0.20002151694409653,0.2624603119952271,-0.451,-5.894,-7.002
1621786674427.118,0.04622518741381888,0.2007864742157706,0.2631824316596874,-0.412,-5.933,-7.061
1621786674443.277,0.04588658167567744,0.20155139681699374,0.2639045185952421,-0.412,-5.933,-7.1
1621786674459.438,0.045547940126812486,0.20231640031593565,0.26462668189824323,-0.402,-5.953,-7.08
1621786674475.601,0.04520925253558875,0.20308150782623022,0.26534894338796133,-0.49,-5.953,-7.08
1621786674491.763,0.044870590523453234,0.20384655755243997,0.26607115032950335,-0.588,-5.992,-7.061
1621786674507.925,0.04453192339550007,0.20461161883546672,0.26679336818068056,-0.745,-5.992,-7.061
1621786674524.085,0.04419330230990569,0.20537657610714075,0.2675154878451409,-0.853,-5.992,-7.022
1621786674540.244,0.04385470168758188,0.20614148715154695,0.2682375638710603,-0.932,-5.992,-7.041
1621786674556.405,0.04351605502289929,0.2069065022073058,0.26895973808369666,-0.971,-6.051,-7.1
1621786674572.565,0.043177433937304915,0.20767145947897986,0.269681857748157,-0.951,-6.09,-7.159
1621786674588.725,0.042838807735892895,0.20843642830747086,0.2704039883222525,-0.892,-6.129,-7.139
1621786674604.886,0.04250016618702794,0.20920143180641276,0.27112615162525366,-0.873,-6.09,-7.178
1621786674621.047,0.04216151952234535,0.20996644686217164,0.27184832583789004,-0.873,-6.07,-7.12
1621786674637.207,0.04182289843675097,0.2107314041338457,0.2725704455023503,-0.892,-6.07,-7.12
1621786674653.366,0.04148429781442717,0.21149631517825188,0.27329252152826977,-0.892,-6.07,-7.159
1621786674669.527,0.04114565114974457,0.21226133023401075,0.27401469574090614,-0.912,-6.11,-7.139
1621786674685.686,0.040807050527420764,0.21302624127841693,0.2747367717668256,-0.912,-6.09,-7.1
1621786674701.849,0.04046836293619703,0.21379134878871153,0.2754590332565437,-0.912,-6.051,-7.1
1621786674718.01,0.040129721387332076,0.21455635228765343,0.2761811965595448,-0.873,-6.09,-7.061
1621786674734.171,0.03979107983846713,0.21532135578659534,0.276903359862546,-0.814,-6.09,-7.12
1621786674750.331,0.03945245363705511,0.21608632461508634,0.27762549043664153,-0.785,-6.11,-7.178
1621786674766.492,0.03911381208819016,0.21685132811402824,0.27834765373964265,-0.726,-6.11,-7.159
1621786674782.651,0.03877521146586635,0.21761623915843442,0.2790697297655621,-0.686,-6.07,-7.1
1621786674798.81,0.03843660572772491,0.2183811617596576,0.27979181670111675,-0.647,-6.051,-7.12
1621786674814.97,0.038097984642130524,0.21914611903133163,0.2805139363655771,-0.628,-6.051,-7.08
1621786674831.13,0.03775936355653615,0.2199110763030057,0.2812360560300374,-0.608,-6.07,-7.061
1621786674847.292,0.037420696428582985,0.2206761375860324,0.2819582738812146,-0.628,-6.129,-7.08
1621786674863.453,0.03708205487971803,0.2214411410849743,0.28268043718421576,-0.628,-6.11,-7.08
1621786674879.615,0.03674338775176487,0.22220620236800104,0.28340265503539297,-0.628,-6.11,-7.061
1621786674895.776,0.03640474620289992,0.22297120586694294,0.28412481833839415,-0.667,-6.139,-7.061
1621786674911.936,0.0360661200014879,0.22373617469543394,0.28484694891248963,-0.706,-6.159,-7.139
1621786674928.095,0.03572751937916409,0.22450108573984015,0.2855690249384091,-0.785,-6.178,-7.198
1621786674944.255,0.03538889829356971,0.2252660430115142,0.2862911446028694,-0.814,-6.159,-7.218
1621786674960.415,0.03505027209215769,0.2260310118400052,0.2870132751769649,-0.873,-6.129,-7.178
1621786674976.575,0.034711651006563315,0.22679596911167926,0.2877353948414252,-0.912,-6.09,-7.12
1621786674992.735,0.034373024805151295,0.22756093794017027,0.2884575254155207,-0.873,-6.11,-7.08
1621786675008.895,0.03403440371955692,0.22832589521184432,0.289179645079981,-0.873,-6.11,-7.139
1621786675025.056,0.033695762170691965,0.22909089871078622,0.2899018083829822,-0.873,-6.07,-7.178
1621786675041.216,0.033357135969279944,0.22985586753927723,0.2906239389570777,-0.834,-6.09,-7.08
1621786675057.375,0.03301853534695613,0.2306207785836834,0.29134601498299717,-0.804,-6.051,-7.002
1621786675073.532,0.032679975651173476,0.2313855971735539,0.2920680037318349,-0.804,-6.09,-7.08
1621786675089.69,0.032341395492120235,0.23215046199069223,0.29279003611921345,-0.834,-6.11,-7.139
1621786675105.848,0.032002815333067,0.23291532680783056,0.29351206850659206,-0.853,-6.09,-7.159
1621786675122.005,0.03166425563728434,0.23368014539770104,0.2942340572554298,-0.834,-6.051,-7.08
1621786675138.164,0.03132564989914288,0.2344450679989242,0.2949561441909844,-0.814,-6.031,-7.061
1621786675154.324,0.030987028813548506,0.23521002527059826,0.2956782638554447,-0.765,-6.051,-7.061
1621786675170.483,0.0306484281912247,0.23597493631500444,0.29640033988136416,-0.726,-6.129,-7.12
1621786675186.641,0.03030984291635382,0.23673981268895972,0.29712238317837797,-0.647,-6.129,-7.1
1621786675202.8,0.029971242294030014,0.23750472373336592,0.2978444592042974,-0.608,-6.11,-7.041
1621786675218.959,0.029632641671706206,0.2382696347777721,0.29856653523021687,-0.608,-6.09,-7.002
1621786675235.119,0.02929402058611183,0.23903459204944616,0.29928865489467715,-0.588,-6.09,-7.08
1621786675251.28,0.028955373921429235,0.23979960710520504,0.3000108291073135,-0.608,-6.09,-7.12
1621786675267.44,0.02861675283583486,0.24056456437687906,0.30073294877177387,-0.608,-6.07,-7.1
1621786675283.599,0.02827814709769341,0.24132948697810222,0.3014550357073285,-0.647,-6.07,-7.08
1621786675299.756,0.027939587401910743,0.2420943055679727,0.30217702445616623,-0.706,-6.11,-7.1
1621786675315.915,0.027600986779586934,0.2428592166123789,0.3028991004820857,-0.726,-6.129,-7.159
1621786675332.074,0.02726238615726313,0.2436241276567851,0.30362117650800513,-0.765,-6.11,-7.178
1621786675348.233,0.02692378553493932,0.24438903870119127,0.3043432525339246,-0.745,-6.129,-7.139
1621786675364.392,0.02658517979679787,0.24515396130241443,0.3050653394694792,-0.765,-6.09,-7.139
1621786675380.554,0.02624651778466235,0.24591901102862418,0.30578754641102124,-0.785,-6.09,-7.159
1621786675396.716,0.025907850656709187,0.2466840723116509,0.30650976426219845,-0.804,-6.09,-7.12
1621786675412.876,0.02556922957111481,0.24744902958332496,0.3072318839266588,-0.834,-6.051,-7.1
1621786675429.035,0.025230628948791002,0.24821394062773117,0.30795395995257824,-0.853,-6.031,-7.061
1621786675445.194,0.024892023210649553,0.2489788632289543,0.3086760468881329,-0.892,-5.992,-7.002
1621786675461.353,0.024553422588325744,0.2497437742733605,0.30939812291405233,-0.912,-6.031,-7.022
1621786675477.513,0.024214801502731365,0.25050873154503456,0.3101202425785126,-0.971,-6.051,-7.1
1621786675493.674,0.023876154838048773,0.25127374660079344,0.310842416791149,-1.03,-6.051,-7.139
1621786675509.831,0.02353759514226611,0.2520385651906639,0.3115644055399867,-1.108,-6.07,-7.139
1621786675525.99,0.0231989945199423,0.2528034762350701,0.31228648156590616,-1.108,-6.07,-7.159
1621786675542.148,0.022860414360889068,0.25356834105220843,0.3130085139532848,-1.089,-6.031,-7.1
1621786675558.306,0.02252183420183583,0.25433320586934677,0.31373054634066333,-1.01,-6.07,-7.139
1621786675574.464,0.022183248926964952,0.25509808224330205,0.31445258963767714,-0.951,-6.07,-7.159
1621786675590.623,0.021844648304641143,0.25586299328770823,0.3151746656635966,-0.912,-6.07,-7.178
1621786675606.782,0.02150604768231734,0.25662790433211446,0.31589674168951604,-0.873,-6.031,-7.159
1621786675622.941,0.02116744705999353,0.2573928153765206,0.3166188177154355,-0.804,-5.992,-7.12
1621786682118.619,-0.11494551654210422,0.5648769198993318,0.6068838123849691,-1.294,-5.649,-7.1
1621786682121.219,-0.115,0.565,0.607,-1.328757645352351,-5.645781699504412,-7.115769672428382
1621786682126.22,-0.106,0.583,0.623,-1.3956098150610419,-5.639591683790644,-7.146100749425843
1621786682131.253,-0.105,0.599,0.63,-1.4628895201257102,-5.6333620814698415,-7.176625800797776
1621786682134.777,-0.10082280312530144,0.617101186457027,0.6334809973955822,-1.51,-5.629,-7.198
1621786682136.315,-0.099,0.625,0.635,-1.5239907982412402,-5.632711844431349,-7.20171184443135
1621786682141.407,-0.091,0.63,0.642,-1.5703165767644258,-5.645002357100766,-7.2140023571007665
1621786682146.528,-0.089,0.642,0.651,-1.6169066678754362,-5.657362993517973,-7.226362993517973
1621786682150.935,-0.08643277709301223,0.6522688916279511,0.6535672229069878,-1.657,-5.668,-7.237
1621786682151.678,-0.086,0.654,0.654,-1.657,-5.672644094621711,-7.237860017522539
1621786682156.859,-0.08,0.661,0.663,-1.657,-5.705030664443377,-7.243857530452477
1621786682162.068,-0.079,0.674,0.66,-1.657,-5.737594268433994,-7.249887827487776
1621786682167.306,-0.068,0.688,0.672,-1.657,-5.770336432750191,-7.255951191250035
1621786682168.212,-0.06645188653008251,0.6905801891165291,0.6737201260776862,-1.657,-5.776,-7.257
1621786682172.573,-0.059,0.703,0.682,-1.6521654226375317,-5.800936241132731,-7.257
1621786682177.87,-0.044,0.721,0.689,-1.6462931825304121,-5.831224637474715,-7.257
1621786682183.198,-0.024,0.737,0.698,-1.6403868408307454,-5.861688926241417,-7.257
1621786682185.351,-0.018371022157381234,0.7422269079967174,0.7028248381508161,-1.638,-5.874,-7.257
1621786682188.553,-0.01,0.75,0.71,-1.6451573401620418,-5.870513090690287,-7.257
1621786682193.938,0.003,0.761,0.717,-1.6571946601737961,-5.864648755299945,-7.257
1621786682199.354,0.021,0.77,0.724,-1.6693012887788086,-5.858750654184683,-7.257
1621786682202.798,0.03618582641847948,0.7839203408836062,0.7265309710697465,-1.677,-5.855,-7.257
1621786682204.797,0.045,0.792,0.728,-1.6692308580858086,-5.841713641364136,-7.259251925192519
1621786682210.27,0.068,0.813,0.738,-1.6479606023102311,-5.805338421342134,-7.265417216721672
1621786682215.772,0.091,0.822,0.744,-1.6265774339933994,-5.768770104510451,-7.271615236523652
1621786682220.552,0.10914230243127565,0.8384144641044875,0.755230949124123,-1.608,-5.737,-7.277
1621786682221.305,0.112,0.841,0.757,-1.6047479789103691,-5.730037339461944,-7.278626010544816
1621786682226.865,0.126,0.864,0.775,-1.580733216168717,-5.6786211166689196,-7.290633391915642
1621786682232.456,0.145,0.869,0.789,-1.5565845342706504,-5.626918169528187,-7.302707732864675
1621786682238.075,0.155,0.881,0.799,-1.5323156414762742,-5.574957847776126,-7.314842179261863
1621786682238.611,0.1562337611824193,0.8840369506028782,0.8009929988331389,-1.53,-5.57,-7.316
1621786682243.724,0.168,0.913,0.82,-1.475425407166124,-5.537143867579605,-7.305140769793259
1621786682249.404,0.176,0.932,0.838,-1.4148,-5.500644897959184,-7.293077551020408
1621786682255.111,0.18,0.951,0.857,-1.353885342019544,-5.463971787542379,-7.280956777238583
1621786682256.974,0.18227325729849347,0.9561960166822708,0.8631702698101966,-1.334,-5.452,-7.277
1621786682260.848,0.187,0.967,0.876,-1.382759611361021,-5.4175570404854065,-7.299201184747359
1621786682266.614,0.183,0.972,0.895,-1.4553382022178052,-5.366288759284444,-7.332247606967257
1621786682272.411,0.188,0.984,0.911,-1.5283039936185794,-5.314746966209854,-7.365470329009311
1621786682275.644,0.1902201173512154,0.9851100586756077,0.9237656747694887,-1.569,-5.286,-7.384
1621786682278.236,0.192,0.986,0.934,-1.5864814891044277,-5.26455786102035,-7.389462965345134
1621786682284.09,0.206,1.005,0.949,-1.625962618024647,-5.216131788829143,-7.401800818132703
1621786682289.974,0.211,1.009,0.974,-1.6656462733798143,-5.167457305307571,-7.414201960431193
1621786682294.623,0.21650278660776948,1.0129305618626925,0.9928666969409239,-1.697,-5.129,-7.424
1621786682295.888,0.218,1.014,0.998,-1.7162843632496487,-5.112929697291959,-7.413045956929622
1621786682301.83,0.225,1.023,1.018,-1.8068773215845646,-5.037435565346196,-7.361586691480877
1621786682307.802,0.234,1.031,1.038,-1.8979243799612595,-4.961563016698951,-7.309869484851937
1621786682313.803,0.236,1.037,1.063,-1.9894143719852635,-4.885321356678947,-7.257900679858711
1621786682313.907,0.23601724486904424,1.0370517346071326,1.0634483665951504,-1.991,-4.884,-7.257
1621786682319.834,0.237,1.04,1.089,-2.10657450679827,-4.782947944317743,-7.203448461509701
1621786682325.894,0.227,1.061,1.103,-2.2247435724878803,-4.679627347615309,-7.14869473211949
1621786682331.983,0.222,1.07,1.126,-2.3434743958824047,-4.575815580563552,-7.093680711855535
1621786682333.497,0.21804022346368715,1.0769296089385476,1.1297122905027932,-2.373,-4.55,-7.08
1621786682338.101,0.206,1.098,1.141,-2.3230192888169037,-4.484284620481484,-7.050613192961791
1621786682344.25,0.185,1.119,1.157,-2.2562670249576677,-4.396517755036934,-7.011365334118629
1621786682350.427,0.175,1.154,1.176,-2.1892099683427815,-4.308350143561805,-6.971938268423766
1621786682353.394,0.17299554675903017,1.169534512617516,1.1850200395843642,-2.157,-4.266,-6.953
1621786682356.348,0.171,1.185,1.194,-2.0859450407500133,-4.24698756192404,-6.927703790017579
1621786682362.02,0.161,1.237,1.211,-1.9495023704256114,-4.210479092313428,-6.879128961806851
1621786682367.696,0.164,1.286,1.236,-1.8129657353646194,-4.173945480210941,-6.8305206812976085
1621786682371.727,0.164,1.3207749408983451,1.2530326241134753,-1.716,-4.148,-6.796
1621786682373.376,0.164,1.335,1.26,-1.6702460549386324,-4.133017825832846,-6.81008503798948
1621786682379.061,0.171,1.393,1.292,-1.5124985919982998,-4.081363264438659,-6.858646511875033
1621786682384.75,0.169,1.449,1.319,-1.3546427394931193,-4.029673210775198,-6.9072413527442755
1621786682390.107,0.15583122561838214,1.5026157242680156,1.3585063231448535,-1.206,-3.981,-6.953
1621786682390.445,0.155,1.506,1.361,-1.187649066553602,-3.9763388629046146,-6.974415539331947
1621786682396.143,0.119,1.553,1.41,-0.8784126508817722,-3.89779281332397,-7.335294436420972
1621786682401.846,0.082,1.611,1.466,-0.5689112397811137,-3.8191794549044027,-7.69648258317544
1621786682407.553,0.059,1.684,1.532,-0.25918458256595067,-3.7405088839717515,-8.057933592145535
1621786682408.533,0.057627750950814065,1.6999523951967863,1.5440071791803769,-0.206,-3.727,-8.12
1621786682413.266,0.051,1.777,1.602,-0.01743343465045591,-3.870218356019558,-8.438974692744813
1621786682418.982,0.049,1.869,1.682,0.21028206686930093,-4.043170754592309,-8.824172789744946
1621786682424.703,0.054,1.929,1.761,0.4382018237082067,-4.216278287300119,-9.209716400158584
1621786682427.007,0.0612432847275518,1.9426817600409312,1.7875587106676898,0.53,-4.286,-9.365
1621786682430.429,0.072,1.963,1.827,0.5734177849252591,-4.342165985605441,-9.595206638369671
1621786682436.16,0.096,1.997,1.908,0.6461339010308191,-4.436232791120719,-9.98075676886979
1621786682441.894,0.127,2.005,2.0,0.7188902876275343,-4.53035169122881,-10.366520418654927
1621786682445.528,0.13079864744162306,2.008798647441623,2.0696418697630894,0.765,-4.59,-10.611
1621786682447.634,0.133,2.011,2.11,1.0531156142334903,-4.592155195539542,-10.928040607001027
1621786682453.377,0.126,2.03,2.227,1.8388034873629118,-4.598032388291298,-11.792606593377693
1621786682459.125,0.108,2.049,2.344,2.6251927780553874,-4.603914827867343,-12.657944415222365
1621786682464.094,0.09331903428377461,2.0464092413441954,2.41913200101833,3.305,-4.609,-13.406
1621786682464.879,0.091,2.046,2.431,3.2971567881641595,-4.604024198942854,-13.397735110108469
1621786682470.636,0.084,1.993,2.478,3.2396293299056964,-4.567528284563829,-13.33711477775009
1621786682476.398,0.108,1.897,2.482,3.18205308028278,-4.531001416523484,-13.276443030835619
1621786682482.164,0.171,1.782,2.429,3.124435358000079,-4.494448237871017,-13.215727581548471
1621786682482.708,0.17844488621944,1.7707855511378057,2.417502833939599,3.119,-4.491,-13.21
1621786682487.936,0.25,1.663,2.307,2.187469287630013,-4.675064865572054,-11.789590763393734
1621786682493.711,0.305,1.56,2.155,1.1584963040491925,-4.878383737816445,-10.22060037940734
1621786682499.491,0.297,1.491,2.005,0.12860979917577042,-5.081883116373389,-8.650217047164258
1621786682501.369,0.27654514372546535,1.4806102317335699,1.974480055717361,-0.206,-5.148,-8.14
1621786682505.275,0.234,1.459,1.911,-0.027924827433224164,-5.2791034095802285,-7.499096389472449
1621786682511.065,0.106,1.468,1.861,0.23604359513028952,-5.473443584691467,-6.549057635345852
1621786682516.859,-0.049,1.515,1.85,0.5001901039967639,-5.6679148714067615,-5.598377937549747
1621786682520.079,-0.14508278243294453,1.5488789001642174,1.8461122573582045,0.647,-5.776,-5.07
1621786682522.657,-0.222,1.576,1.843,0.8867089325185281,-5.7504639968794695,-5.2274720192432715
1621786682528.459,-0.38,1.651,1.852,1.4262186191652582,-5.692990456377584,-5.581892185671564
1621786682534.268,-0.517,1.747,1.861,1.9663866597321544,-5.635446781952932,-5.936744844623586
1621786682538.856,-0.5814422883907662,1.8279458012713283,1.859428236868518,2.393,-5.59,-6.217
1621786682540.106,-0.599,1.85,1.859,2.3709053722318405,-5.59773973487687,-6.359093594149719
1621786682545.949,-0.621,1.892,1.836,2.2676259334866535,-5.633918460425334,-7.023297888834336
1621786682551.798,-0.571,1.927,1.791,2.164238610816817,-5.670134977648001,-7.688195999896638
1621786682557.653,-0.483,1.941,1.73,2.0607477195793176,-5.7063877748779035,-8.353760174681517
1621786682557.752,-0.4810932838930089,1.9410337471877344,1.728852595617032,2.059,-5.707,-8.365
1621786682563.513,-0.37,1.943,1.662,1.9906011362611598,-5.844405717377581,-8.445558661736857
1621786682569.378,-0.26,1.923,1.597,1.9209674580987595,-5.984292039730492,-8.527571660461462
1621786682575.248,-0.178,1.895,1.546,1.8512729088028035,-6.124300645427257,-8.609656351854477
1621786682576.703,-0.16239922706117021,1.8855900099734042,1.537828166555851,1.834,-6.159,-8.63
1621786682581.123,-0.115,1.857,1.513,1.7267927632846518,-6.101791799930639,-8.516048707178914
1621786682587.004,-0.094,1.813,1.489,1.5841576946296225,-6.025678509498671,-8.364440933554263
1621786682592.89,-0.11,1.747,1.454,1.4413982762385522,-5.9494988632422645,-8.212700987758982
1621786682595.71,-0.1334562370493162,1.7235437629506838,1.4362881475341898,1.373,-5.913,-8.14
1621786682598.781,-0.159,1.698,1.417,1.3493195323105294,-5.900434853879057,-8.05623235919371
1621786682604.677,-0.222,1.66,1.386,1.3038561970135492,-5.876311451476577,-7.895409676510514
1621786682610.58,-0.286,1.632,1.379,1.2583382680634172,-5.852159081013242,-7.734393873421612
1621786682614.774,-0.32860592782439746,1.6256091108263404,1.3825504939853663,1.226,-5.835,-7.62
1621786682616.486,-0.346,1.623,1.384,1.2620017622720539,-5.88506215201512,-7.604148477805588
1621786682622.398,-0.384,1.607,1.398,1.3863112836491802,-6.057920416815651,-7.549415181079839
1621786682628.317,-0.396,1.602,1.424,1.5107696787046023,-6.230985697502171,-7.494616335495735
1621786682633.892,-0.3828201343941955,1.5888201343941957,1.455066826070825,1.628,-6.394,-7.443
1621786682634.239,-0.382,1.588,1.457,1.6244531098772348,-6.39613537262493,-7.444067686312464
1621786682640.167,-0.353,1.567,1.489,1.5638464673220924,-6.432623045183638,-7.462311522591818
1621786682646.1,-0.312,1.536,1.511,1.50318740767154,-6.469142274973256,-7.480571137486628
1621786682652.038,-0.264,1.501,1.52,1.4424784269777393,-6.505691559268503,-7.498845779634252
1621786682653.063,-0.2555522792607803,1.494448706365503,1.5203448049281314,1.432,-6.512,-7.502
1621786682657.983,-0.215,1.463,1.522,1.4419805450435577,-6.421663271785233,-7.604876387372057
1621786682663.931,-0.147,1.424,1.532,1.454046643639042,-6.312449610138928,-7.729250019048586
1621786682669.885,-0.084,1.393,1.534,1.4661251238158128,-6.203123879308155,-7.853751276255302
1621786682672.288,-0.05698094886922321,1.3760626843657817,1.5404523107177974,1.471,-6.159,-7.904
1621786682675.844,-0.017,1.351,1.55,1.4566131752906315,-6.110121685282273,-7.840734860572905
1621786682681.81,0.03,1.314,1.555,1.432475115872654,-6.028114175721196,-7.73458929159385
1621786682687.78,0.07,1.279,1.564,1.4083212521844846,-5.946052972165235,-7.62837422434972
1621786682691.567,0.08838021493074,1.2682253912474972,1.5671690025742655,1.393,-5.894,-7.561
1621786682693.755,0.099,1.262,1.569,1.386322750921857,-5.852917942112441,-7.48109935848866
1621786682699.735,0.113,1.243,1.578,1.3680724478456332,-5.740632179118048,-7.262714375915543
1621786682705.722,0.113,1.236,1.581,1.3498020280850636,-5.628222647370814,-7.044088675051776
1621786682710.9,0.10435702351359061,1.2342714047027181,1.5861857858918456,1.334,-5.531,-6.855
1621786682711.713,0.103,1.234,1.587,1.3431566588650579,-5.5205656678049335,-6.836218202048882
1621786682717.709,0.075,1.248,1.59,1.4106904551791173,-5.443608551074959,-6.697695391934927
1621786682723.71,0.04,1.265,1.593,1.4782792464413153,-5.366588765683152,-6.559059778229674
1621786682729.444,-0.003,1.272,1.599,1.5428625637877451,-5.292993822660476,-6.426588880788858
1621786682729.989,-0.007562473383868494,1.2737109275189507,1.599950515288306,1.549,-5.286,-6.414
1621786682735.177,-0.051,1.29,1.609,1.6619097117844053,-5.310655222424386,-6.477038920971442
1621786682740.908,-0.086,1.311,1.62,1.7866364211692112,-5.337890831421564,-6.546675421248319
1621786682746.639,-0.112,1.323,1.625,1.9113631305540173,-5.365126440418743,-6.616311921525196
1621786682748.506,-0.11428016525405682,1.3275603305081136,1.6279316410409301,1.952,-5.374,-6.639
1621786682752.371,-0.119,1.337,1.634,2.035935347726883,-5.414923701876789,-6.747573086611888
1621786682758.1,-0.11,1.353,1.639,2.160351169201145,-5.475584152147822,-6.9085089750860575
1621786682763.829,-0.089,1.365,1.648,2.2847669906754065,-5.536244602418855,-7.069444863560228
1621786682767.017,-0.0695195856954094,1.3705658326584544,1.6563487489876816,2.354,-5.57,-7.159
1621786682769.557,-0.054,1.375,1.663,2.4064405647928213,-5.586198917920296,-7.183161097915017
1621786682775.286,-0.017,1.389,1.684,2.5247305093692267,-5.622738743731856,-7.237661177091581
1621786682781.012,0.024,1.401,1.71,2.642959963050937,-5.659259883874373,-7.292133386117709
1621786682785.518,0.05625922926080655,1.4096549151675335,1.724162588455964,2.736,-5.688,-7.335
1621786682786.739,0.065,1.412,1.728,2.7457058077974206,-5.675058922936773,-7.335
1621786682792.464,0.106,1.412,1.747,2.7912169441400527,-5.614377407813263,-7.335
1621786682798.189,0.141,1.417,1.766,2.8367261397092802,-5.553698480387626,-7.335
1621786682803.913,0.168,1.419,1.794,2.8822295129582933,-5.493027316055609,-7.335
1621786682804.01,0.16825404206305192,1.418932255449853,1.7944742118510302,2.883,-5.492,-7.335
1621786682809.636,0.183,1.415,1.822,2.856219867147366,-5.423223749719372,-7.323131532031219
1621786682815.359,0.182,1.414,1.852,2.828978368527396,-5.35326262826354,-7.311058595142823
1621786682821.081,0.176,1.424,1.874,2.8017403562986147,-5.283310460494169,-7.298987203359614
1621786682822.497,0.17228728715913455,1.4232574574318269,1.8806828831135578,2.795,-5.266,-7.296
1621786682826.802,0.161,1.421,1.901,2.715097775252992,-5.220341585858852,-7.334902832456998
1621786682832.522,0.15,1.431,1.915,2.6089315401484927,-5.159675165799139,-7.3865930985282855
1621786682838.242,0.141,1.438,1.93,2.502765305043993,-5.099008745739424,-7.438283364599572
1621786682840.977,0.13420971512685081,1.438,1.9377603255693132,2.452,-5.07,-7.463
1621786682843.881,0.127,1.438,1.946,2.42339576115753,-5.07,-7.5009773792541266
1621786682849.446,0.124,1.445,1.96,2.3685823925005094,-5.07,-7.5737521907479115
1621786682855.006,0.134,1.443,1.969,2.3138171184022824,-5.07,-7.646463147883976
1621786682858.947,0.13187241333860553,1.4508011510917798,1.9760919555379817,2.275,-5.07,-7.698
1621786682860.563,0.131,1.454,1.979,2.2679697291556025,-5.061167095605757,-7.714854623691055
1621786682866.117,0.148,1.456,1.983,2.2438072225172596,-5.030809074444763,-7.772782684477852
1621786682871.666,0.168,1.459,1.981,2.2196659585767393,-5.000477742827186,-7.83065981725833
1621786682876.876,0.18397024123965486,1.4561817221341786,1.976302870223631,2.197,-4.972,-7.885
1621786682877.212,0.185,1.456,1.976,2.198840224896968,-4.968131772155354,-7.88278421900161
1621786682882.754,0.202,1.459,1.97,2.2291985862059556,-4.904317257567073,-7.846230273752012
1621786682888.293,0.206,1.463,1.965,2.2595408990420043,-4.84053647752395,-7.809695652173914
1621786682893.828,0.211,1.461,1.96,2.2898604765413904,-4.776803488086466,-7.773188405797102
1621786682894.766,0.211,1.4637141028470537,1.9584733171485322,2.295,-4.766,-7.767
1621786682899.359,0.211,1.477,1.951,2.3376995925287827,-4.730759974840703,-7.663594962671262
1621786682904.886,0.208,1.47,1.958,2.389085733037985,-4.688350931167446,-7.5391538272212655
1621786682910.411,0.18,1.487,1.958,2.440451445292203,-4.645958746957639,-7.414762162605628
1621786682912.621,0.16318328173374613,1.496209155241044,1.9596015922158336,2.461,-4.629,-7.365
1621786682915.931,0.138,1.51,1.962,2.4756773057420856,-4.647207290667398,-7.326727531862409
1621786682921.447,0.103,1.525,1.974,2.5001383993421955,-4.677551432095382,-7.262942908044402
1621786682926.96,0.068,1.543,1.981,2.524585418665205,-4.707878114293545,-7.199194984240099
1621786682930.436,0.0440271168416855,1.5537247108866143,1.9854160574239001,2.54,-4.727,-7.159
1621786682932.47,0.03,1.56,1.988,2.51872030651341,-4.731461871214931,-7.1937797140856095
1621786682937.976,0.003,1.576,2.0,2.4611136653895276,-4.743540683063486,-7.287932503879482
1621786682943.478,-0.028,1.583,2.009,2.403550446998723,-4.755610390145429,-7.382014323184883
1621786682948.214,-0.05039671403197158,1.5907527087033748,2.015029884547069,2.354,-4.766,-7.463
1621786682948.976,-0.054,1.592,2.016,2.3399449587190393,-4.77324441942568,-7.4787468518055205
1621786682954.415,-0.072,1.59,2.026,2.239618714035527,-4.824955786284158,-7.591149403719456
1621786682959.85,-0.089,1.587,2.037,2.1393645233925445,-4.8766300141773,-7.703471228421316
1621786682965.28,-0.094,1.574,2.033,2.039204903677758,-4.928255497178439,-7.815687098657326
1621786682965.779,-0.09436794023671302,1.5735400747041088,2.033367940236713,2.03,-4.933,-7.826
1621786682970.705,-0.098,1.569,2.037,1.9363131335666577,-4.988143020483288,-7.919686866433342
1621786682976.125,-0.093,1.553,2.03,1.8332329712620439,-5.048814827725644,-8.022767028737956
1621786682981.542,-0.082,1.541,2.03,1.730208527964081,-5.109453839396516,-8.12579147203592
1621786682983.288,-0.07877300004512025,1.5377730000451202,2.02838650002256,1.697,-5.129,-8.159
1621786682986.953,-0.072,1.531,2.025,1.6413834936524803,-5.145370141490968,-8.206431435602036
1621786682992.36,-0.058,1.513,2.014,1.5593240450757788,-5.1695234886192045,-8.27641421061462
1621786682997.763,-0.044,1.491,2.005,1.4773312874000335,-5.19365720597282,-8.346340109613557
1621786683000.75,-0.032377137428752374,1.4793771374287523,1.9972514249525015,1.432,-5.207,-8.385
1621786683003.16,-0.023,1.47,1.991,1.4034934952055178,-5.209767621824707,-8.374067893792407
1621786683008.553,-0.009,1.45,1.981,1.3396996859754386,-5.215961195536365,-8.349603277631356
1621786683013.941,0.014,1.429,1.972,1.2759665227387427,-5.2221488812875005,-8.325161918914372
1621786683018.165,0.02341306614680147,1.4070361789907966,1.9641557782109988,1.226,-5.227,-8.306
1621786683019.326,0.026,1.401,1.962,1.2050095738848041,-5.230944060957951,-8.288285149934627
1621786683024.705,0.038,1.377,1.943,1.1077473112988712,-5.249219454246391,-8.206200756350958
1621786683030.079,0.051,1.354,1.927,1.0105777509102922,-5.267477428969085,-8.124194598698177
1621786683035.449,0.063,1.323,1.916,0.9134832351576669,-5.285721302948081,-8.04225177489421
1621786683035.531,0.06332109215017065,1.3224954266211604,1.915633037542662,0.912,-5.286,-8.041
1621786683040.814,0.084,1.29,1.892,0.8430529536162414,-5.286,-7.942460637247991
1621786683046.176,0.106,1.269,1.866,0.7730735654870999,-5.286,-7.842445848019174
1621786683051.532,0.124,1.241,1.85,0.7031738333568307,-5.286,-7.742544903425913
1621786683052.848,0.12572141618760835,1.231655169267269,1.8470490008212428,0.686,-5.286,-7.718
1621786683056.883,0.131,1.203,1.838,0.6356454584100893,-5.244545330877143,-7.635324868924473
1621786683062.215,0.141,1.166,1.831,0.5691072693779227,-5.189767379906476,-7.526078446932124
1621786683067.541,0.134,1.134,1.815,0.5026452458551792,-5.1350521326342635,-7.416957078078504
1621786683070.077,0.13066395962376692,1.1168432209222299,1.8083279192475339,0.471,-5.109,-7.365
1621786683072.862,0.127,1.098,1.801,0.43125143637294494,-5.118572103077535,-7.334661300415268
1621786683078.179,0.115,1.066,1.789,0.3553709824222083,-5.136845355253428,-7.276744382501849
1621786683083.49,0.091,1.054,1.765,0.2795741509755959,-5.15509846976506,-7.218891290744638
1621786683087.244,0.08322077085824671,1.0370271364179928,1.7501487443657437,0.226,-5.168,-7.178
1621786683088.798,0.08,1.03,1.744,0.199211274838452,-5.183165142718571,-7.188715490064619
1621786683094.099,0.077,1.009,1.723,0.1078409340541774,-5.234890047501533,-7.225263626378329
1621786683099.396,0.082,0.981,1.698,0.01654213086458492,-5.286574454730896,-7.2617831476541665
1621786683104.359,0.09231592544749953,0.9528656578704557,1.6820572061265917,-0.069,-5.335,-7.296
1621786683104.688,0.093,0.951,1.681,-0.069366414397917,-5.334421450950657,-7.295633585602083
1621786683109.976,0.117,0.915,1.663,-0.07525405227542598,-5.325125180617748,-7.289745947724574
1621786683115.258,0.143,0.874,1.644,-0.08113489463368574,-5.315839640052075,-7.283865105366314
1621786683120.536,0.18,0.841,1.625,-0.08701111603885606,-5.306561395728122,-7.277988883961144
1621786683121.424,0.18320083352627922,0.834935262792313,1.6214622366288494,-0.088,-5.305,-7.277
1621786683125.808,0.199,0.805,1.604,-0.07279727073139232,-5.234397494583076,-7.193513825711375
1621786683131.077,0.22,0.768,1.585,-0.05452639584439438,-5.149546312904476,-7.093178851755657
1621786683136.339,0.227,0.73,1.564,-0.0362783796581957,-5.064801288582129,-6.992969406936533
1621786683138.438,0.227,0.7180242384843982,1.5528226225854385,-0.029,-5.031,-6.953
1621786683141.597,0.227,0.7,1.536,0.007495618011483834,-5.0090281483400245,-6.9017944135042955
1621786683146.85,0.209,0.679,1.515,0.0681862596957792,-4.972489904877031,-6.8166417274676565
1621786683152.099,0.178,0.668,1.499,0.12882895134481717,-4.935980529292406,-6.7315563182662
1621786683155.403,0.15720423748544818,0.667369825378347,1.4882870314318977,0.167,-4.913,-6.678
1621786683157.342,0.145,0.667,1.482,0.13548776476020086,-4.930990621573267,-6.693813412593062
1621786683162.58,0.106,0.653,1.461,0.05035870318000807,-4.979591576729959,-6.736532723495123
1621786683167.819,0.072,0.648,1.429,-0.03478622958388644,-5.02820159288971,-6.779259998845732
1621786683172.324,0.03585672978266953,0.6402550135248578,1.3945778378882567,-0.108,-5.07,-6.816
1621786683173.054,0.03,0.639,1.389,-0.0846892791020597,-5.089072408007406,-6.848219827586207
1621786683178.283,0.009,0.637,1.354,0.08229032631335338,-5.225692085165472,-7.07901724137931
1621786683183.508,0.0,0.639,1.316,0.24914519208516545,-5.362209702615136,-7.3096422413793105
1621786683188.728,-0.002,0.661,1.281,0.4158363370747512,-5.4985933666975235,-7.540040948275862
1621786683189.203,-0.001544731051917045,0.6660990122185291,1.279452085576518,0.431,-5.511,-7.561
1621786683193.943,0.003,0.717,1.264,0.5028213995590113,-5.544235000580248,-7.729428223279564
1621786683199.153,0.012,0.782,1.239,0.5817598352094697,-5.580763374724381,-7.914546593942208
1621786683204.358,0.012,0.813,1.18,0.6606205901125682,-5.617255802483463,-8.099482795636533
1621786683206.033,0.011355774647887324,0.8165432394366197,1.154230985915493,0.686,-5.629,-8.159
1621786683209.558,0.01,0.824,1.1,0.45530544359239267,-5.721656010360432,-8.076639101901838
1621786683214.754,-0.016,0.822,1.019,0.11527901866915002,-5.858224000698456,-7.955245332712484
1621786683219.945,-0.028,0.829,0.958,-0.2244438397625249,-5.994670066789867,-7.83395994063123
1621786683222.811,-0.02578947368421053,0.8201578947368421,0.9342368421052631,-0.412,-6.07,-7.767
1621786683225.131,-0.024,0.813,0.915,-0.5031162984151075,-6.140729546714924,-7.760204416099939
1621786683230.312,-0.005,0.787,0.883,-0.7065866728933773,-6.298674586264266,-7.7450293044569625
1621786683235.488,0.016,0.77,0.855,-0.9098652841423193,-6.456470768512303,-7.7298684947899945
1621786683239.54,0.03088871576959396,0.7480587346553352,0.8252225684608121,-1.069,-6.58,-7.718
1621786683240.659,0.035,0.742,0.817,-1.1216002722920844,-6.581341843680921,-7.7140415611412845
1621786683245.826,0.04,0.7,0.775,-1.3645049554231505,-6.587538391719979,-7.695761744426064
1621786683250.987,0.026,0.654,0.737,-1.6071341843680922,-6.593727912866533,-7.6775026570437275
1621786683256.143,0.021,0.602,0.705,-1.8495223909001743,-6.599911285482147,-7.659261707827666
1621786683256.217,0.0209425755709277,0.6013970434947408,0.7047703022837107,-1.853,-6.6,-7.659
1621786683261.296,0.017,0.56,0.689,-1.7543670605504587,-6.618016543119266,-7.659
1621786683266.443,0.014,0.52,0.684,-1.6544065614678898,-6.636275581651376,-7.659
1621786683271.584,0.007,0.49,0.686,-1.5545693357798165,-6.654512102752293,-7.659
1621786683272.849,0.005283375136056032,0.4841144290379064,0.6872261606171028,-1.53,-6.659,-7.659
1621786683276.743,0.0,0.466,0.691,-1.431279346407146,-6.672802176687153,-7.523551520307435
1621786683281.897,-0.023,0.454,0.695,-1.3006070962348006,-6.691071519720727,-7.344264238672866
1621786683287.046,-0.054,0.457,0.702,-1.170064831248075,-6.7093226894700555,-7.165155301641316
1621786683289.494,-0.06922847650688183,0.4531928808732796,0.702,-1.108,-6.718,-7.08
1621786683292.19,-0.086,0.449,0.702,-1.0394462620259497,-6.698830945305835,-7.083248992321045
1621786683297.33,-0.106,0.45,0.714,-0.9087453293712673,-6.662284239018506,-7.0894433493188975
1621786683302.466,-0.122,0.452,0.717,-0.7781499308599842,-6.625767042278384,-7.095632704698579
1621786683306.09,-0.12553226727584238,0.4406967447173044,0.7162935465448315,-0.686,-6.6,-7.1
1621786683307.596,-0.127,0.436,0.716,-0.7173059490084986,-6.583072946175637,-7.108918555240793
1621786683312.722,-0.106,0.417,0.712,-0.8238720491029273,-6.525452903682719,-7.139277502360717
1621786683317.843,-0.091,0.403,0.693,-0.9303366383380548,-6.467887747875354,-7.16960753068933
1621786683322.637,-0.06664120425592823,0.3851993415716399,0.678009971849802,-1.03,-6.414,-7.198
1621786683322.96,-0.065,0.384,0.677,-1.0307635403101694,-6.409771161359062,-7.190893201728425
1621786683328.072,-0.042,0.361,0.67,-1.0428480229667338,-6.3428417189534745,-7.078414555463478
1621786683333.179,-0.031,0.347,0.661,-1.0549203859358351,-6.275979400970759,-6.966048715520303
1621786683338.281,-0.017,0.342,0.668,-1.066981206345448,-6.209181011009826,-6.853790310169291
1621786683339.135,-0.019177352166626766,0.333290591333493,0.6656551592051713,-1.069,-6.198,-6.835
1621786683343.38,-0.03,0.29,0.654,-1.0842221068095146,-6.144851627071865,-6.7364433084536515
1621786683348.473,-0.061,0.321,0.63,-1.102485658322328,-6.081083972637296,-6.618194551201199
1621786683353.561,-0.061,0.323,0.648,-1.1207317000786454,-6.017377453962696,-6.500059162202668
1621786683355.588,-0.06538542066845947,0.30147157126392626,0.656770841336919,-1.128,-5.992,-6.453
1621786683358.645,-0.072,0.269,0.67,-1.2230570828929936,-5.97000640042868,-6.42000960064302
1621786683363.725,-0.119,0.291,0.651,-1.381014899602578,-5.933459297739011,-6.365188946608517
1621786683368.799,-0.164,0.307,0.628,-1.538782936159445,-5.89695610496703,-6.310434157450546
1621786683371.99,-0.18602879707213715,0.30259424058557255,0.6204472695752673,-1.638,-5.874,-6.276
1621786683373.869,-0.199,0.3,0.616,-1.673901708512851,-5.8942375872827215,-6.337741791709998
1621786683378.961,-0.229,0.291,0.613,-1.7711992571683255,-5.949083657703165,-6.505068786213044
1621786683384.051,-0.251,0.286,0.599,-1.8684594859604813,-6.00390869113059,-6.672331600059426
1621786683388.423,-0.26046147934678193,0.2730979827089337,0.5878182516810758,-1.952,-6.051,-6.816
1621786683389.134,-0.262,0.271,0.586,-1.9617555165123135,-6.06756269914535,-6.841494416485513
1621786683394.213,-0.276,0.269,0.555,-2.0314478276406303,-6.185884756260981,-7.02362365623418
1621786683399.288,-0.276,0.251,0.536,-2.1010898871385604,-6.304121497275245,-7.205621571722105
1621786683404.359,-0.264,0.234,0.513,-2.1706716446800276,-6.422255858967868,-7.387461898097138
1621786683404.82,-0.2610869837598188,0.2323614283648981,0.5120896824249433,-2.177,-6.433,-7.404
1621786683409.425,-0.232,0.216,0.503,-2.124622764324744,-6.469044549281897,-7.583377952285689
1621786683414.487,-0.202,0.195,0.476,-2.0670472365710193,-6.5086664178436,-7.78055865754979
1621786683419.544,-0.175,0.199,0.463,-2.0095300229912514,-6.548248156221074,-7.977539652443941
1621786683421.173,-0.16242828848847882,0.1960988358050336,0.4565529684556302,-1.991,-6.561,-8.041
1621786683424.598,-0.136,0.19,0.443,-1.9414377741515338,-6.556799811368774,-8.080271763701964
1621786683429.646,-0.103,0.176,0.426,-1.868384014252137,-6.550608814767131,-8.138157581927333
1621786683434.69,-0.075,0.164,0.41,-1.795390316930401,-6.544422908214441,-8.19599580819498
1621786683437.481,-0.06170955241232319,0.15347839565975585,0.39947839565975585,-1.755,-6.541,-8.228
1621786683439.73,-0.051,0.145,0.391,-1.699396870917854,-6.543766324829958,-8.172396870917854
1621786683444.766,-0.033,0.124,0.372,-1.574887389078242,-6.549960826414018,-8.047887389078241
1621786683449.797,-0.017,0.105,0.36,-1.4505046620921607,-6.556149021786459,-7.92350466209216
1621786683453.741,-0.006014087243757894,0.09636821140580977,0.35136821140580976,-1.353,-6.561,-7.826
1621786683454.823,-0.003,0.094,0.349,-1.3058886881370733,-6.579283993555866,-7.767744794254483
1621786683459.845,0.016,0.087,0.353,-1.0872335245494376,-6.664144496138037,-7.497368083472605
1621786683464.863,0.026,0.086,0.36,-0.8687484378999353,-6.7489389915232545,-7.227201680292696
1621786683469.876,0.033,0.089,0.368,-0.6504865772317329,-6.833646852462472,-6.957311305840372
1621786683469.956,0.033,0.08925578788321879,0.3682557878832188,-0.647,-6.835,-6.953
1621786683474.885,0.033,0.105,0.384,-0.4476197032783682,-6.811329279841267,-6.759385647932419
1621786683479.922,0.037,0.126,0.403,-0.2438644760773821,-6.7871391615434336,-6.561522885445008
1621786683484.956,0.033,0.152,0.428,-0.040237632840801396,-6.762964285177446,-6.363784794143731
1621786683486.198,0.030530462643817664,0.16014947327540172,0.43318602844798293,0.01,-6.757,-6.315
1621786683489.985,0.023,0.185,0.449,0.19522765963846364,-6.7614323999157815,-6.365389388516257
1621786683495.01,0.01,0.213,0.471,0.4409958191716546,-6.7673135019701025,-6.432248232923271
1621786683500.031,0.014,0.248,0.494,0.6865729238728306,-6.773190032183354,-6.499055102716034
1621786683502.432,0.03553430656934307,0.2747982481751825,0.498785401459854,0.804,-6.776,-6.531
1621786683505.048,0.059,0.304,0.504,0.9150424447192977,-6.871202328878699,-6.564296570032278
1621786683510.061,0.141,0.367,0.517,1.1278116232767204,-7.053620154454132,-6.6280963528311565
1621786683515.069,0.243,0.435,0.531,1.3403735557633716,-7.23586029744487,-6.691833991975625
1621786683518.618,0.3061198282591725,0.47684348165495705,0.5359644808743169,1.491,-7.365,-6.737
1621786683520.073,0.332,0.494,0.538,1.4237623022714214,-7.299564921513475,-6.731682273235943
1621786683525.074,0.407,0.546,0.531,1.192672201554608,-7.074670265856093,-6.713405710310619
1621786683530.07,0.48,0.592,0.513,0.9618077306959442,-6.849995190999002,-6.69514699210598
1621786683534.762,0.5373334963564338,0.6277159485499095,0.49514202572504523,0.745,-6.639,-6.678
1621786683535.062,0.541,0.63,0.494,0.7283752691759425,-6.62054878529617,-6.671607306420794
1621786683540.05,0.588,0.651,0.471,0.45200433714476357,-6.313814230687574,-6.565334627399836
1621786683545.035,0.614,0.668,0.436,0.17580925661945346,-6.00727484759334,-6.459129568408602
1621786683550.014,0.623,0.693,0.401,-0.100061174971945,-5.701095781141003,-6.353049346395317
1621786683550.861,0.6201057796094593,0.6986181925228142,0.39657354528505545,-0.147,-5.649,-6.335
1621786683554.99,0.606,0.726,0.375,-0.32852047068124113,-5.5153022028976695,-6.143452194536084
1621786683559.962,0.569,0.754,0.36,-0.5471028018912386,-5.354306718153762,-5.912795201970294
1621786683564.929,0.51,0.778,0.339,-0.7654704684008088,-5.193469343387505,-5.682364732353254
1621786683566.92,0.4811171233213636,0.7824126617147917,0.33258158296030305,-0.853,-5.129,-5.59
1621786683569.892,0.438,0.789,0.323,-1.0053506469837798,-5.147119373063605,-5.568182795698925
1621786683574.851,0.372,0.787,0.307,-1.2595437093736712,-5.1773510722313345,-5.531781362007169
1621786683579.842,0.305,0.771,0.288,-1.5153761618370694,-5.207777747402953,-5.495145161290323
1621786683582.995,0.25696770247125034,0.7577279177881087,0.2734639099584047,-1.677,-5.227,-5.472
1621786683584.831,0.229,0.75,0.265,-1.7452174117504287,-5.275140046419199,-5.60284510247114
1621786683589.814,0.141,0.717,0.251,-1.9303659986954083,-5.405796741554285,-5.95797123830039
1621786683594.794,0.068,0.674,0.25,-2.1154057280684455,-5.536376617466361,-6.312888578753356
1621786683599.089,0.009316393603453349,0.6343022662611596,0.2422330520945747,-2.275,-5.649,-6.619
1621786683599.771,0.0,0.628,0.241,-2.270837239365504,-5.686889617203778,-6.694821711556887
1621786683604.743,-0.056,0.565,0.234,-2.240484707922072,-5.9631595972807325,-7.247671391419403
1621786683609.712,-0.093,0.517,0.232,-2.2101500615941476,-6.239266786306328,-7.800195306678022
1621786683614.677,-0.113,0.45,0.234,-2.179839262086901,-6.515156920596779,-8.352284869131447
1621786683615.142,-0.11290623154164206,0.4444676609568813,0.23362492616656824,-2.177,-6.541,-8.404
1621786683619.637,-0.112,0.391,0.23,-2.047596121300828,-6.788860357681929,-8.79782568723414
1621786683624.595,-0.075,0.319,0.232,-1.9048589550076995,-7.062259311774841,-9.232229687904985
1621786683629.549,-0.012,0.243,0.209,-1.762234246596228,-7.335442863894861,-9.666291436063975
1621786683631.155,0.017854274579448475,0.2128212224359923,0.2005629224014602,-1.716,-7.424,-9.807
1621786683634.498,0.08,0.15,0.183,-1.631869324000061,-7.452671399532318,-9.813069128368156
1621786683639.445,0.204,0.068,0.15,-1.5073721438505863,-7.495099543016094,-9.822050268229685
1621786683644.386,0.328,0.0,0.122,-1.3830285653150745,-7.5374753396811816,-9.831020327377768
1621786683647.129,0.4007669830910709,-0.027218184514980717,0.10255843963215662,-1.314,-7.561,-9.836
1621786683649.324,0.459,-0.049,0.087,-1.1897182394948969,-7.469097633861526,-9.569800042909247
1621786683654.258,0.562,-0.075,0.068,-0.9103572807797223,-7.262519186563276,-8.971434885217764
1621786683659.189,0.63,-0.089,0.054,-0.6311760198608515,-7.056073620007969,-8.373454623471359
1621786683663.06,0.6708558545166246,-0.08742862098012982,0.04614310490064912,-0.412,-6.894,-7.904
1621786683664.116,0.682,-0.087,0.044,-0.3561324067973215,-6.823817578645746,-7.768207949617689
1621786683669.038,0.693,-0.073,0.042,-0.09570545961600341,-6.49666201866352,-7.1352129142979726
1621786683673.957,0.689,-0.049,0.042,0.16455356185164188,-6.169717411624094,-6.50262604005455
1621786683678.912,0.658,-0.016,0.047,0.42672435298263894,-5.840371186466649,-5.865392408942554
1621786683678.993,0.6573796300863132,-0.015134747225647349,0.04729385943279901,0.431,-5.835,-5.855
1621786683683.862,0.62,0.037,0.065,0.6613691978609626,-5.6317509854851036,-5.4695277310924375
1621786683688.809,0.55,0.094,0.082,0.8954231016042781,-5.425251046600458,-5.077889915966386
1621786683693.752,0.469,0.15,0.11,1.12928064171123,-5.218924354469061,-4.686580672268907
1621786683694.972,0.4440569832954433,0.1628419491944252,0.1159270534743501,1.187,-5.168,-4.59
1621786683698.692,0.368,0.202,0.134,1.2303962974872527,-5.126936836786256,-4.546370389085396
1621786683703.629,0.262,0.262,0.171,1.2879903073177454,-5.072439279097187,-4.488466734040761
1621786683708.561,0.159,0.316,0.201,1.3455273554136618,-5.017995620683847,-4.430620346976587
1621786683710.916,0.11313264649066324,0.3375003219575016,0.21485576303927884,1.373,-4.992,-4.403
1621786683713.49,0.063,0.361,0.23,1.3047060493959814,-5.063368796721261,-4.526803014720555
1621786683718.416,-0.033,0.398,0.264,1.17400633950911,-5.199953090702565,-4.763734953259552
1621786683723.339,-0.115,0.431,0.286,1.0433843615208682,-5.336456153007813,-5.000525979707431
1621786683726.821,-0.15605598570577725,0.44444937462775463,0.2973257891602144,0.951,-5.433,-5.168
1621786683728.258,-0.173,0.45,0.302,0.8977674418604651,-5.496915282392027,-5.287863787375415
1621786683733.173,-0.22,0.457,0.318,0.7156950904392765,-5.715525962839917,-5.697836224929248
1621786683738.084,-0.237,0.463,0.326,0.5337764857881138,-5.933952042574136,-6.107462470776424
1621786683742.694,-0.2341826229671259,0.4592434972895012,0.32975650271049883,0.363,-6.139,-6.492
1621786683742.993,-0.234,0.459,0.33,0.35707318765710055,-6.146587829814795,-6.511441454500594
1621786683747.897,-0.206,0.456,0.328,0.25980858019646247,-6.271111308156121,-6.830494147763196
1621786683752.798,-0.161,0.436,0.326,0.16260207873918608,-6.395560396009068,-7.149356238530696
1621786683757.695,-0.113,0.436,0.323,0.06547789412000554,-6.519904097336808,-7.467948309096798
1621786683758.526,-0.10485316708229427,0.4327752119700748,0.3211330174563591,0.049,-6.541,-7.522
1621786683762.59,-0.065,0.417,0.312,0.06906747546557454,-6.556179244262422,-7.516854493470365
1621786683767.48,-0.021,0.403,0.311,0.09321185379800634,-6.574442299667723,-7.51066362723128
1621786683772.367,0.012,0.393,0.304,0.1173417664786338,-6.592694413105633,-7.5044764701336835
1621786683774.323,0.019173854648559915,0.38941307267572006,0.30599273740237776,0.127,-6.6,-7.502
1621786683777.275,0.03,0.384,0.309,0.15987717762005715,-6.589040940793314,-7.431044735305865
1621786683782.197,0.038,0.372,0.304,0.2146978523366209,-6.57076738255446,-7.3127311887424336
1621786683787.115,0.038,0.372,0.307,0.269472301594617,-6.552509232801794,-7.1945174055980585
1621786683790.215,0.03484568759936407,0.37704689984101747,0.30510741255961843,0.304,-6.541,-7.12
1621786683792.029,0.033,0.38,0.304,0.304,-6.535395301579483,-7.10650297115059
1621786683796.94,0.019,0.389,0.3,0.304,-6.520221881831337,-7.069962899104037
1621786683801.849,0.01,0.391,0.295,0.304,-6.505053742418178,-7.033435542966224
1621786683806.074,0.0013862618218018902,0.39530686908909907,0.29069313091090093,0.304,-6.492,-7.002
1621786683806.754,0.0,0.396,0.29,0.2939017913625773,-6.493675872922807,-6.999034994059651
1621786683811.655,-0.005,0.391,0.279,0.22111129283609265,-6.50575599821018,-6.977662464705065
1621786683816.553,-0.003,0.394,0.265,0.1483679313696749,-6.5178283007514155,-6.956303775593649
1621786683821.449,-0.002,0.387,0.25,0.07565357732483685,-6.5298957892950265,-6.934953603554952
1621786683821.897,-0.0016336959776424792,0.38718315201117876,0.24880951192733805,0.069,-6.531,-6.933
1621786683826.341,0.002,0.389,0.237,0.01918043357248888,-6.533814664769916,-6.911045614794656
1621786683831.23,0.003,0.382,0.222,-0.03562574220682829,-6.536911058881742,-6.886893740722415
1621786683836.115,0.012,0.365,0.208,-0.0903881277832756,-6.540004978970807,-6.8627611640277095
1621786683837.686,0.01328693565321734,0.35695665216739164,0.20285225738713064,-0.108,-6.541,-6.855
1621786683840.998,0.016,0.34,0.192,-0.1367945154543342,-6.530701231698815,-6.81779832674878
1621786683845.877,0.021,0.332,0.182,-0.17921155782787204,-6.515530172747695,-6.762996746455961
1621786683850.752,0.019,0.307,0.166,-0.22159463939886903,-6.500371260360988,-6.708239042528469
1621786683853.444,0.01734263527054108,0.2926361723446894,0.16102790581162324,-0.245,-6.492,-6.678
1621786683855.625,0.016,0.281,0.157,-0.2585926403229563,-6.489225991770826,-6.658998043630153
1621786683860.495,0.007,0.272,0.145,-0.2889459358745439,-6.483031441658256,-6.616565375359056
1621786683865.361,0.0,0.248,0.129,-0.31927336386926486,-6.476842170638926,-6.57416886887664
1621786683869.168,-0.009396203675805966,0.23155664356733957,0.12116983027016169,-0.343,-6.472,-6.541
1621786683870.223,-0.012,0.227,0.119,-0.33513446907817973,-6.476638646441074,-6.542344535200312
1621786683875.083,-0.017,0.201,0.112,-0.29889768961493585,-6.498009054842474,-6.548538856476079
1621786683879.94,-0.028,0.175,0.093,-0.26268457409568263,-6.519365507584598,-6.554729132633216
1621786683884.793,-0.038,0.157,0.084,-0.22650058343057178,-6.540704784130689,-6.560914430182808
1621786683884.86,-0.03805538213674353,0.15673693485046822,0.08380616252139765,-0.226,-6.541,-6.561
1621786683889.642,-0.042,0.138,0.07,-0.14812717691264285,-6.5828375559332075,-6.590927594755141
1621786683894.489,-0.045,0.12,0.063,-0.06919680693493818,-6.625243284117308,-6.621261619295592
1621786683899.333,-0.049,0.099,0.054,0.009685854160495194,-6.66762338047054,-6.6515773086577585
1621786683900.519,-0.049490088272383354,0.09605947036569988,0.0517946027742749,0.029,-6.678,-6.659
1621786683904.173,-0.051,0.087,0.045,0.1162349990624414,-6.705597131070692,-6.668121085692856
1621786683909.01,-0.047,0.072,0.038,0.23170902868929308,-6.742127789236827,-6.680194777798612
1621786683913.843,-0.045,0.065,0.035,0.34708980248765553,-6.778628945559098,-6.692258719294956
1621786683916.143,-0.04261951687891651,0.05738245401253285,0.03309561350313321,0.402,-6.796,-6.698
1621786683918.674,-0.04,0.049,0.031,0.41953266520513627,-6.802331240212966,-6.694753210147197
1621786683923.501,-0.042,0.044,0.024,0.4529693704979643,-6.814405606013154,-6.688561227685562
1621786683928.325,-0.04,0.033,0.024,0.48638578139680555,-6.826472643282179,-6.682373003445036
1621786683931.734,-0.04353547374284701,0.02451486301716717,0.021878715754291792,0.51,-6.835,-6.678
1621786683933.146,-0.045,0.021,0.021,0.5153550513134356,-6.835,-6.674460220318237
1621786683937.964,-0.038,0.007,0.021,0.5336264789881681,-6.835,-6.662382496940024
1621786683942.778,-0.038,-0.002,0.016,0.5518821674041992,-6.835,-6.65031517747858
1621786683947.292,-0.0333087892012585,-0.0066912107987415,0.0141235156805034,0.569,-6.835,-6.639
1621786683947.589,-0.033,-0.007,0.014,0.569,-6.836512015223477,-6.638253562104866
1621786683952.397,-0.024,-0.01,0.012,0.569,-6.860978831818325,-6.6261750070770296
1621786683957.202,-0.021,-0.007,0.012,0.569,-6.885430739470952,-6.614103812159909
1621786683962.003,-0.01,0.0,0.009,0.569,-6.909862768533953,-6.602042430723744
1621786683962.816,-0.008305602198137689,-0.0008471989009311556,0.009169439780186231,0.569,-6.914,-6.6
1621786683966.801,0.0,-0.005,0.01,0.563854278643822,-6.918888435288369,-6.584820121999274
1621786683971.596,0.007,-0.005,0.016,0.5576628942515329,-6.9247702504610436,-6.566555538042022
1621786683976.388,0.024,-0.002,0.009,0.5514752927824977,-6.930648471856627,-6.548302113708369
1621786683978.305,0.0248007342443402,-0.0011992657556598,0.0102011013665103,0.549,-6.933,-6.541
1621786683981.176,0.026,0.0,0.012,0.549,-6.933,-6.513695223654284
1621786683985.961,0.035,0.0,0.021,0.549,-6.933,-6.468189584912813
1621786683990.743,0.044,0.012,0.021,0.549,-6.933,-6.422711808188021
1621786683993.762,0.044,0.01073655172413793,0.022895172413793106,0.549,-6.933,-6.394
1621786683995.522,0.044,0.01,0.024,0.555733649964379,-6.928548943243885,-6.387266350035621
1621786684000.298,0.045,0.01,0.026,0.574006696746616,-6.916470149608169,-6.368993303253384
1621786684005.07,0.045,0.014,0.031,0.5922638644819125,-6.904401852291617,-6.350736135518088
1621786684009.183,0.045,0.014,0.031,0.608,-6.894,-6.335
1621786684009.839,0.045,0.014,0.031,0.6029701603819979,-6.894852515189492,-6.331675190760982
1621786684014.605,0.042,0.016,0.033,0.5664284785126196,-6.901046020591082,-6.307520519694783
1621786684019.367,0.04,0.016,0.031,0.5299167473071371,-6.90723444960896,-6.283385646525057
1621786684024.126,0.033,0.016,0.033,0.4934274790995764,-6.913419071339055,-6.259265621777685
1621786684024.573,0.033,0.01581206055940467,0.032718090839107004,0.49,-6.914,-6.257
1621786684028.883,0.033,0.014,0.03,0.4596830656702178,-6.92494778184131,-6.273281316584512
1621786684033.635,0.031,0.016,0.028,0.4262578470345047,-6.937017999681984,-6.291231896962952
1621786684038.385,0.037,0.007,0.016,0.39284636667196693,-6.949083256479568,-6.30917509937987
1621786684039.927,0.039274279835390946,0.005700411522633745,0.014700411522633745,0.382,-6.953,-6.315
1621786684043.131,0.044,0.003,0.012,0.382,-6.944843900884392,-6.323365229862163
1621786684047.875,0.049,0.0,0.005,0.382,-6.932768225639391,-6.335750537805753
1621786684052.615,0.056,-0.007,-0.003,0.382,-6.920702493825193,-6.348125647358777
1621786684055.248,0.058779782463013554,-0.012003608433424403,-0.006335738955616269,0.382,-6.914,-6.355
1621786684057.351,0.061,-0.016,-0.009,0.3793858194770553,-6.903130512562493,-6.357614180522945
1621786684062.084,0.068,-0.028,-0.014,0.373502547638443,-6.878668487549316,-6.363497452361557
1621786684066.815,0.068,-0.035,-0.026,0.36762170364336255,-6.854216557253981,-6.369378296356637
1621786684070.533,0.06642691870674518,-0.033426918706745176,-0.029146162586509657,0.363,-6.835,-6.374
1621786684071.542,0.066,-0.033,-0.03,0.35777354654885385,-6.831096699321296,-6.371419852093737
1621786684076.265,0.058,-0.042,-0.038,0.333310507107184,-6.812826834421821,-6.359343161736458
1621786684080.985,0.052,-0.042,-0.049,0.30886137789729795,-6.7945673581764625,-6.347273338455628
1621786684085.702,0.049,-0.058,-0.049,0.2844299526187732,-6.776321103854527,-6.335212255090281
1621786684085.785,0.048841557500129446,-0.05812323305545488,-0.04912323305545488,0.284,-6.776,-6.335
1621786684090.417,0.04,-0.065,-0.056,0.2541725459999679,-6.78208723551021,-6.34108723551021
1621786684095.127,0.037,-0.07,-0.063,0.22384359208816593,-6.788276817941191,-6.347276817941191
1621786684099.835,0.03,-0.084,-0.061,0.19352721497665915,-6.7944638336782335,-6.353463833678234
1621786684101.004,0.0285093399750934,-0.08648443337484434,-0.062242216687422164,0.186,-6.796,-6.355
1621786684104.54,0.024,-0.094,-0.066,0.1815752001800817,-6.796,-6.386905135543622
1621786684109.24,0.026,-0.096,-0.075,0.17569410232498311,-6.796,-6.429310946393543
1621786684113.938,0.026,-0.106,-0.08,0.16981544843554042,-6.796,-6.471699134964788
1621786684116.188,0.028396629739428927,-0.11127258542674365,-0.08095865189577157,0.167,-6.796,-6.492
1621786684118.632,0.031,-0.117,-0.082,0.17329125509595708,-6.78648246023945,-6.5094219371888045
1621786684123.324,0.024,-0.122,-0.089,0.185368504165391,-6.768211750108768,-6.542866626919544
1621786684128.012,0.037,-0.127,-0.093,0.19743569828711388,-6.749956251309238,-6.5762834721797
1621786684131.339,0.037,-0.13339145388223034,-0.09513048462741011,0.206,-6.737,-6.6
1621786684132.697,0.037,-0.136,-0.096,0.21480304914485052,-6.737,-6.6
1621786684137.379,0.038,-0.145,-0.106,0.24515473441108543,-6.737,-6.6
1621786684142.057,0.045,-0.141,-0.112,0.2754810962709346,-6.737,-6.6
1621786684146.456,0.042177032743224194,-0.1541738471982871,-0.11482296725677582,0.304,-6.737,-6.6
1621786684146.732,0.042,-0.155,-0.115,0.30542667529944967,-6.736652476529621,-6.598737941081255
1621786684151.404,0.047,-0.159,-0.117,0.3295879896406604,-6.730767028164455,-6.577364470702492
1621786684156.072,0.049,-0.164,-0.119,0.3537278407251538,-6.724886808028488,-6.5560099870508255
1621786684160.739,0.047,-0.162,-0.119,0.377862641631596,-6.719007818064099,-6.534659970864357
1621786684161.539,0.047343303127127964,-0.16268660625425593,-0.1198582578178199,0.382,-6.718,-6.531
1621786684165.4,0.049,-0.166,-0.124,0.38713141670452333,-6.707737166590953,-6.510987474852359
1621786684170.059,0.051,-0.164,-0.126,0.3933239016159388,-6.695352196768122,-6.486836783697839
1621786684174.715,0.049,-0.162,-0.126,0.3995121682133818,-6.682975663573236,-6.462702543967811
1621786684176.587,0.048195403505089725,-0.16562068422709625,-0.126,0.402,-6.678,-6.453
1621786684179.368,0.047,-0.171,-0.126,0.3982954892842044,-6.663552408208397,-6.445776204104199
1621786684184.017,0.045,-0.166,-0.131,0.392102442355849,-6.639399525187811,-6.433699762593905
1621786684188.663,0.042,-0.159,-0.134,0.3859136232072588,-6.615263130508309,-6.421631565254154
1621786684191.601,0.04073412927996634,-0.16216467680008415,-0.13336706463998318,0.382,-6.6,-6.414
1621786684193.305,0.04,-0.164,-0.133,0.3854120465434634,-6.6,-6.414
1621786684197.945,0.033,-0.159,-0.133,0.3947041165542192,-6.6,-6.414
1621786684202.582,0.031,-0.159,-0.131,0.4039898308399335,-6.6,-6.414
1621786684206.582,0.026682285352869865,-0.1495010277763137,-0.12927291414114794,0.412,-6.6,-6.414
1621786684207.214,0.026,-0.148,-0.129,0.4115770920792564,-6.600803525049413,-6.4156493408909
1621786684211.844,0.023,-0.15,-0.131,0.40847936098270143,-6.606689214132867,-6.4277304921674645
1621786684216.471,0.016,-0.147,-0.127,0.4053835900619089,-6.612571178882373,-6.439803998758555
1621786684221.094,0.019,-0.148,-0.122,0.4022904327087996,-6.61844817785328,-6.451867312435682
1621786684221.528,0.018342316634960897,-0.14724836186852674,-0.12218790953286832,0.402,-6.619,-6.453
1621786684225.714,0.012,-0.14,-0.124,0.3963863669847922,-6.619,-6.469560217394863
1621786684230.332,0.01,-0.141,-0.122,0.39019356000458366,-6.619,-6.487828997986478
1621786684234.945,0.005,-0.141,-0.12,0.3840073010624192,-6.619,-6.506078461865863
1621786684236.442,0.005,-0.14002589768033047,-0.12064940154644635,0.382,-6.619,-6.512
1621786684239.555,0.005,-0.138,-0.122,0.3780247928460087,-6.615024792846008,-6.526227057182705
1621786684244.162,0.005,-0.143,-0.12,0.3721416359012224,-6.6091416359012225,-6.547282566248256
1621786684248.766,0.005,-0.134,-0.12,0.3662625317909591,-6.603262531790959,-6.568323570432357
1621786684251.321,0.007221278853807375,-0.1362212788538074,-0.12222127885380737,0.363,-6.6,-6.58
1621786684253.367,0.009,-0.138,-0.124,0.3656185346599786,-6.6,-6.582756352273662
1621786684257.965,0.007,-0.14,-0.124,0.37150367568456544,-6.6,-6.5889512375627
1621786684262.559,0.01,-0.131,-0.127,0.3773835046459995,-6.6,-6.595140531206315
1621786684266.166,0.01,-0.13335705169112955,-0.12621431610295683,0.382,-6.6,-6.6
1621786684267.15,0.01,-0.134,-0.126,0.38073784327300303,-6.602590742755415,-6.602590742755415
1621786684271.738,0.01,-0.14,-0.126,0.3748520588138331,-6.614672089803184,-6.614672089803184
1621786684276.322,0.01,-0.138,-0.126,0.3689715985889955,-6.62674250815943,-6.62674250815943
1621786684280.903,0.012,-0.138,-0.124,0.3630948966472159,-6.638805212145189,-6.638805212145189
1621786684280.977,0.011951532924553452,-0.1378869101572914,-0.124,0.363,-6.639,-6.639
1621786684285.482,0.009,-0.131,-0.124,0.3569036920789626,-6.632903692078963,-6.650887800446023
1621786684290.057,0.01,-0.127,-0.122,0.3507125629800942,-6.626712562980094,-6.662960502188817
1621786684294.628,0.009,-0.138,-0.124,0.34452672007929297,-6.620526720079293,-6.675022895845379
1621786684295.756,0.009,-0.13849393404948962,-0.12350606595051039,0.343,-6.619,-6.678
1621786684299.196,0.009,-0.14,-0.122,0.31570419736733174,-6.619,-6.687331898335955
1621786684303.762,0.003,-0.136,-0.12,0.2794738140574551,-6.619,-6.699718354168391
1621786684308.323,0.01,-0.145,-0.124,0.24328217567679444,-6.619,-6.712091563871182
1621786684310.501,0.006178215700974618,-0.14738861518689086,-0.1254331691121345,0.226,-6.619,-6.718
1621786684312.882,0.002,-0.15,-0.127,0.21952562400424855,-6.622237187997875,-6.72738784519384
1621786684317.437,0.0,-0.155,-0.126,0.2071404673393521,-6.628429766330324,-6.745346322357939
1621786684321.99,0.002,-0.159,-0.131,0.1947606213489113,-6.634619689325545,-6.763297099044078
1621786684325.212,0.002708259539526646,-0.1604165190790533,-0.1295834809209467,0.186,-6.639,-6.776
1621786684326.539,0.003,-0.161,-0.129,0.18780859381498177,-6.639,-6.779617187629963
1621786684331.084,0.005,-0.171,-0.138,0.1940022624058024,-6.639,-6.792004524811604
1621786684335.626,0.007,-0.178,-0.14,0.20019193851579525,-6.639,-6.80438387703159
1621786684339.888,0.011694761187607573,-0.18269476118760758,-0.13624419104991395,0.206,-6.639,-6.816
1621786684340.165,0.012,-0.183,-0.136,0.20673797139141742,-6.639,-6.813767163482378
1621786684344.702,0.017,-0.188,-0.141,0.21882054616384913,-6.639,-6.777209629555533
1621786684349.234,0.019,-0.194,-0.14,0.23089011703511053,-6.639,-6.740691440765564
1621786684353.763,0.017,-0.199,-0.145,0.24295188556566968,-6.639,-6.704196859057718
1621786684354.532,0.018019032727664853,-0.199,-0.145,0.245,-6.639,-6.698
1621786684358.291,0.023,-0.199,-0.145,0.255034306435172,-6.644145798171883,-6.672785588957773
1621786684362.813,0.019,-0.195,-0.145,0.26710519191885435,-6.650335995855823,-6.642453620306468
1621786684367.333,0.021,-0.195,-0.145,0.2791708637601724,-6.656523519877012,-6.6121347526026435
1621786684369.142,0.01939766461239053,-0.19740350308141422,-0.145,0.284,-6.659,-6.6
1621786684371.849,0.017,-0.201,-0.145,0.29495817350374376,-6.648041826496256,-6.592756461582271
1621786684376.363,0.017,-0.195,-0.141,0.31323069063133385,-6.629769309368666,-6.580678018057253
1621786684380.873,0.01,-0.199,-0.14,0.33148739509874536,-6.611512604901255,-6.568610026968626
1621786684383.717,0.004951679306608884,-0.19458271939328278,-0.14189312026002165,0.343,-6.6,-6.561
1621786684385.38,0.002,-0.192,-0.143,0.35089104372355434,-6.6,-6.555396215326751
1621786684389.883,-0.005,-0.197,-0.14,0.3722609308885755,-6.6,-6.54022049835449
1621786684394.384,-0.012,-0.199,-0.138,0.39362039089260525,-6.6,-6.525052186177715
1621786684398.257,-0.016306188925081434,-0.19469381107491857,-0.138,0.412,-6.6,-6.512
1621786684398.881,-0.017,-0.194,-0.138,0.412,-6.604215266558966,-6.508601978998384
1621786684403.375,-0.026,-0.195,-0.133,0.412,-6.634571452611739,-6.484131175955842
1621786684407.865,-0.035,-0.19,-0.127,0.412,-6.664901252019386,-6.45968164378029
1621786684412.353,-0.044,-0.187,-0.124,0.412,-6.69521785810447,-6.435242747038234
1621786684412.765,-0.04445927256887727,-0.1853466187520418,-0.12381629097244909,0.412,-6.698,-6.433
1621786684416.837,-0.049,-0.169,-0.122,0.412,-6.719948274116813,-6.460576036710868
1621786684421.318,-0.049,-0.164,-0.117,0.412,-6.744102034618889,-6.490923069136552
1621786684425.796,-0.045,-0.161,-0.117,0.412,-6.768237372203664,-6.521246954819988
1621786684427.236,-0.04274675324675325,-0.15810296846011132,-0.117,0.412,-6.776,-6.531
1621786684430.27,-0.038,-0.152,-0.117,0.4159923066517872,-6.780202428054513,-6.5454983767880695
1621786684434.741,-0.031,-0.152,-0.112,0.4218755537519867,-6.786395319738934,-6.56686385309932
1621786684439.209,-0.024,-0.148,-0.11,0.4277549457238511,-6.792584153393528,-6.588215329207669
1621786684441.675,-0.02123910785546384,-0.14247821571092767,-0.10779128628437107,0.431,-6.796,-6.6
1621786684443.675,-0.019,-0.138,-0.106,0.42836203243902854,-6.793223192041083,-6.597223192041082
1621786684448.136,-0.012,-0.143,-0.105,0.4224781282307679,-6.787029608663966,-6.591029608663966
1621786684452.594,-0.005,-0.129,-0.105,0.4165980882328017,-6.780840092876633,-6.584840092876633
1621786684456.08,-0.0010875164401578253,-0.129,-0.10187001315212627,0.412,-6.776,-6.58
1621786684457.049,0.0,-0.129,-0.101,0.41328112736353906,-6.773370317516946,-6.57271780235462
1621786684461.501,0.0,-0.129,-0.099,0.4191670828873825,-6.761288619336425,-6.539260792008562
1621786684465.95,0.0,-0.124,-0.096,0.4250491650102781,-6.7492148718210085,-6.505825798888946
1621786684470.395,0.0,-0.115,-0.094,0.43092608259857634,-6.737151725192396,-6.47242016207125
1621786684470.451,-6.293283500054963e-05,-0.115,-0.09391189403099923,0.431,-6.737,-6.472
1621786684474.837,-0.005,-0.115,-0.087,0.43711834823329077,-6.731187569178374,-6.4420200936568754
1621786684479.276,-0.01,-0.108,-0.084,0.44331060025542784,-6.7253049297573435,-6.411678058748404
1621786684483.711,-0.016,-0.101,-0.077,0.4494974031502767,-6.719427467007237,-6.381362724563644
1621786684484.788,-0.01672893490472519,-0.10221489150787533,-0.07651404339684988,0.451,-6.718,-6.374
1621786684488.144,-0.019,-0.106,-0.075,0.441851169855112,-6.7224571223782785,-6.378691707766609
1621786684492.573,-0.026,-0.101,-0.068,0.4297771899585303,-6.728339317712511,-6.384883492328958
1621786684496.999,-0.031,-0.091,-0.066,0.41771119681894975,-6.734217622062563,-6.3910711811184875
1621786684499.094,-0.031,-0.09005271292156537,-0.0655263564607827,0.412,-6.737,-6.394
1621786684501.422,-0.031,-0.089,-0.065,0.412,-6.746626390172125,-6.403626390172125
1621786684505.841,-0.026,-0.072,-0.058,0.412,-6.7648979570885945,-6.421897957088595
1621786684510.257,-0.033,-0.073,-0.058,0.412,-6.783157410259043,-6.440157410259043
1621786684513.363,-0.03651844681674871,-0.06948155318325129,-0.0530741744565518,0.412,-6.796,-6.453
1621786684514.671,-0.038,-0.068,-0.051,0.412,-6.792417091114884,-6.4584202980569705
1621786684519.08,-0.03,-0.066,-0.052,0.412,-6.78033806657406,-6.476693694157191
1621786684523.486,-0.03,-0.061,-0.045,0.412,-6.768267736790657,-6.494953936650031
1621786684527.599,-0.024396163654507152,-0.06286794544849762,-0.045,0.412,-6.757,-6.512
1621786684527.89,-0.024,-0.063,-0.045,0.4117952588059342,-6.756590517611868,-6.512
1621786684532.29,-0.017,-0.054,-0.04,0.40869697959464335,-6.750393959189287,-6.512
1621786684536.687,-0.017,-0.045,-0.037,0.4056009351738839,-6.7442018703477675,-6.512
1621786684541.08,-0.017,-0.042,-0.037,0.40250764126454763,-6.738015282529095,-6.512
1621786684541.801,-0.017328384765082014,-0.042,-0.03634323046983597,0.402,-6.737,-6.512
1621786684545.471,-0.019,-0.042,-0.033,0.402,-6.73207877868909,-6.512
1621786684549.858,-0.024,-0.044,-0.03,0.402,-6.726196033496451,-6.512
1621786684554.241,-0.023,-0.044,-0.026,0.402,-6.720318526431869,-6.512
1621786684555.97,-0.023,-0.040448147116188354,-0.025210699359152967,0.402,-6.718,-6.512
1621786684558.622,-0.023,-0.035,-0.024,0.402,-6.706929283333046,-6.521194324011538
1621786684563.0,-0.026,-0.031,-0.023,0.402,-6.688654396904634,-6.536371772062252
1621786684567.374,-0.028,-0.03,-0.016,0.402,-6.670395816419947,-6.551535677888518
1621786684570.104,-0.028,-0.030624727638415554,-0.016624727638415555,0.402,-6.659,-6.561
1621786684571.744,-0.028,-0.031,-0.017,0.3996744105529204,-6.659,-6.567744209396531
1621786684576.112,-0.03,-0.033,-0.017,0.3934797631824949,-6.659,-6.585708686770765
1621786684580.477,-0.037,-0.031,-0.014,0.38728961672956413,-6.659,-6.603660111484264
1621786684584.207,-0.029301981860933825,-0.03014466465121487,-0.012289329302429739,0.382,-6.659,-6.619
1621786684584.838,-0.028,-0.03,-0.012,0.382,-6.659,-6.621645795008851
1621786684589.196,-0.033,-0.031,-0.01,0.382,-6.659,-6.639923692339731
1621786684593.55,-0.026,-0.03,-0.009,0.382,-6.659,-6.658184183124501
1621786684597.902,-0.031,-0.026,-0.007,0.382,-6.659,-6.676436482593454
1621786684598.275,-0.030399797855017126,-0.02642871581784491,-0.00742871581784491,0.382,-6.659,-6.678
1621786684602.25,-0.024,-0.031,-0.012,0.37095348270823186,-6.659,-6.6836648806624455
1621786684606.595,-0.023,-0.024,-0.01,0.3588791141882959,-6.659,-6.6898568645188226
1621786684610.937,-0.017,-0.03,-0.005,0.3468128870642266,-6.659,-6.696044673300397
1621786684612.309,-0.015418861129867208,-0.03252982219221247,-0.005632455548053117,0.343,-6.659,-6.698
1621786684615.276,-0.012,-0.038,-0.007,0.33897335193582145,-6.663026648064179,-6.68973477502616
1621786684619.611,-0.012,-0.03,-0.005,0.33308944890129055,-6.668910551098709,-6.677657289850018
1621786684623.943,-0.009,-0.028,-0.01,0.3272098535054064,-6.674790146494593,-6.665588646668992
1621786684626.308,-0.006814181756642409,-0.026907090878321206,-0.01,0.324,-6.678,-6.659
1621786684628.271,-0.005,-0.026,-0.01,0.3211886145884328,-6.672517798447444,-6.653377229176865
1621786684632.598,-0.003,-0.024,-0.01,0.31499132806489966,-6.6604330897265545,-6.640982656129799
1621786684636.92,-0.003,-0.023,-0.01,0.3088010350374152,-6.64836201832296,-6.62860207007483
1621786684640.272,-0.003,-0.02843270589565316,-0.011552201684472331,0.304,-6.639,-6.619
1621786684641.239,-0.003,-0.03,-0.012,0.2999044005537933,-6.639,-6.613585478698235
1621786684645.554,-0.005,-0.033,-0.012,0.28162981721315783,-6.639,-6.589425860044514
1621786684649.867,0.0,-0.037,-0.012,0.26336350572194667,-6.639,-6.565277177056133
1621786684654.177,-0.009,-0.033,-0.012,0.24510960200487197,-6.639,-6.541144897565763
1621786684654.203,-0.009006010092419345,-0.033,-0.01198797981516131,0.245,-6.639,-6.541
1621786684658.483,-0.01,-0.033,-0.01,0.2391488397421259,-6.63284088393908,-6.547159116060921
1621786684662.786,-0.014,-0.033,-0.009,0.23326630597080472,-6.626648743127163,-6.553351256872837
1621786684667.086,-0.016,-0.035,-0.012,0.22738777732885979,-6.620460818240905,-6.559539181759095
1621786684668.101,-0.016,-0.03334596806273797,-0.012472580553503438,0.226,-6.619,-6.561
1621786684671.382,-0.016,-0.028,-0.014,0.226,-6.619,-6.574724130645303
1621786684675.675,-0.014,-0.028,-0.012,0.226,-6.619,-6.592681204331367
1621786684679.966,-0.017,-0.021,-0.012,0.226,-6.619,-6.610630108284179
1621786684681.967,-0.016533124465964114,-0.02426812873825121,-0.01386750213614355,0.226,-6.619,-6.619
1621786684684.252,-0.016,-0.028,-0.016,0.226,-6.622187019001566,-6.619
1621786684688.535,-0.014,-0.035,-0.012,0.226,-6.628160934413948,-6.619
1621786684692.815,-0.012,-0.037,-0.016,0.226,-6.634130763467956,-6.619
1621786684696.306,-0.012,-0.037,-0.01321008731281401,0.226,-6.639,-6.619
1621786684697.82,-0.012,-0.037,-0.012,0.226,-6.639,-6.617220641751604
1621786684702.824,-0.009,-0.037,-0.016,0.226,-6.639,-6.611340324650811
1621786684707.828,-0.01,-0.04,-0.01,0.226,-6.639,-6.605460007550018
1621786684712.474,-0.007214024300980823,-0.041857317132679456,-0.011857317132679452,0.226,-6.639,-6.6
1621786684712.831,-0.007,-0.042,-0.012,0.22641951219512196,-6.638558408215661,-6.59955840821566
1621786684717.835,-0.012,-0.033,-0.012,0.2323007173601148,-6.632367665936721,-6.593367665936721
1621786684722.839,-0.012,-0.028,-0.014,0.23818220946915353,-6.6261766216114175,-6.587176621611417
1621786684727.842,-0.01,-0.019,-0.012,0.2440622668579627,-6.619987087517933,-6.580987087517934
1621786684728.64,-0.01063803201874268,-0.01852147598594299,-0.011202459976571651,0.245,-6.619,-6.58
1621786684732.844,-0.014,-0.016,-0.007,0.245,-6.614058301111648,-6.58
1621786684737.848,-0.014,-0.017,-0.01,0.245,-6.608176474142097,-6.58
1621786684742.851,-0.017,-0.016,-0.007,0.245,-6.602295508095698,-6.58
1621786684744.804,-0.019732965638422494,-0.015219152674736431,-0.007,0.245,-6.6,-6.58
1621786684747.853,-0.024,-0.014,-0.007,0.2414155438066465,-6.6,-6.583773111782477
1621786684752.856,-0.021,-0.016,-0.005,0.23553415407854986,-6.6,-6.589964048338368
1621786684757.859,-0.024,-0.012,-0.005,0.22965276435045318,-6.6,-6.59615498489426
1621786684760.966,-0.02772697545024159,-0.010136512274879203,-0.003757674849919469,0.226,-6.6,-6.6
1621786684762.861,-0.03,-0.009,-0.003,0.226,-6.597655091159011,-6.6069174810809175
1621786684767.863,-0.03,-0.005,-0.005,0.226,-6.5914656435508965,-6.625176351524855
1621786684772.865,-0.03,-0.002,-0.002,0.226,-6.585276195942782,-6.643435221968793
1621786684777.129,-0.03085245021475986,-0.010524502147598595,-0.0028524502147598595,0.226,-6.58,-6.659
1621786684777.867,-0.031,-0.012,-0.003,0.226,-6.58,-6.658086417141389
1621786684782.868,-0.033,-0.005,0.0,0.226,-6.58,-6.651895933755421
1621786684787.869,-0.031,-0.007,0.0,0.226,-6.58,-6.645705450369452
1621786684792.871,-0.033,0.002,0.0,0.226,-6.58,-6.639513455930129
1621786684793.286,-0.033331771138449526,0.0018341144307752392,0.00041471392306190196,0.226,-6.58,-6.639
1621786684797.872,-0.037,0.0,0.005,0.226,-6.585676941674222,-6.644676941674222
1621786684802.873,-0.033,0.003,0.003,0.226,-6.591867331520096,-6.650867331520097
1621786684807.874,-0.037,0.016,0.005,0.226,-6.598057721365971,-6.657057721365971
1621786684809.443,-0.03731375707869557,0.015372485842608866,0.005627514157391135,0.226,-6.6,-6.659
1621786684812.875,-0.038,0.014,0.007,0.226,-6.6,-6.6672839420359935
1621786684817.875,-0.04,0.014,0.007,0.226,-6.6,-6.679353027395398
1621786684822.875,-0.037,0.012,0.007,0.226,-6.6,-6.691422112754801
1621786684825.6,-0.037,0.012,0.00863505859375,0.226,-6.6,-6.698
1621786684827.875,-0.037,0.012,0.01,0.226,-6.597183277409993,-6.700816722590007
1621786684832.876,-0.037,0.017,0.01,0.226,-6.590991203409812,-6.707008796590188
1621786684837.876,-0.037,0.016,0.009,0.226,-6.584800338562921,-6.713199661437079
1621786684841.753,-0.035449218750000004,0.011347656250000001,0.011326171874999999,0.226,-6.58,-6.718
1621786684842.876,-0.035,0.01,0.012,0.22189751341546368,-6.581390673418487,-6.718
1621786684847.876,-0.031,0.005,0.012,0.20363252966518028,-6.587582193333837,-6.718
1621786684852.875,-0.03,0.005,0.012,0.18537111329453557,-6.593772503967954,-6.718
1621786684857.875,-0.03,0.016,0.016,0.16710612954425214,-6.599964023883304,-6.718
1621786684857.904,-0.029988378906249998,0.016,0.016017431640625,0.167,-6.6,-6.718
1621786684862.875,-0.028,0.016,0.019,0.16084436315264383,-6.6,-6.705688726305287
1621786684867.873,-0.03,0.016,0.016,0.15465516824379477,-6.6,-6.693310336487589
1621786684872.872,-0.03,0.017,0.021,0.14846476403543246,-6.6,-6.680929528070865
1621786684874.055,-0.02952667057444314,0.015343347010550998,0.019816676436107857,0.147,-6.6,-6.678
1621786684877.87,-0.028,0.01,0.016,0.1517246451300812,-6.590786941996342,-6.673511587126423
1621786684882.869,-0.028,0.014,0.017,0.15791502773956553,-6.578715695907847,-6.667630723647412
1621786684887.868,-0.026,0.014,0.012,0.1641057126876389,-6.566643860259104,-6.661749572946743
1621786684890.205,-0.0250647713950762,0.017273300117233294,0.015273300117233294,0.167,-6.561,-6.659
1621786684892.866,-0.024,0.021,0.019,0.17342649148801065,-6.561,-6.6524087266789635
1621786684897.864,-0.026,0.024,0.019,0.18549761120014513,-6.561,-6.640028091076774
1621786684902.862,-0.031,0.028,0.019,0.19756873091227964,-6.561,-6.627647455474585
1621786684906.353,-0.03519079718640094,0.02171380422039859,0.01760306760453302,0.206,-6.561,-6.619
1621786684907.86,-0.037,0.019,0.017,0.20413340993619786,-6.561,-6.6172267394393876
1621786684912.858,-0.037,0.017,0.024,0.19794339451483173,-6.561,-6.61134622478909
1621786684917.855,-0.044,0.024,0.017,0.19175428623265095,-6.561,-6.605466571921018
1621786684922.501,-0.03749306369675654,0.025859124658069558,0.023506936303243457,0.186,-6.561,-6.6
1621786684922.853,-0.037,0.026,0.024,0.186,-6.561414280097983,-6.601286448725315
1621786684927.85,-0.045,0.026,0.023,0.186,-6.567294644207216,-6.619546526748722
1621786684932.847,-0.037,0.026,0.024,0.186,-6.5731747210209575,-6.637805712644026
1621786684937.844,-0.042,0.021,0.024,0.186,-6.57905508513019,-6.656065790667433
1621786684938.647,-0.041678683079327865,0.022606584603360687,0.024963950762016414,0.186,-6.58,-6.659
1621786684942.842,-0.04,0.031,0.03,0.186,-6.585197048059765,-6.663937195656776
1621786684947.838,-0.044,0.028,0.024,0.186,-6.591386141608444,-6.669816834528022
1621786684952.834,-0.045,0.024,0.03,0.186,-6.597575537610017,-6.675696760729516
1621786684954.791,-0.042258014073494915,0.026741985926505084,0.030391712275215012,0.186,-6.6,-6.678
1621786684957.83,-0.038,0.031,0.031,0.1824230967000393,-6.6035769032999605,-6.674423096700039
1621786684962.827,-0.038,0.031,0.03,0.1765419527540002,-6.609458047245999,-6.668541952754
1621786684967.823,-0.035,0.04,0.026,0.17066167085085146,-6.615338329149148,-6.662661670850851
1621786684970.934,-0.035,0.03439567044566067,0.029113516419077404,0.167,-6.619,-6.659
1621786684972.819,-0.035,0.031,0.031,0.16921891307307188,-6.619,-6.656664302028346
1621786684977.814,-0.035,0.033,0.026,0.17509855852857986,-6.619,-6.650475201548863
1621786684982.811,-0.035,0.044,0.03,0.18098079046481025,-6.619,-6.644283378458095
1621786684987.075,-0.03158536585365854,0.04058536585365854,0.030853658536585366,0.186,-6.619,-6.639
1621786684987.806,-0.031,0.04,0.031,0.1869057083219893,-6.619,-6.639905708321989
1621786684992.801,-0.031,0.04,0.031,0.19309501769670567,-6.619,-6.646095017696706
1621786684997.797,-0.03,0.042,0.031,0.19928553710258037,-6.619,-6.65228553710258
1621786685002.792,-0.033,0.047,0.033,0.2054745439695072,-6.619,-6.658474543969507
1621786685003.216,-0.03198098264483012,0.04716983622586165,0.0333396724517233,0.206,-6.619,-6.659
1621786685007.786,-0.021,0.049,0.037,0.206,-6.602576976022994,-6.659
1621786685012.781,-0.026,0.049,0.037,0.206,-6.584625535133499,-6.659
1621786685017.776,-0.026,0.044,0.037,0.206,-6.566674971636034,-6.659
1621786685019.355,-0.025367618302698475,0.044,0.03731619084865076,0.206,-6.561,-6.659
1621786685022.77,-0.024,0.044,0.038,0.2017671765542493,-6.556767176554249,-6.654767176554249
1621786685027.764,-0.028,0.044,0.044,0.19557741364441014,-6.55057741364441,-6.64857741364441
1621786685032.759,-0.037,0.045,0.04,0.1893861377150379,-6.544386137715038,-6.642386137715038
1621786685035.491,-0.03481178196040088,0.04718821803959912,0.04218821803959912,0.186,-6.541,-6.639
1621786685037.753,-0.033,0.049,0.044,0.1888041343200012,-6.543804134320002,-6.639
1621786685042.746,-0.044,0.051,0.045,0.19499411328521057,-6.54999411328521,-6.639
1621786685047.74,-0.045,0.054,0.049,0.20118500022699415,-6.556185000226995,-6.639
1621786685051.624,-0.05200117353674637,0.05244418365850081,0.049,0.206,-6.561,-6.639
1621786685052.733,-0.054,0.052,0.049,0.19926316745368688,-6.562306120595713,-6.641680984380676
1621786685057.727,-0.054,0.061,0.054,0.1689222060782177,-6.568188551882795,-6.653755448601526
1621786685062.72,-0.058,0.052,0.063,0.13858866085482502,-6.574069545344472,-6.665826961496549
1621786685067.713,-0.054,0.058,0.058,0.10825511563143238,-6.579950538806151,-6.677898474391573
1621786685067.755,-0.05398318341806805,0.0579663668361361,0.05800840829096598,0.108,-6.58,-6.678
1621786685072.707,-0.052,0.054,0.059,0.108,-6.604255445394687,-6.6841406190872625
1621786685077.699,-0.045,0.061,0.059,0.108,-6.628705804889124,-6.690330583516234
1621786685082.691,-0.038,0.058,0.061,0.108,-6.653156164383561,-6.696520547945206
1621786685083.884,-0.037761050264032855,0.05656630158419715,0.061477899471934286,0.108,-6.659,-6.698
1621786685087.684,-0.037,0.052,0.063,0.11247676354828944,-6.631196942173782,-6.693287617317591
1621786685092.677,-0.037,0.058,0.066,0.11835882531032395,-6.594666242809567,-6.687095973357554
1621786685097.669,-0.04,0.063,0.061,0.1242397366030881,-6.558142688465032,-6.680905540417802
1621786685100.012,-0.04093890329208042,0.06534725823020104,0.06334725823020104,0.127,-6.541,-6.678
1621786685102.66,-0.042,0.068,0.066,0.13028368150166517,-6.541,-6.66190996064184
1621786685107.652,-0.054,0.07,0.07,0.13647441719648803,-6.541,-6.631575355737208
1621786685112.645,-0.063,0.08,0.07,0.14266606115652436,-6.541,-6.6012363003330305
1621786685116.14,-0.06650119845423862,0.07789928092745683,0.07630215721762951,0.147,-6.541,-6.58
1621786685117.636,-0.068,0.077,0.079,0.14152558900127188,-6.546474410998728,-6.578237054085156
1621786685122.627,-0.073,0.084,0.082,0.12326296105626551,-6.5647370389437345,-6.572355868814729
1621786685127.619,-0.084,0.089,0.091,0.10499675973593361,-6.583003240264066,-6.5664735327963175
1621786685132.264,-0.09051447857562121,0.09551447857562122,0.09565319898258658,0.088,-6.6,-6.561
1621786685132.61,-0.091,0.096,0.096,0.08759210924725973,-6.600837249439835,-6.564370465693695
1621786685137.601,-0.087,0.103,0.094,0.0817116362865621,-6.6129076939381095,-6.612961742263671
1621786685142.591,-0.087,0.113,0.105,0.07583231393447587,-6.624975776660813,-6.661543511173015
1621786685147.583,-0.087,0.12,0.106,0.06995069036516685,-6.637048582934658,-6.710144295403621
1621786685148.39,-0.08586809530798963,0.12097020402172318,0.10713190469201037,0.069,-6.639,-6.718
1621786685152.573,-0.08,0.126,0.113,0.05862141862014659,-6.654308407535284,-6.743427524380641
1621786685157.563,-0.07,0.129,0.115,0.04624089890362833,-6.672569674117149,-6.77375979768611
1621786685162.553,-0.068,0.138,0.119,0.03386037918711006,-6.690830940699013,-6.80409207099158
1621786685164.512,-0.06407494007728808,0.14153255393044073,0.11939250599227119,0.029,-6.698,-6.816
1621786685167.544,-0.058,0.147,0.12,0.014330112672643568,-6.709096453234795,-6.804903546765204
1621786685172.533,-0.044,0.154,0.122,-0.009808638236006782,-6.727355251999031,-6.786644748000969
1621786685177.523,-0.033,0.155,0.124,-0.033952114126484134,-6.7456176247879815,-6.768382375212018
1621786685180.633,-0.02863711531875336,0.15749307696071235,0.12275346151964382,-0.049,-6.757,-6.757
1621786685182.513,-0.026,0.159,0.122,-0.049,-6.7501194814242655,-6.731810304875278
1621786685187.502,-0.016,0.162,0.12,-0.049,-6.73185929998334,-6.6649594711254485
1621786685192.491,-0.017,0.161,0.12,-0.049,-6.713599118542414,-6.598108637375619
1621786685196.753,-0.01443719109371177,0.16356280890628824,0.12768842671886468,-0.049,-6.698,-6.541
1621786685197.48,-0.014,0.164,0.129,-0.05075898103834737,-6.692677954807052,-6.533467952989641
1621786685202.47,-0.017,0.164,0.127,-0.06283145029381475,-6.65615099654692,-6.4817730205367425
1621786685207.459,-0.019,0.175,0.131,-0.07490155691524808,-6.61963118676925,-6.430088205003938
1621786685212.447,-0.024,0.178,0.134,-0.08696930090264735,-6.583118525474041,-6.378413506391228
1621786685212.873,-0.025195497920234892,0.17885392708588205,0.13434157083435283,-0.088,-6.58,-6.374
1621786685217.436,-0.038,0.188,0.138,-0.1324521367650846,-6.538379209525685,-6.418452136765084
1621786685222.425,-0.051,0.188,0.143,-0.1810545666631319,-6.492872475799488,-6.467054566663132
1621786685227.413,-0.072,0.194,0.148,-0.22964748299525836,-6.447374649679599,-6.515647482995258
1621786685228.989,-0.07800435719181435,0.19336796240086165,0.14705194360129245,-0.245,-6.433,-6.531
1621786685232.4,-0.091,0.192,0.145,-0.2699788330126214,-6.428977984514916,-6.570585099774239
1621786685237.388,-0.11,0.192,0.152,-0.3065075379929999,-6.423096243882483,-6.628473810209245
1621786685242.377,-0.124,0.188,0.155,-0.3430433945968878,-6.41721335171745,-6.686373854149306
1621786685245.102,-0.12673216820874333,0.181442796299016,0.15445356635825133,-0.363,-6.414,-6.718
1621786685247.364,-0.129,0.176,0.154,-0.33815257806936466,-6.431828376187518,-6.718
1621786685252.352,-0.138,0.182,0.152,-0.28335952059879693,-6.471143168835892,-6.718
1621786685257.34,-0.143,0.183,0.157,-0.2285664631282292,-6.510457961484265,-6.718
1621786685261.215,-0.143,0.18455440211536578,0.16088600528841446,-0.186,-6.541,-6.718
1621786685262.326,-0.143,0.185,0.162,-0.18468979418629322,-6.540310417992786,-6.727447273498833
1621786685267.313,-0.141,0.18,0.164,-0.1788076899760541,-6.537214573671608,-6.769860340698979
1621786685272.3,-0.147,0.188,0.164,-0.17292558576581493,-6.534118729350428,-6.8122734078991245
1621786685277.288,-0.141,0.192,0.162,-0.167042329726289,-6.531022278803309,-6.854694780394653
1621786685277.324,-0.14092801880325137,0.191949613162276,0.1619280188032514,-0.167,-6.531,-6.855
1621786685282.274,-0.131,0.185,0.152,-0.14887070912204659,-6.500886940575603,-6.924137126229484
1621786685287.26,-0.119,0.192,0.15,-0.13060908112695696,-6.47055406695664,-6.993778927905673
1621786685292.246,-0.103,0.194,0.136,-0.1123474531318673,-6.440221193337678,-7.063420729581862
1621786685293.433,-0.09895349064917262,0.19304788015274651,0.13480985019093314,-0.108,-6.433,-7.08
1621786685297.233,-0.086,0.19,0.131,-0.06624626390615054,-6.419082087968716,-7.084717936281791
1621786685302.219,-0.068,0.195,0.12,-0.011457228166964747,-6.4008190760556545,-7.090908787777744
1621786685307.204,-0.056,0.195,0.119,0.043321076722543886,-6.382559641092485,-7.0970984267483095
1621786685309.541,-0.04756486830510134,0.2010920395574268,0.11712552629002251,0.069,-6.374,-7.1
1621786685312.191,-0.038,0.208,0.115,0.10437380627557981,-6.345042837653478,-7.077459481582538
1621786685317.176,-0.033,0.199,0.117,0.17092049416401395,-6.290567409428528,-7.03505531302107
1621786685322.161,-0.026,0.202,0.124,0.23746392299530086,-6.236094649082917,-6.992653221161134
1621786685325.647,-0.026,0.2061957980312454,0.124,0.284,-6.198,-6.963
1621786685327.146,-0.026,0.208,0.124,0.31229578873965375,-6.178825879998787,-6.9565776005821185
1621786685332.132,-0.023,0.216,0.127,0.4064138495588636,-6.1150485098384015,-6.935215277567232
1621786685337.117,-0.014,0.225,0.145,0.5005088682048328,-6.051286753782252,-6.913858184519298
1621786685341.752,-0.0074916009598902985,0.228719085165777,0.16080611195455213,0.588,-5.992,-6.894
1621786685342.102,-0.007,0.229,0.162,0.5976095697261894,-5.989021468207041,-6.890586646047485
1621786685347.087,-0.002,0.234,0.175,0.7344353679614299,-5.946611661966706,-6.84198562721732
1621786685352.071,0.005,0.251,0.201,0.8712410624943145,-5.904208086964432,-6.793391749295006
1621786685357.055,0.0,0.262,0.22,1.0080400557930804,-5.861806589041512,-6.744800251675309
1621786685357.855,0.0008025961302963507,0.26504986529512614,0.22385246142542248,1.03,-5.855,-6.737
1621786685362.039,0.005,0.281,0.244,1.159931766489765,-5.8396680515542085,-6.673333434420015
1621786685367.024,0.012,0.304,0.265,1.3147308567096285,-5.821401758908264,-6.597481880212282
1621786685372.008,0.014,0.321,0.293,1.4695072024260805,-5.803138150113723,-6.521641470811221
1621786685373.956,0.015172807447329741,0.3292096521313082,0.3019915237628613,1.53,-5.796,-6.492
1621786685376.991,0.017,0.342,0.316,1.594657411479263,-5.855190749867314,-6.425457532792478
1621786685381.975,0.016,0.353,0.34,1.700842035029191,-5.952397664720601,-6.316177147623019
1621786685386.959,0.01,0.379,0.36,1.8070214572750019,-6.049599818030177,-6.206902115399196
1621786685390.056,0.0006773640372366493,0.38770112689857916,0.3705656540911318,1.873,-6.11,-6.139
1621786685391.942,-0.005,0.393,0.377,1.837384725044739,-6.147841229639965,-6.159619369710941
1621786685396.925,-0.03,0.419,0.393,1.7432820225059904,-6.247825351087386,-6.2140998817070585
1621786685401.907,-0.061,0.443,0.386,1.6492023719251419,-6.3477849798295365,-6.268567047832813
1621786685406.154,-0.08485931912809208,0.4685635562086701,0.386,1.569,-6.433,-6.315
1621786685406.891,-0.089,0.473,0.386,1.5532934520468988,-6.459971302461739,-6.338811676197121
1621786685411.874,-0.112,0.49,0.374,1.447109071880356,-6.642311243913907,-6.499790911435029
1621786685416.856,-0.126,0.51,0.365,1.340945501979402,-6.824615449953738,-6.660738597582248
1621786685421.839,-0.134,0.536,0.347,1.234755919246462,-7.006964325258991,-6.821725720092827
1621786685422.25,-0.13334019406057043,0.5369897089091444,0.3457628638635695,1.226,-7.022,-6.835
1621786685426.821,-0.126,0.548,0.332,1.0169726507394767,-7.119413560864619,-6.960530011376564
1621786685431.803,-0.106,0.552,0.3,0.7891559499431171,-7.225583572241184,-7.097343845278726
1621786685436.785,-0.077,0.55,0.267,0.5613392491467577,-7.331753583617748,-7.234157679180887
1621786685438.345,-0.06885867594452884,0.5465555936688392,0.2560405253099427,0.49,-7.365,-7.277
1621786685441.767,-0.051,0.539,0.232,0.36709049258916515,-7.373293202057132,-7.247654823490147
1621786685446.749,-0.024,0.524,0.194,0.18815838099428073,-7.385366476022877,-7.20493400791905
1621786685451.73,0.0,0.503,0.157,0.009261343811156508,-7.397437383376063,-7.162221566515466
1621786685454.438,0.009242427213018333,0.49158288403097733,0.14014616214096656,-0.088,-7.404,-7.139
1621786685456.711,0.017,0.482,0.126,-0.1364388320060675,-7.401175578308684,-7.0795459233978
1621786685461.693,0.03,0.45,0.099,-0.2426140462646947,-7.3949846037163445,-6.949225908229049
1621786685466.674,0.028,0.417,0.065,-0.34876324611300713,-7.388795145999242,-6.818937823284035
1621786685470.533,0.019476321207961566,0.39375360329444065,0.037879203843514064,-0.431,-7.384,-6.718
1621786685471.654,0.017,0.387,0.03,-0.4433311638068363,-7.3751522157996146,-6.711102908379227
1621786685476.635,0.002,0.358,-0.002,-0.49811783714896907,-7.335842003853565,-6.6804595148149835
1621786685481.616,-0.017,0.314,-0.042,-0.5529045104911019,-7.2965317919075146,-6.64981612125074
1621786685486.596,-0.021,0.283,-0.075,-0.6076804424013472,-7.257229287090558,-6.619178735606026
1621786685486.625,-0.021017501715854498,0.28279581331503084,-0.07523335621139327,-0.608,-7.257,-6.619
1621786685491.576,-0.024,0.248,-0.115,-0.4963250603031084,-7.29022560189329,-6.63715102325652
1621786685496.557,-0.012,0.22,-0.157,-0.3839727687849872,-7.323652729948268,-6.655412139508776
1621786685501.537,-0.007,0.187,-0.19,-0.27163699804299346,-7.3570749427310105,-6.673670570566014
1621786685502.718,-0.006051475634866164,0.18154598490048043,-0.19616540837336993,-0.245,-7.365,-6.678
1621786685506.517,-0.003,0.164,-0.216,-0.10144354753053639,-7.334777588953798,-6.6340830589484865
1621786685511.496,0.01,0.141,-0.241,0.08669926409225398,-7.295168575980578,-6.576526211971777
1621786685516.477,0.009,0.117,-0.262,0.2749158789166224,-7.255544025491237,-6.518946787041954
1621786685518.808,0.009,0.1095091693635383,-0.2676181229773463,0.363,-7.237,-6.492
1621786685521.456,0.009,0.101,-0.274,0.4405090429082964,-7.180554985737695,-6.450036505431814
1621786685526.435,0.005,0.086,-0.295,0.5862511986405292,-7.074420040055836,-6.371131516659586
1621786685531.414,-0.005,0.075,-0.309,0.731993354372762,-6.968285094373976,-6.292226527887358
1621786685534.899,-0.012699029126213592,0.07290026478375992,-0.3138993821712268,0.834,-6.894,-6.237
1621786685536.393,-0.016,0.072,-0.316,0.8931595975537581,-6.868460142343354,-6.2214903409866915
1621786685541.372,-0.026,0.063,-0.323,1.0903002564608404,-6.783352322564001,-6.169806683157049
1621786685546.35,-0.047,0.07,-0.326,1.287402248964293,-6.698261195502071,-6.11813316235944
1621786685550.987,-0.06190085319211533,0.06813739335098559,-0.3315878199470433,1.471,-6.619,-6.07
1621786685551.329,-0.063,0.068,-0.332,1.4816303872769212,-6.616299881631662,-6.068745614301323
1621786685556.308,-0.068,0.082,-0.328,1.6363742260531748,-6.576994946582493,-6.050485841325726
1621786685561.286,-0.079,0.087,-0.326,1.7910801262595606,-6.537699647930071,-6.032230545101372
1621786685566.263,-0.089,0.101,-0.316,1.9457632633240258,-6.498410131115698,-6.013977934927765
1621786685567.075,-0.09177248210257918,0.1018154359125233,-0.3156738256349907,1.971,-6.492,-6.011
1621786685571.242,-0.106,0.106,-0.314,2.0344700382490437,-6.5046940076498085,-5.950120575557039
1621786685576.219,-0.11,0.119,-0.3,2.110278580535487,-6.519855716107098,-5.87740625948637
1621786685581.197,-0.122,0.131,-0.293,2.1861019974500637,-6.535020399490013,-5.8046776759152445
1621786685583.16,-0.12397194152849995,0.1392821544196998,-0.2894505052487001,2.216,-6.541,-5.776
1621786685586.174,-0.127,0.152,-0.284,2.2124391584188476,-6.563114700346105,-5.733832139170563
1621786685591.152,-0.14,0.169,-0.272,2.2065582609751657,-6.599638168680552,-5.664189932600643
1621786685596.129,-0.145,0.173,-0.257,2.200678805634829,-6.636152680794219,-5.594564803570345
1621786685599.243,-0.1481283724124399,0.1761283724124399,-0.2501175806926322,2.197,-6.659,-5.551
1621786685601.106,-0.15,0.178,-0.246,2.1810132681564247,-6.670352896526597,-5.553201071775565
1621786685606.083,-0.161,0.19,-0.225,2.1383051675977653,-6.700681837503036,-5.55908117257712
1621786685611.06,-0.166,0.208,-0.209,2.0955970670391064,-6.731010778479475,-5.564961273378674
1621786685615.325,-0.17028560914577304,0.20628575634169077,-0.19700029439183553,2.059,-6.757,-5.57
1621786685616.036,-0.171,0.206,-0.195,2.0429951415037046,-6.757840034009473,-5.576057087331471
1621786685621.012,-0.171,0.213,-0.175,1.9309721243775053,-6.763719695129357,-5.6184525385643145
1621786685625.99,-0.175,0.213,-0.166,1.8189051378598324,-6.7696016640349805,-5.660864630146969
1621786685630.965,-0.173,0.222,-0.159,1.7069041054293697,-6.775480171261994,-5.703251761204907
1621786685631.405,-0.173,0.2213810902310976,-0.15820425886855405,1.697,-6.776,-5.707
1621786685635.941,-0.173,0.215,-0.15,1.6222484665371069,-6.776,-5.74874802623588
1621786685640.917,-0.169,0.204,-0.141,1.540242666707154,-6.776,-5.794547491801287
1621786685645.893,-0.161,0.208,-0.133,1.4582368668772014,-6.776,-5.8403469573666955
1621786685647.485,-0.16035996466604505,0.20447980566324778,-0.13235996466604505,1.432,-6.776,-5.855
1621786685650.868,-0.159,0.197,-0.131,1.39475664758318,-6.759587675206147,-5.871412324793853
1621786685655.843,-0.162,0.188,-0.131,1.33998290079118,-6.735450091874079,-5.895549908125921
1621786685660.819,-0.162,0.183,-0.133,1.2851984024540248,-6.711307770572961,-5.9196922294270395
1621786685663.562,-0.16144864307798007,0.18024321538990037,-0.13355135692201994,1.255,-6.698,-5.933
1621786685665.794,-0.161,0.178,-0.134,1.2427801169590642,-6.687029877724615,-5.938415629984051
1621786685670.769,-0.168,0.166,-0.129,1.2155413533834587,-6.6625768967874235,-5.950487354750512
1621786685675.743,-0.169,0.154,-0.138,1.1883092731829574,-6.638129915698337,-5.962556117566644
1621786685679.635,-0.17995025022078304,0.13992110685899323,-0.13956432146011188,1.167,-6.619,-5.972
1621786685680.719,-0.183,0.136,-0.14,1.1617294088999817,-6.620351433615389,-5.978622024715408
1621786685685.693,-0.187,0.119,-0.147,1.1375440433432764,-6.6265528093991595,-6.009008766055884
1621786685690.669,-0.199,0.103,-0.148,1.113350368296098,-6.6327563158215135,-6.039405947525416
1621786685695.61,-0.204,0.087,-0.157,1.0893252571985146,-6.63891660071833,-6.069591343519815
1621786685695.677,-0.20409477221069275,0.08674276114240537,-0.1571218499851764,1.089,-6.639,-6.07
1621786685700.551,-0.211,0.068,-0.166,1.05876632197271,-6.6808385241387755,-6.121000244753105
1621786685705.491,-0.218,0.031,-0.171,1.0281237532888698,-6.723242886862877,-6.172690234351099
1621786685710.43,-0.223,0.019,-0.18,0.997487242244386,-6.765638866793123,-6.224370005506945
1621786685711.637,-0.2227557191560848,0.013870102277780523,-0.18244280843915212,0.99,-6.776,-6.237
1621786685715.371,-0.222,-0.002,-0.19,0.9717459758859172,-6.824209345737193,-6.278422593181958
1621786685720.309,-0.213,-0.019,-0.199,0.9476069832915112,-6.887961044127548,-6.333199537915417
1621786685725.248,-0.208,-0.035,-0.211,0.923463216843136,-6.9517253503886405,-6.387987315625191
1621786685727.593,-0.1994520913675467,-0.049721398200336206,-0.21527395431622665,0.912,-6.982,-6.414
1621786685730.186,-0.19,-0.066,-0.22,0.9342710185964644,-7.007522262187189,-6.433019775005739
1621786685735.124,-0.169,-0.084,-0.239,0.9766826203413178,-7.056125338639321,-6.469239902043315
1621786685740.062,-0.14,-0.101,-0.248,1.0190942220861712,-7.104728415091452,-6.505460029080891
1621786685743.544,-0.1223647245029182,-0.11228657631813237,-0.2564649322385993,1.049,-7.139,-6.531
1621786685744.998,-0.115,-0.117,-0.26,1.0713385331353429,-7.140823553725334,-6.522064586745863
1621786685749.936,-0.087,-0.134,-0.262,1.1471980313212804,-7.147016165822145,-6.491720787471488
1621786685754.872,-0.068,-0.133,-0.265,1.2230275247615694,-7.153206328551965,-6.461388990095372
1621786685759.492,-0.04834508853496884,-0.14703922247502224,-0.27342353348501336,1.294,-7.159,-6.433
1621786685759.808,-0.047,-0.148,-0.274,1.296736627720013,-7.158603387286955,-6.427169793118233
1621786685764.744,-0.03,-0.169,-0.278,1.3394597185427928,-7.152411634993798,-6.336151034408832
1621786685769.679,-0.021,-0.176,-0.284,1.382176469687457,-7.146220801494572,-6.2451457819702005
1621786685774.614,-0.01,-0.194,-0.286,1.424893220832121,-7.140029967995345,-6.154140529531569
1621786685775.435,-0.008003166749134092,-0.19516481939633845,-0.2851679861454725,1.432,-7.139,-6.139
1621786685779.548,0.002,-0.201,-0.281,1.4572903710057903,-7.123774164394473,-6.111128978891578
1621786685784.483,0.016,-0.213,-0.281,1.4876337122024448,-7.105506234490365,-6.077689378389143
1621786685789.416,0.023,-0.229,-0.283,1.517966545142612,-7.087244630985571,-6.044261358414264
1621786685791.373,0.025776996931604474,-0.23217371077897656,-0.283,1.53,-7.08,-6.031
1621786685794.349,0.03,-0.237,-0.283,1.533548056006618,-7.08373479579644,-6.008964704801005
1621786685799.282,0.035,-0.253,-0.283,1.5394289806672998,-7.089925242807684,-5.972441067434664
1621786685804.215,0.047,-0.262,-0.278,1.5453101963908207,-7.096115996200863,-5.935915622414902
1621786685807.31,0.05013771595465571,-0.26513771595465574,-0.2786275431909312,1.549,-7.1,-5.913
1621786685809.147,0.052,-0.267,-0.279,1.5581096568529784,-7.108994344740915,-5.897202240647366
1621786685814.079,0.061,-0.283,-0.276,1.5825691581480175,-7.1331442320955105,-5.854785130806603
1621786685819.011,0.073,-0.302,-0.271,1.6070274486965317,-7.157292924029487,-5.812370120614875
1621786685823.24,0.07643060850621379,-0.3122918255186414,-0.2718576521265535,1.628,-7.178,-5.776
1621786685823.942,0.077,-0.314,-0.272,1.6353588014407234,-7.178881293585715,-5.772122308222852
1621786685828.872,0.08,-0.321,-0.269,1.6870470227603647,-7.18507149973178,-5.744885401180166
1621786685833.803,0.08,-0.333,-0.262,1.7387429228293354,-7.191262625488544,-5.71764444785041
1621786685838.733,0.089,-0.342,-0.262,1.790428584565867,-7.197452525097709,-5.690408889570081
1621786685839.169,0.08882308073303616,-0.34323843486874694,-0.26102694403169885,1.795,-7.198,-5.688
1621786685843.662,0.087,-0.356,-0.251,1.861303944564534,-7.192357111100891,-5.699003633353263
1621786685848.591,0.086,-0.361,-0.25,1.934038694445722,-7.186166919621641,-5.711074506737801
1621786685853.52,0.093,-0.372,-0.239,2.0067734443269094,-7.179976728142391,-5.723145380122339
1621786685855.094,0.0939581867723557,-0.3758327470894228,-0.23580604409214764,2.03,-7.178,-5.727
1621786685858.448,0.096,-0.384,-0.229,2.0485398110661266,-7.178,-5.7579699116672804
1621786685863.376,0.098,-0.391,-0.223,2.0757800269905533,-7.178,-5.803473454177402
1621786685868.304,0.096,-0.403,-0.222,2.1030202429149796,-7.178,-5.848976996687523
1621786685871.014,0.0970998266039138,-0.4057495665097845,-0.222,2.118,-7.178,-5.874
1621786685873.232,0.098,-0.408,-0.222,2.109778406650715,-7.186221593349285,-5.975167402908154
1621786685878.158,0.098,-0.412,-0.22,2.0915189582182956,-7.204481041781705,-6.1998514632799555
1621786685883.084,0.089,-0.405,-0.22,2.0732595097858764,-7.2227404902141235,-6.424535523651757
1621786685886.931,0.08119216094346167,-0.3925074575095387,-0.22390391952826916,2.059,-7.237,-6.6
1621786685888.011,0.079,-0.389,-0.225,2.031713145943292,-7.234352767890021,-6.665230514299742
1621786685892.937,0.058,-0.379,-0.229,1.9072631336688353,-7.222279259236529,-6.962734150607585
1621786685897.862,0.042,-0.354,-0.23,1.7828377930526575,-7.210208144102124,-7.260178808150239
1621786685902.787,0.026,-0.328,-0.243,1.6584124524364796,-7.198137028967719,-7.557623465692894
1621786685902.843,0.025977295260757486,-0.32786377156454494,-0.2430567618481063,1.657,-7.198,-7.561
1621786685907.712,0.024,-0.316,-0.248,1.6869926952411645,-7.272981738102911,-7.75013760876571
1621786685912.636,0.035,-0.305,-0.246,1.7173252766140295,-7.348813191535074,-7.9414185810966345
1621786685917.56,0.07,-0.3,-0.239,1.7476578579868942,-7.424644644967236,-8.132699553427559
1621786685918.752,0.08186126537088458,-0.2987896667988893,-0.2385158667195557,1.755,-7.443,-8.179
1621786685922.484,0.119,-0.295,-0.237,1.8310275701149779,-7.3486694963388235,-8.275677033602996
1621786685927.407,0.173,-0.298,-0.236,1.9313216922769907,-7.224230492915586,-8.403211534623827
1621786685932.329,0.222,-0.309,-0.23,2.03159591974579,-7.099816173648742,-8.530720737454523
1621786685934.656,0.24091071428571428,-0.3137276785714286,-0.23283660714285714,2.079,-7.041,-8.591
1621786685937.251,0.262,-0.319,-0.236,2.019759603869185,-6.9690302625518195,-8.517398295716259
1621786685942.174,0.29,-0.34,-0.234,1.907370612620912,-6.832491570704744,-8.3777634884078
1621786685947.095,0.309,-0.361,-0.239,1.7950317825886688,-6.696013818516812,-8.238191002610165
1621786685950.557,0.31533129930049114,-0.39054606340229203,-0.239,1.716,-6.6,-8.14
1621786685952.016,0.318,-0.403,-0.239,1.6691863625892651,-6.5919223527605,-8.090432619212164
1621786685956.938,0.314,-0.44,-0.239,1.5112872609997696,-6.564677017584273,-7.923245335176227
1621786685961.858,0.297,-0.452,-0.239,1.3534508177839206,-6.53744249404899,-7.756124395300622
1621786685966.454,0.2727120031757059,-0.4800246117203394,-0.2324609239319208,1.206,-6.512,-7.6
1621786685966.778,0.271,-0.482,-0.232,1.197010783244497,-6.507984408841645,-7.6034040798144416
1621786685971.697,0.257,-0.504,-0.22,1.060526428165466,-6.447015207139675,-7.6550886315110365
1621786685976.617,0.234,-0.532,-0.206,0.9240149767284681,-6.386033901168953,-7.706783444186725
1621786685981.536,0.222,-0.559,-0.197,0.7875306216494371,-6.325064699466982,-7.75846799588332
1621786685982.348,0.22084427897741377,-0.5632926780838918,-0.1965046909903202,0.765,-6.315,-7.767
1621786685986.454,0.215,-0.585,-0.194,0.6458501244736762,-6.2695111104281285,-7.787159848787534
1621786685991.372,0.225,-0.611,-0.194,0.5031451424532072,-6.215029381934413,-7.811305160279067
1621786685996.291,0.237,-0.62,-0.192,0.3604118234625196,-6.160536834987861,-7.835455266312199
1621786685998.235,0.24688455809334658,-0.628698411122145,-0.192,0.304,-6.139,-7.845
1621786686001.208,0.262,-0.642,-0.192,0.19019626168224296,-6.071054675971471,-7.7661983983030005
1621786686006.125,0.29,-0.658,-0.202,0.0019719626168224202,-5.958677339522873,-7.635865454377767
1621786686011.042,0.325,-0.677,-0.222,-0.18625233644859818,-5.846300003074274,-7.505532510452533
1621786686014.118,0.3368882101708383,-0.6838826479936432,-0.2295083432657926,-0.304,-5.776,-7.424
1621786686015.958,0.344,-0.688,-0.234,-0.3437446537012837,-5.7271013298485665,-7.3160057806134215
1621786686020.874,0.353,-0.703,-0.25,-0.4499272657391037,-5.596462664309324,-7.027486263356138
1621786686025.79,0.353,-0.714,-0.251,-0.5561098777769237,-5.465823998770082,-6.738966746098855
1621786686029.998,0.32988396582555135,-0.7157122988277369,-0.2569930458970793,-0.647,-5.354,-6.492
1621786686030.705,0.326,-0.716,-0.258,-0.6326153041766623,-5.354,-6.467995817186443
1621786686035.619,0.29,-0.712,-0.255,-0.5326426616226856,-5.354,-6.301168404379652
1621786686040.533,0.236,-0.717,-0.241,-0.4326650519776096,-5.354,-6.134332702835701
1621786686045.448,0.182,-0.702,-0.232,-0.3326675739681368,-5.354,-5.967463846343114
1621786686045.874,0.17601684555754324,-0.6996587656529517,-0.22991890280262375,-0.324,-5.354,-5.953
1621786686050.361,0.113,-0.675,-0.208,-0.15215968505874394,-5.387350587439257,-6.033267515531771
1621786686055.274,0.052,-0.649,-0.188,0.03598671341575932,-5.423865842406348,-6.1211516885034145
1621786686060.187,-0.005,-0.613,-0.162,0.2241424617088023,-5.46038291197638,-6.209040228824507
1621786686061.75,-0.021860763267740016,-0.6018655336911151,-0.15213804412641624,0.284,-5.472,-6.237
1621786686065.1,-0.058,-0.578,-0.131,0.3481727893668082,-5.556860070149529,-6.363234631714971
1621786686070.012,-0.099,-0.541,-0.094,0.44226201464525255,-5.681280690419051,-6.548318041966648
1621786686074.924,-0.138,-0.522,-0.058,0.536355916558981,-5.805707494923389,-6.733410651652206
1621786686077.62,-0.1484329471433544,-0.506625130525583,-0.043174233006812196,0.588,-5.874,-6.835
1621786686079.834,-0.157,-0.494,-0.031,0.6332095342145352,-5.9698609568067456,-6.888442134580762
1621786686084.746,-0.157,-0.473,-0.002,0.7335200578577254,-6.182556418976103,-7.007019080739225
1621786686089.656,-0.15,-0.449,0.028,0.8337857109883515,-6.395156739040115,-7.125542985520181
1621786686093.486,-0.13127830540500224,-0.42013738749937846,0.06310317736562081,0.912,-6.561,-7.218
1621786686094.566,-0.126,-0.412,0.073,0.9253448477571504,-6.597698331332164,-7.248025907453588
1621786686099.477,-0.12,-0.387,0.115,0.9860378067177735,-6.764603968473877,-7.38458506511499
1621786686104.386,-0.117,-0.36,0.166,1.0467036113420154,-6.931434931190542,-7.521083125519534
1621786686109.295,-0.066,-0.353,0.209,1.1073694159662573,-7.098265893907207,-7.657581185924078
1621786686109.346,-0.0655843277645187,-0.3528545147175815,0.20943645584725537,1.108,-7.1,-7.659
1621786686114.205,-0.026,-0.339,0.251,0.9728618475750578,-7.123901986143187,-7.794138152424942
1621786686119.113,-0.009,-0.333,0.281,0.836365727482679,-7.14804415704388,-7.930634272517321
1621786686124.02,0.005,-0.332,0.307,0.6998967667436491,-7.172181524249423,-8.06710323325635
1621786686125.203,0.014399343381584839,-0.3339280704372482,0.3159173257722728,0.667,-7.178,-8.1
1621786686128.928,0.044,-0.34,0.344,0.5725392244432809,-7.106566975698401,-8.139241167955154
1621786686133.835,0.096,-0.342,0.367,0.4481082945760311,-7.012469954107247,-8.190932623895032
1621786686138.742,0.157,-0.353,0.382,0.3236773647087812,-6.9183729325160925,-8.24262407983491
1621786686141.056,0.18435625777556605,-0.35111336153271955,0.3862449365513809,0.265,-6.874,-8.267
1621786686143.648,0.215,-0.349,0.391,0.16868399408557438,-6.769834811939747,-8.16430653359209
1621786686148.555,0.262,-0.339,0.391,-0.013651449342328148,-6.5726401133598245,-7.969897945353171
1621786686153.46,0.309,-0.344,0.382,-0.19591431783877022,-6.375523904137017,-7.775566737516558
1621786686156.907,0.3251633069533622,-0.34259449504753375,0.3763779801901349,-0.324,-6.237,-7.639
1621786686158.365,0.332,-0.342,0.374,-0.3275886658140861,-6.186482627386327,-7.537045084051093
1621786686163.271,0.347,-0.344,0.374,-0.3396640575645984,-6.016498266590653,-7.193980108164743
1621786686168.175,0.337,-0.332,0.368,-0.3517346419931896,-5.8465815780958685,-6.851051709526818
1621786686172.752,0.31926748643401204,-0.325466968686215,0.3698665803753671,-0.363,-5.688,-6.531
1621786686173.079,0.318,-0.325,0.37,-0.366841257609617,-5.68009031363181,-6.512785004238268
1621786686177.983,0.295,-0.323,0.372,-0.4244199892116822,-5.561527656623256,-6.239750373738152
1621786686182.887,0.25,-0.323,0.377,-0.48200158742390387,-5.442959096863682,-5.966702149957618
1621786686187.79,0.188,-0.318,0.379,-0.5395717191954998,-5.3244141481081915,-5.693708299298759
