time,gyro_x,gyro_y,gyro_z,acc_x,acc_y,acc_z
1621786579162.073,,,,1.952,-6.217,-8.404
1621786579180.663,,,,2.118,-6.07,-7.257
1621786579197.156,0.347,1.066,1.072,2.1354547192724076,-5.4451210500478,-6.751685877063793
1621786579199.561,0.31641696332477853,1.0908742031625134,1.0752621905786903,2.138,-5.354,-6.678
1621786579203.054,0.272,1.127,1.08,2.207487660678186,-5.354,-6.710197162146699
1621786579208.98,0.208,1.183,1.098,2.3253791814471527,-5.354,-6.764822290879963
1621786579214.935,0.15,1.239,1.115,2.443848673252724,-5.354,-6.819715222946943
1621786579218.763,0.11545630354957159,1.2626688290493677,1.128433659730722,2.52,-5.354,-6.855
1621786579220.919,0.096,1.276,1.136,2.5244209709515526,-5.402851729014656,-6.917888311785835
1621786579226.933,0.045,1.316,1.154,2.5367532321247546,-5.539123214978536,-7.093314726974631
1621786579232.976,0.0,1.351,1.161,2.5491445664009214,-5.676047458730179,-7.269581457053103
1621786579238.27,-0.027023276381909548,1.3736646834170854,1.1671020301507538,2.56,-5.796,-7.424
1621786579239.049,-0.031,1.377,1.168,2.552710525955817,-5.829391902058683,-7.43897179399494
1621786579245.151,-0.038,1.393,1.182,2.495616879830381,-6.090928664250051,-7.556235989330416
1621786579249.921,-0.035,1.414,1.196,2.450984556459886,-6.295382121605909,-7.647905970863826
1621786579255.535,-0.005,1.419,1.204,2.3984551125094042,-6.536011011558717,-7.755795786881882
1621786579256.118,-0.0023033356497567754,1.4182739749826268,1.2036888464211257,2.393,-6.561,-7.767
1621786579261.156,0.021,1.412,1.201,2.2597930483795206,-6.647681446688586,-7.726290183184594
1621786579266.784,0.061,1.433,1.201,2.110990632758505,-6.744511293028249,-7.680814185063411
1621786579272.417,0.099,1.44,1.201,1.9620526605381465,-6.841429349795343,-7.635296759041804
1621786579274.31,0.11041231981299511,1.4383217176745595,1.200328687069824,1.912,-6.874,-7.62
1621786579278.057,0.133,1.435,1.199,1.7892732548809842,-6.805658852634394,-7.5333935009360795
1621786579283.703,0.161,1.436,1.185,1.6043394757956673,-6.702677333511634,-7.4028883926183475
1621786579289.356,0.175,1.436,1.173,1.4191737897833645,-6.599566675581706,-7.272219630917358
1621786579292.567,0.17670223046723327,1.4263540273523447,1.166191078131067,1.314,-6.541,-7.198
1621786579295.015,0.178,1.419,1.161,1.2681798427924327,-6.500389714894752,-7.154717985611511
1621786579300.68,0.176,1.405,1.141,1.1621450439648282,-6.406411350919265,-7.054556834532375
1621786579306.354,0.176,1.396,1.129,1.0559411670663468,-6.312283133493206,-6.954235971223022
1621786579310.892,0.1736022702842155,1.3656287569333965,1.1274015135228104,0.971,-6.237,-6.874
1621786579312.032,0.173,1.358,1.127,0.9794919083969466,-6.230305648854962,-6.852739236641221
1621786579317.717,0.168,1.325,1.115,1.021844142051112,-6.196918486558247,-6.746704082309989
1621786579323.408,0.154,1.299,1.107,1.0642400265516097,-6.163496913375373,-6.640559641553269
1621786579329.106,0.136,1.265,1.105,1.1066886558247595,-6.130033760371722,-6.534283146365748
1621786579329.282,0.13550624892997776,1.2642593733949665,1.1050617188837528,1.108,-6.129,-6.531
1621786579334.81,0.12,1.241,1.107,1.108,-6.143676795068521,-6.4839743504947345
1621786579340.52,0.105,1.21,1.11,1.108,-6.158836486057464,-6.435401463040372
1621786579346.237,0.089,1.178,1.11,1.108,-6.1740149743372665,-6.386768347531615
1621786579347.738,0.08401846560620922,1.1717075355025799,1.1094756279585485,1.108,-6.178,-6.374
1621786579351.962,0.07,1.154,1.108,1.1260128495743167,-6.222690107804634,-6.409797688394527
1621786579357.691,0.066,1.126,1.105,1.1504443580484462,-6.28330498958855,-6.458351445741848
1621786579363.427,0.073,1.1,1.114,1.1749060597274572,-6.34399478109597,-6.506965207306465
1621786579366.263,0.07843196020915699,1.0876546358882795,1.1154814436934064,1.187,-6.374,-6.531
1621786579369.17,0.084,1.075,1.117,1.168549958635904,-6.3863521463369795,-6.538661457854582
1621786579374.919,0.094,1.052,1.124,1.132062046143947,-6.410780494530747,-6.553813218126666
1621786579380.675,0.103,1.025,1.122,1.0955291977991675,-6.435238926897168,-6.568983638202041
1621786579384.855,0.11678560834004323,1.0155677416620756,1.1198233249989407,1.069,-6.453,-6.58
1621786579386.436,0.122,1.012,1.119,1.0789991887259072,-6.449695183387201,-6.58
1621786579392.205,0.14,1.0,1.117,1.1154848016958245,-6.437636379100533,-6.58
1621786579397.98,0.166,0.991,1.119,1.152007471572694,-6.425565327192076,-6.58
1621786579403.513,0.18418476287005364,0.9776007010431184,1.120914185565269,1.187,-6.414,-6.58
1621786579403.761,0.185,0.977,1.121,1.1907620798456284,-6.411138699835719,-6.578317661477483
1621786579409.549,0.216,0.969,1.119,1.2785488800229472,-6.344371274348744,-6.539060888158753
1621786579415.343,0.232,0.958,1.119,1.3664245482281157,-6.277536259094109,-6.4997643745599625
1621786579421.143,0.255,0.939,1.124,1.454392787295627,-6.210630837831495,-6.460426464836111
1621786579422.238,0.2572627706537734,0.9403199495480344,1.1230571788942612,1.471,-6.198,-6.453
1621786579426.95,0.267,0.946,1.119,1.591799229658161,-6.1412419419901365,-6.398753360486149
1621786579432.751,0.288,0.92,1.136,1.740519980741454,-6.071364832333537,-6.331968158336478
1621786579438.557,0.291,0.918,1.143,1.8893659123736157,-6.001428906036514,-6.265126742052597
1621786579441.0,0.28763842116313243,0.921781776191476,1.1438403947092168,1.952,-5.972,-6.237
1621786579444.371,0.283,0.927,1.145,2.0134588772676545,-5.917529158340038,-6.210660481171005
1621786579450.189,0.265,0.922,1.145,2.119525291323869,-5.8235227738703905,-6.165203446575485
1621786579456.014,0.257,0.911,1.155,2.2257207832654227,-5.729401988009655,-6.119691092886248
1621786579459.814,0.24201109529392062,0.9136067660358399,1.1654270641433595,2.295,-5.668,-6.09
1621786579461.845,0.234,0.915,1.171,2.334053812529098,-5.646913092959496,-6.085804135843981
1621786579467.682,0.206,0.92,1.19,2.4462906859448554,-5.586311365164762,-6.073745628782784
1621786579473.524,0.171,0.937,1.216,2.558626144534685,-5.525656406807719,-6.061676529926026
1621786579478.692,0.1374252441773103,0.9529038317054845,1.230136739293764,2.658,-5.472,-6.051
1621786579479.373,0.133,0.955,1.232,2.6600856586799333,-5.468475956023561,-6.064053346565791
1621786579485.229,0.091,0.977,1.253,2.67801634294405,-5.438179282611778,-6.176274698080864
1621786579491.09,0.072,1.002,1.274,2.6959627257143595,-5.407856084137807,-6.288594300591594
1621786579496.957,0.042,1.014,1.285,2.713927049634604,-5.377502571307049,-6.401026189954503
1621786579497.634,0.040385913853317815,1.0172281722933645,1.2869599617495426,2.716,-5.374,-6.414
1621786579502.829,0.028,1.042,1.302,2.761654876920705,-5.379467649930623,-6.475511061719513
1621786579508.708,0.014,1.063,1.323,2.8133194023331107,-5.385655018243487,-6.545118955239221
1621786579514.593,-0.002,1.077,1.347,2.865037566164757,-5.391848810319132,-6.614799116090241
1621786579516.637,-0.009633304322599363,1.090184798375399,1.3515105889178995,2.883,-5.394,-6.639
1621786579520.484,-0.024,1.115,1.36,2.8612066439566632,-5.413775452705991,-6.658775452705991
1621786579526.381,-0.061,1.136,1.367,2.827798094408729,-5.444090618036524,-6.689090618036524
1621786579532.285,-0.08,1.159,1.37,2.794352201418948,-5.474439669082806,-6.719439669082806
1621786579535.701,-0.09040555280118989,1.1630466038671294,1.3809836390679227,2.775,-5.492,-6.737
1621786579538.194,-0.098,1.166,1.389,2.7443716896608934,-5.502165992367874,-6.76254531415517
1621786579544.109,-0.119,1.18,1.405,2.6717089326509513,-5.526283843630748,-6.823149145533675
1621786579550.03,-0.14,1.194,1.407,2.5989681952190726,-5.550427577757074,-6.88381801590239
1621786579554.83,-0.15214791778226305,1.1964295835564527,1.4134788894838737,2.54,-5.57,-6.933
1621786579555.957,-0.155,1.197,1.415,2.51639084963994,-5.580982365963511,-6.933
1621786579561.89,-0.175,1.203,1.419,2.3921001297742945,-5.638799193363699,-6.933
1621786579567.829,-0.192,1.215,1.424,2.267676429425685,-5.6966778798442705,-6.933
1621786579573.776,-0.208,1.223,1.428,2.143094175424311,-5.754630321382223,-6.933
1621786579574.019,-0.2082860190351165,1.2229591401378406,1.428326878897276,2.138,-5.757,-6.933
1621786579579.727,-0.215,1.222,1.436,1.9577433426325133,-5.844163581029672,-6.941894242962212
1621786579585.684,-0.222,1.222,1.436,1.7696226223687548,-5.9351298503677405,-6.951176515343647
1621786579591.647,-0.223,1.208,1.438,1.5813168653309662,-6.026185594724829,-6.960467917829064
1621786579593.272,-0.22408896069368892,1.209361200867111,1.4355498384392,1.53,-6.051,-6.963
1621786579597.616,-0.227,1.213,1.429,1.413056194544857,-6.114869309133193,-7.051157637958492
1621786579603.592,-0.211,1.197,1.424,1.2521754847190274,-6.2027349275765316,-7.1724369422887335
1621786579609.573,-0.195,1.162,1.417,1.0911633256654616,-6.290672337521171,-7.2938153391137295
1621786579612.588,-0.18190722994739633,1.1479000937895036,1.4144821596052686,1.01,-6.335,-7.355
1621786579615.56,-0.169,1.134,1.412,0.9849220232237749,-6.344424207833104,-7.427039283605589
1621786579621.278,-0.131,1.114,1.405,0.9366756543987405,-6.362555008856524,-7.565632355835466
1621786579626.995,-0.094,1.07,1.393,0.8884375254215049,-6.380682713376632,-7.704201758184085
1621786579631.195,-0.0660825930987359,1.0597146395626922,1.3849186453706865,0.853,-6.394,-7.806
1621786579632.712,-0.056,1.056,1.382,0.8594871862650507,-6.379465418115013,-7.817249930611544
1621786579638.429,-0.003,1.023,1.375,0.8839376032566315,-6.324684104095901,-7.859651286660235
1621786579644.146,0.044,1.002,1.367,0.9083880202482124,-6.26990279007679,-7.9020526427089255
1621786579649.667,0.08262834692744589,0.9817201178630909,1.3583086219413247,0.932,-6.217,-7.943
1621786579649.863,0.084,0.981,1.358,0.9317877738721357,-6.214612456061527,-7.939158707085657
1621786579655.581,0.113,0.97,1.34,0.9255978010941671,-6.144975262309379,-7.827120199804424
1621786579661.298,0.136,0.941,1.33,0.9194088854824642,-6.0753499616777225,-7.715100827232603
1621786579667.015,0.154,0.915,1.321,0.9132202341623279,-6.005727634326188,-7.603086238338135
1621786579668.142,0.15281701328094974,0.9086907374983987,1.3180425332023744,0.912,-5.992,-7.581
1621786579672.732,0.148,0.883,1.306,0.9266578039723548,-5.928648474356772,-7.495537549720508
1621786579678.449,0.154,0.869,1.292,0.9449153462926011,-5.849738757548928,-7.389086794497377
1621786579684.166,0.143,0.86,1.278,0.9631728886128473,-5.770829040741083,-7.282636039274246
1621786579686.617,0.14085720384204908,0.8540001707577375,1.275428644610459,0.971,-5.737,-7.237
1621786579689.885,0.138,0.846,1.272,1.0161022700245765,-5.717897862107238,-7.202333157157581
1621786579695.602,0.126,0.838,1.258,1.0950026029967495,-5.6844812504954945,-7.141688195343675
1621786579701.319,0.115,0.826,1.255,1.1739029359689226,-5.65106463888375,-7.08104323352977
1621786579705.094,0.10047300990775539,0.826,1.2477365049538776,1.226,-5.629,-7.041
1621786579707.036,0.093,0.826,1.244,1.241449353875426,-5.626898047091778,-7.034799238920748
1621786579712.753,0.086,0.824,1.255,1.2869330752358552,-5.620709785682196,-7.01654386776248
1621786579718.47,0.077,0.808,1.251,1.3324167965962845,-5.6145215242726145,-6.9982884966042125
1621786579723.571,0.06004999786516375,0.8062157892489646,1.2527842107510352,1.373,-5.609,-6.982
1621786579724.188,0.058,0.806,1.253,1.3683370103981467,-5.605664430795755,-6.983361456818059
1621786579729.906,0.038,0.792,1.248,1.3251190129842143,-5.5747493669522115,-6.995979850223588
1621786579735.459,0.03,0.782,1.244,1.2831484160336188,-5.544726604170034,-7.008234039114272
1621786579741.01,0.024,0.777,1.243,1.2411925812186844,-5.51471440116373,-7.0204839178923555
1621786579741.697,0.02300937293729373,0.7765046864686469,1.2431238283828383,1.236,-5.511,-7.022
1621786579746.558,0.016,0.773,1.244,1.2118532866408678,-5.494992628222597,-7.022
1621786579752.102,0.005,0.768,1.25,1.1843145609636454,-5.476736619065788,-7.022
1621786579757.643,-0.002,0.759,1.237,1.1567903880743446,-5.458490257262768,-7.022
1621786579759.614,-0.002,0.759711528291909,1.2409134056054998,1.147,-5.452,-7.022
1621786579763.183,-0.002,0.761,1.248,1.1274433432982514,-5.418873418239895,-7.045348253409231
1621786579768.718,0.0,0.768,1.267,1.097115074327368,-5.367501044268807,-7.081556492894877
1621786579774.25,0.003,0.752,1.29,1.0668028584299112,-5.31615586223842,-7.117745566976535
1621786579777.499,6.18624983441513e-05,0.7396598224930454,1.2917628825009935,1.049,-5.286,-7.139
1621786579779.779,-0.002,0.731,1.293,0.9827070738846184,-5.260964521158738,-7.139
1621786579785.304,-0.009,0.703,1.281,0.8220679350056077,-5.2002992586919055,-7.139
1621786579790.827,-0.021,0.688,1.278,0.6614855841562491,-5.139655442186175,-7.139
1621786579795.349,-0.040665221622578074,0.6773480049544369,1.278,0.53,-5.09,-7.139
1621786579796.346,-0.045,0.675,1.278,0.5140529669727285,-5.11249370974373,-7.151086172399617
1621786579801.863,-0.058,0.677,1.278,0.4257916266959024,-5.236988652871043,-7.217978977662053
1621786579807.377,-0.066,0.679,1.285,0.3375810607098808,-5.361411977525011,-7.284833301356723
1621786579812.887,-0.061,0.667,1.279,0.24943298615869536,-5.48574715636563,-7.351640263121832
1621786579813.164,-0.06074841512612493,0.6656917586558496,1.2781446114288246,0.245,-5.492,-7.355
1621786579818.394,-0.056,0.641,1.262,0.11235330541635202,-5.633176082927164,-7.392352838607812
1621786579823.898,-0.037,0.627,1.239,-0.027240900665888634,-5.781746413125558,-7.431662071806137
1621786579829.399,-0.01,0.611,1.216,-0.1667608018123155,-5.930237660465436,-7.470950380998147
1621786579830.946,-0.0038104244361569888,0.6050917687799681,1.209810424436157,-0.206,-5.972,-7.482
1621786579834.898,0.012,0.59,1.194,-0.24113707190952202,-6.002884814799453,-7.543545826593112
1621786579840.393,0.038,0.581,1.173,-0.28999511938833356,-6.045830104940064,-7.629125209119692
1621786579845.822,0.058,0.56,1.148,-0.3382649079873353,-6.0882583267659385,-7.713674201888645
1621786579848.604,0.06671765447099591,0.5564103775707664,1.1305646910580083,-0.363,-6.11,-7.757
1621786579851.247,0.075,0.553,1.114,-0.4428593560442319,-6.101093190913781,-7.782210798599975
1621786579856.668,0.093,0.541,1.077,-0.6066499658360409,-6.0828254291411605,-7.83391785310892
1621786579862.085,0.101,0.531,1.023,-0.770322549607463,-6.064570830951153,-7.885587647985721
1621786579866.112,0.10918499639119451,0.5228150036088055,0.9902600144352219,-0.892,-6.051,-7.924
1621786579867.497,0.112,0.52,0.979,-0.8935858550562583,-6.043229310224334,-7.927092417359704
1621786579872.907,0.117,0.522,0.927,-0.899780278146621,-6.012876637081558,-7.939171542385911
1621786579878.311,0.113,0.531,0.885,-0.9059679921727585,-5.982556838353484,-7.951237584736879
1621786579883.579,0.11007324351207162,0.5358779274798807,0.8371963106971697,-0.912,-5.953,-7.963
1621786579883.711,0.11,0.536,0.836,-0.9102899899114449,-5.9522584912005385,-7.9618120726375965
1621786579889.107,0.112,0.524,0.792,-0.8402999103239548,-5.92190881067145,-7.913190645667526
1621786579894.499,0.119,0.531,0.754,-0.7703604977020514,-5.891581100773457,-7.86460441654523
1621786579899.887,0.117,0.515,0.707,-0.700474918731084,-5.8612767346710015,-7.816055585136196
1621786579901.003,0.11845091370788555,0.5116836258105474,0.696014510497438,-0.686,-5.855,-7.806
1621786579905.271,0.124,0.499,0.654,-0.6066803579204653,-5.8355998398629,-7.632626417002626
1621786579910.65,0.119,0.49,0.618,-0.5067163747208137,-5.811150444591159,-7.414129289637444
1621786579916.025,0.11,0.473,0.578,-0.40682498700641956,-5.786718804871539,-7.195790838472235
1621786579918.383,0.10385336363636363,0.47124381818181815,0.5696581363636364,-0.363,-5.776,-7.1
1621786579921.396,0.096,0.469,0.559,-0.3595238578108276,-5.789730761647231,-6.977292180722213
1621786579926.763,0.082,0.459,0.539,-0.35333181229226523,-5.8141893414455526,-6.758712973916962
1621786579932.125,0.059,0.436,0.522,-0.34714540025914037,-5.838625668976396,-6.540332629147653
1621786579935.718,0.046263812343429744,0.4212528353450239,0.5112747893418356,-0.343,-5.855,-6.394
1621786579937.485,0.04,0.414,0.506,-0.3621286638966619,-5.844975352610306,-6.39195415359394
1621786579942.839,0.016,0.391,0.497,-0.4200855026993414,-5.81460224992227,-6.385755561208627
1621786579948.189,-0.012,0.375,0.485,-0.47799741372000343,-5.7842526922750785,-6.379561773933689
1621786579952.993,-0.04086910274632066,0.3551524918619045,0.4741740864701297,-0.53,-5.757,-6.374
1621786579953.514,-0.044,0.353,0.473,-0.5511076940567888,-5.760548276156098,-6.383825995509194
1621786579958.835,-0.079,0.337,0.454,-0.766685103601171,-5.796787582070886,-6.484180996503993
1621786579964.151,-0.106,0.314,0.44,-0.9820547991927919,-5.832991970553961,-6.584439303072506
1621786579969.463,-0.129,0.295,0.41,-1.19726623653469,-5.869169755279538,-6.684623937697184
1621786579970.172,-0.13153910203330574,0.292728171864937,0.40746089796669427,-1.226,-5.874,-6.698
1621786579974.77,-0.148,0.278,0.391,-1.336573961124095,-6.029393989055464,-6.750603146554181
1621786579980.074,-0.155,0.267,0.368,-1.4641276862566266,-6.208650316365502,-6.811284044918201
1621786579985.372,-0.155,0.264,0.354,-1.5915405004845238,-6.3877086159721825,-6.871897907997492
1621786579987.304,-0.15208061243313042,0.25670153108282606,0.34597168419110863,-1.638,-6.453,-6.894
1621786579990.666,-0.147,0.244,0.332,-1.695861344537815,-6.551403647173156,-6.922930672268908
1621786579995.955,-0.117,0.215,0.302,-1.7868865546218486,-6.706208426227634,-6.968443277310925
1621786580001.24,-0.093,0.202,0.274,-1.8778403361344538,-6.860891728119819,-7.013920168067227
1621786580004.387,-0.0751228792011465,0.19782867181360086,0.25731468725440343,-1.932,-6.953,-7.041
1621786580006.521,-0.063,0.195,0.246,-1.8263954511579912,-6.968909582091264,-7.00053704712222
1621786580011.797,-0.031,0.192,0.232,-1.5653017656500803,-7.008243980738363,-6.900497592295345
1621786580017.068,-0.021,0.206,0.229,-1.3044617920201789,-7.0475401570740654,-6.800555348543912
1621786580021.422,-0.02678677050016224,0.21922690400037084,0.2331334075001159,-1.089,-7.08,-6.718
1621786580022.335,-0.028,0.222,0.234,-1.036292624046213,-7.087414493253438,-6.691082165797301
1621786580027.597,-0.052,0.236,0.248,-0.7324675173513816,-7.130154416519377,-6.535917661766607
1621786580032.855,-0.094,0.239,0.279,-0.4288679570634134,-7.172862611544597,-6.380868345044617
1621786580038.109,-0.131,0.264,0.314,-0.12550803983273695,-7.215537095314049,-6.225941414838125
1621786580038.412,-0.13290632558139537,0.26428883720930235,0.3162529302325581,-0.108,-7.218,-6.217
1621786580043.358,-0.164,0.269,0.353,0.040865738739517585,-7.300897783925535,-6.308654592086683
1621786580048.602,-0.195,0.271,0.391,0.19871133396732082,-7.388796115385723,-6.405837958560272
1621786580053.842,-0.218,0.276,0.428,0.35643200484135906,-7.476624881127345,-6.502944410823895
1621786580055.356,-0.2246503310640679,0.27657828965774506,0.43812006901053807,0.402,-7.502,-6.531
1621786580059.078,-0.241,0.278,0.463,0.40420204821539485,-7.549564241452528,-6.703860784908494
1621786580064.311,-0.241,0.283,0.497,0.40729820456154037,-7.616441218529271,-6.946909058080918
1621786580069.539,-0.227,0.278,0.529,0.4103913275844636,-7.683252675824414,-7.189719215380393
1621786580072.258,-0.20618025891480113,0.2832049352712997,0.5399303640697294,0.412,-7.718,-7.316
1621786580074.763,-0.187,0.288,0.55,0.3929774327182131,-7.706259509255772,-7.3858484892378105
1621786580079.981,-0.131,0.302,0.567,0.3533507923172745,-7.681802442133318,-7.531352559460007
1621786580085.196,-0.075,0.309,0.588,0.31374640053303976,-7.657359106578985,-7.676774935542745
1621786580089.113,-0.030642174320524837,0.3165182755388941,0.6022847235238987,0.284,-7.639,-7.786
1621786580090.406,-0.016,0.319,0.607,0.26291970887749316,-7.611149396400192,-7.759611168412336
1621786580095.612,0.044,0.333,0.62,0.17804128593634239,-7.499010750032686,-7.653358252102793
1621786580100.812,0.089,0.347,0.625,0.0932623734328922,-7.3870035736595145,-7.547229905428766
1621786580105.919,0.12830661906327806,0.367635975008221,0.6436706440550571,0.01,-7.277,-7.443
1621786580106.009,0.129,0.368,0.644,0.008946528192504334,-7.27420507479644,-7.44052219130992
1621786580111.2,0.157,0.391,0.654,-0.05175514544156847,-7.113159818216247,-7.29774937730325
1621786580116.388,0.169,0.401,0.67,-0.11242255982986907,-6.952205453512592,-7.155057142440971
1621786580121.57,0.173,0.415,0.681,-0.1730214557266252,-6.791432872562014,-7.012526065867479
1621786580122.68,0.173,0.41735688363105056,0.6824998350379413,-0.186,-6.757,-6.982
1621786580126.75,0.173,0.426,0.688,-0.23372813718759586,-6.692469610435138,-6.907972685178423
1621786580131.923,0.176,0.445,0.7,-0.29439105476110483,-6.610450869838302,-6.813883262003184
1621786580137.092,0.176,0.452,0.705,-0.3550053022888944,-6.528497933129811,-6.719869327062123
1621786580139.394,0.17867413499716392,0.4569025808281339,0.7067827566647759,-0.382,-6.492,-6.678
1621786580142.257,0.182,0.463,0.709,-0.40055320520332827,-6.488564221258643,-6.61237662604008
1621786580147.417,0.195,0.469,0.709,-0.43399074182585257,-6.482372084847064,-6.494106820578929
1621786580152.573,0.206,0.49,0.712,-0.46740296495956873,-6.476184636118599,-6.3759265498652296
1621786580156.06,0.2127682320049282,0.5008291712078852,0.7086158839975358,-0.49,-6.472,-6.296
1621786580157.725,0.216,0.506,0.707,-0.5017925648051815,-6.4701011971923865,-6.251927787465381
1621786580162.886,0.223,0.517,0.707,-0.5383443283560219,-6.464215743739285,-6.115323315211817
1621786580168.042,0.225,0.525,0.703,-0.5748615096053807,-6.4583358586228625,-5.97884808698328
1621786580172.721,0.22046003695456484,0.5431598521817407,0.7020920073909129,-0.608,-6.453,-5.855
1621786580173.195,0.22,0.545,0.702,-0.6138758592327125,-6.450204688326186,-5.846328829093474
1621786580178.343,0.206,0.552,0.7,-0.6776752247224017,-6.419853533869926,-5.752178309147524
1621786580183.486,0.192,0.562,0.693,-0.7414140767287468,-6.38953116738147,-5.658117090652723
1621786580188.627,0.175,0.564,0.679,-0.8051256976675871,-6.359221755478527,-5.564096057810939
1621786580189.343,0.17081577821104188,0.5653947405963193,0.6760710447477294,-0.814,-6.355,-5.551
1621786580193.761,0.145,0.574,0.658,-0.8662428009603629,-6.302757199039637,-5.5771214004801815
1621786580198.892,0.115,0.576,0.641,-0.9269184722570002,-6.242081527743,-5.6074592361285
1621786580204.018,0.082,0.579,0.621,-0.9875335169610111,-6.181466483038989,-5.637766758480505
1621786580205.918,0.06975890175890176,0.5838222508222508,0.6139520949520949,-1.01,-6.159,-5.649
1621786580209.14,0.049,0.592,0.602,-1.0540478208858235,-6.141653734252928,-5.7273505486553145
1621786580214.257,0.024,0.592,0.578,-1.1240063209818199,-6.114103705454062,-5.851790004578281
1621786580219.37,0.0,0.586,0.548,-1.193908079927929,-6.086576021621302,-5.976128531553219
1621786580222.449,-0.008435451505016723,0.5811797419971333,0.5299240324892499,-1.236,-6.07,-6.051
1621786580224.48,-0.014,0.578,0.518,-1.274567511923453,-6.074928755517375,-6.085994164173357
1621786580229.584,-0.035,0.567,0.487,-1.3714893059217348,-6.087314927274344,-6.173935983647836
1621786580234.684,-0.042,0.55,0.456,-1.4683369227123262,-6.099691619515952,-6.2618104985632606
1621786580238.932,-0.049503521970386696,0.5341592313958503,0.4234847381283243,-1.549,-6.11,-6.335
1621786580239.779,-0.051,0.531,0.417,-1.5697707275049757,-6.112525473071325,-6.335
1621786580244.87,-0.044,0.518,0.38,-1.694592623949143,-6.127702328966521,-6.335
1621786580249.957,-0.052,0.49,0.342,-1.819312761785937,-6.142866812227075,-6.335
1621786580255.04,-0.059,0.466,0.304,-1.9439371268157917,-6.158019650655022,-6.335
1621786580255.369,-0.05990667820568296,0.4636037790278379,0.30160377902783786,-1.952,-6.159,-6.335
1621786580260.118,-0.073,0.429,0.267,-1.923318280658902,-6.192896577403116,-6.335
1621786580265.192,-0.093,0.4,0.23,-1.8926740192427989,-6.229112522713056,-6.335
1621786580270.261,-0.106,0.36,0.194,-1.8620592475648625,-6.265293616514253,-6.335
1621786580271.761,-0.11014614865516244,0.35111539573893763,0.18452308878820015,-1.853,-6.276,-6.335
1621786580275.326,-0.12,0.33,0.162,-1.7867036008184356,-6.3508015293397255,-6.360733470734949
1621786580280.387,-0.129,0.302,0.131,-1.6925846886807951,-6.456994907179234,-6.397266469525218
1621786580285.443,-0.131,0.278,0.108,-1.5985565810893558,-6.563085831205101,-6.433764221814
1621786580288.108,-0.12836263470738898,0.26375822741990046,0.09059338906876721,-1.549,-6.619,-6.453
1621786580290.495,-0.126,0.251,0.075,-1.540506686834499,-6.639208227876536,-6.506156425501326
1621786580295.542,-0.119,0.23,0.052,-1.5225506866547855,-6.681931124855855,-6.618536219729531
1621786580300.585,-0.103,0.208,0.028,-1.5046085843080288,-6.724620954577449,-6.730829032692855
1621786580304.41,-0.09768657945736434,0.18674631782945736,0.014336918604651161,-1.491,-6.757,-6.816
1621786580305.624,-0.096,0.18,0.01,-1.4565633214666607,-6.757,-6.851855977648596
1621786580310.659,-0.084,0.173,-0.007,-1.313754630255509,-6.757,-7.000550493443288
1621786580315.688,-0.066,0.157,-0.021,-1.1711121325462275,-6.757,-7.149071966112388
1621786580320.663,-0.06105076018846845,0.1480913683392432,-0.03485787147228834,-1.03,-6.757,-7.296
1621786580320.714,-0.061,0.148,-0.035,-1.0279003042535246,-6.757245541631521,-7.296711441137487
1621786580325.735,-0.051,0.136,-0.037,-0.8212862242438849,-6.781407308109411,-7.366718610675985
1621786580330.751,-0.033,0.122,-0.037,-0.6148831184480058,-6.8055444029401135,-7.436654295698277
1621786580335.764,-0.024,0.105,-0.037,-0.4086005693457043,-6.829667399686709,-7.506549132425594
1621786580336.872,-0.019796607691182924,0.10367261295511039,-0.037221231174148266,-0.363,-6.835,-7.522
1621786580340.773,-0.005,0.099,-0.038,-0.16176695862277257,-6.854061643008155,-7.512348535185745
1621786580345.776,0.01,0.094,-0.042,0.09631712473572934,-6.8785084566596195,-7.499970401691332
1621786580350.775,0.037,0.098,-0.033,0.35419969797644213,-6.902936182422229,-7.487601932950771
1621786580353.039,0.044705669599217984,0.1025327468230694,-0.024387781036168135,0.471,-6.914,-7.482
1621786580355.77,0.054,0.108,-0.014,0.6272200578621305,-6.942126387858041,-7.4238834274981444
1621786580360.76,0.072,0.119,0.005,0.912664520819764,-6.993518774898135,-7.317693133794817
1621786580365.748,0.089,0.138,0.028,1.197997258365016,-7.044891046516912,-7.211544403883731
1621786580369.157,0.10063469267718851,0.14895029899029508,0.04716302323301637,1.393,-7.08,-7.139
1621786580370.729,0.106,0.154,0.056,1.4243260181949633,-7.076217601518255,-7.1237734214965664
1621786580375.706,0.112,0.161,0.082,1.5235048047957584,-7.06424245391011,-7.0755657759971085
1621786580380.679,0.126,0.168,0.099,1.6226008856488734,-7.052277292444873,-7.027398331124232
1621786580385.366,0.14339612743227775,0.18081819916062572,0.1301299122472339,1.716,-7.041,-6.982
1621786580385.798,0.145,0.182,0.133,1.7101151697845554,-7.0351151697845555,-6.987649437006827
1621786580390.914,0.166,0.194,0.159,1.6404447646067915,-6.965444764606792,-7.054533025977481
1621786580396.028,0.187,0.208,0.188,1.5708009575316961,-6.895800957531696,-7.121391080769572
1621786580401.138,0.213,0.223,0.209,1.5012136714247717,-6.826213671424772,-7.188194875432219
1621786580401.888,0.21549648644772695,0.22534963430374302,0.2116433385917109,1.491,-6.816,-7.198
1621786580406.245,0.23,0.239,0.227,1.3380279788604166,-6.704507438824,-7.218871830172759
1621786580411.35,0.258,0.246,0.236,1.1588020606652751,-6.573879912954657,-7.24332579828574
1621786580416.451,0.284,0.25,0.251,0.9797218545987476,-6.443358588325857,-7.267759885123833
1621786580418.38,0.2926990426041168,0.2503782192436573,0.25629506941120156,0.912,-6.394,-7.277
1621786580421.551,0.307,0.251,0.265,0.8572924409378754,-6.327927138174969,-7.224026131189844
1621786580426.646,0.328,0.246,0.278,0.7693956012991443,-6.221770039597206,-7.138914754779101
1621786580431.739,0.34,0.243,0.295,0.6815324563615062,-6.115653635676044,-7.053836005279627
1621786580434.842,0.3436577293875006,0.243,0.3023154587750012,0.628,-6.051,-7.002
1621786580436.829,0.346,0.243,0.307,0.6184461895068424,-6.039148437616083,-6.933188377587257
1621786580441.916,0.335,0.246,0.319,0.5939882468313993,-6.008808204930091,-6.75702927148185
1621786580447.0,0.319,0.253,0.346,0.5695443901279328,-5.9784854459814865,-6.580971620035363
1621786580451.273,0.2954577248270561,0.2513184089162183,0.3619751152959262,0.549,-5.953,-6.433
1621786580452.082,0.291,0.251,0.365,0.5441661482131961,-5.9660218048134315,-6.412184842305803
1621786580457.16,0.251,0.26,0.38,0.5138284043044041,-6.047747972077932,-6.28154680220876
1621786580462.236,0.211,0.271,0.405,0.4835008707041541,-6.129446634021463,-6.150952728950541
1621786580467.308,0.164,0.272,0.424,0.4531981335675056,-6.2110784973283515,-6.020465432300892
1621786580467.676,0.16131488972358665,0.2724354232880671,0.4250159876721564,0.451,-6.217,-6.011
1621786580472.378,0.127,0.278,0.438,0.39183874142558905,-6.360882478377572,-6.081648881598569
1621786580477.445,0.103,0.286,0.454,0.3280819564569043,-6.515941455413063,-6.1577856248136
1621786580482.509,0.098,0.288,0.466,0.2643651058753355,-6.670903310468237,-6.233874679391589
1621786580484.048,0.09952050168837434,0.2864794983116256,0.46812870236372406,0.245,-6.718,-6.257
1621786580487.57,0.103,0.283,0.473,0.08656490944952483,-6.755938198553583,-6.322529615683462
1621786580492.628,0.115,0.276,0.468,-0.140961762596378,-6.810420775805391,-6.416635885482039
1621786580497.683,0.133,0.269,0.45,-0.3683676259637798,-6.864874424720579,-6.510692188153726
1621786580500.387,0.14423713581678504,0.2625787795332657,0.4398330675943373,-0.49,-6.894,-6.561
1621786580502.736,0.154,0.257,0.431,-0.5395430025445292,-6.918051399491095,-6.561
1621786580507.786,0.178,0.257,0.403,-0.6460434665469241,-6.969753659631792,-6.561
1621786580512.832,0.208,0.267,0.379,-0.752466696602305,-7.021418425385422,-6.561
1621786580516.698,0.23329307841239108,0.2654670861568248,0.35907212003872213,-0.834,-7.061,-6.561
1621786580517.876,0.241,0.265,0.353,-0.834,-7.056730664827007,-6.536107605093058
1621786580522.916,0.264,0.257,0.328,-0.834,-7.038464104140734,-6.429604268210381
1621786580527.954,0.284,0.258,0.298,-0.834,-7.020204622144903,-6.323142203692317
1621786580532.977,0.28998458331313326,0.25999486110437775,0.27406166674746696,-0.834,-7.002,-6.217
1621786580532.99,0.29,0.26,0.274,-0.833820328203282,-7.001789322893229,-6.216743212432124
1621786580538.022,0.283,0.267,0.248,-0.7639483394833948,-6.919859778597786,-6.116881918819188
1621786580543.051,0.278,0.269,0.222,-0.6941170311703116,-6.837977934779348,-6.017078765787658
1621786580548.103,0.262,0.271,0.202,-0.6239670596705966,-6.755722437224373,-5.916820178201782
1621786580549.253,0.25765898617511523,0.27214237205918024,0.19880135823429543,-0.608,-6.737,-5.894
1621786580553.136,0.243,0.276,0.188,-0.5260327092974337,-6.673672501352245,-5.894
1621786580558.167,0.216,0.269,0.182,-0.4198334034497265,-6.591623474968448,-5.894
1621786580563.194,0.176,0.274,0.168,-0.31371655448043756,-6.509638154336199,-5.894
1621786580565.502,0.15670628826902516,0.2707843813781709,0.16065001457867625,-0.265,-6.472,-5.894
1621786580568.218,0.134,0.267,0.152,-0.2157721136045514,-6.462288376153279,-5.930167426739513
1621786580573.24,0.094,0.264,0.147,-0.124750304781686,-6.444331692780061,-5.997040592405292
1621786580578.258,0.056,0.251,0.14,-0.033799295615658975,-6.426388976686082,-6.063861741996659
1621786580581.723,0.026987393526405452,0.24409223655390605,0.13516456558773426,0.029,-6.414,-6.11
1621786580583.274,0.014,0.241,0.133,0.027179683612070397,-6.429903816862963,-6.150334378911493
1621786580588.286,-0.016,0.227,0.131,0.02129753736182534,-6.481295199891421,-6.280670356351133
1621786580593.297,-0.031,0.213,0.129,0.015416250697471007,-6.532679072853674,-6.41098728717709
1621786580597.912,-0.04390433001755412,0.196408718548859,0.12070435927442949,0.01,-6.58,-6.531
1621786580598.304,-0.045,0.195,0.12,0.007138389012284122,-6.583807397670097,-6.54242219301029
1621786580603.308,-0.049,0.171,0.113,-0.02940643367632171,-6.632430593959174,-6.688291781877521
1621786580608.309,-0.035,0.143,0.101,-0.06592807820739464,-6.681022951513229,-6.8340688545396855
1621786580613.308,-0.028,0.122,0.091,-0.10243545925690888,-6.729596331384192,-6.979788994152576
1621786580614.07,-0.02372862798768268,0.1183388239894423,0.08886431399384134,-0.108,-6.737,-7.002
1621786580618.303,0.0,0.098,0.077,-0.13371936304189877,-6.747235256720756,-7.037954619762655
1621786580623.295,0.012,0.061,0.061,-0.16405064785662388,-6.759305870065391,-7.080356517922015
1621786580628.285,0.037,0.04,0.044,-0.19437006539113585,-6.771371760716881,-7.122741826108017
1621786580630.199,0.045061499290016155,0.03078685795426725,0.03593850070998384,-0.206,-6.776,-7.139
1621786580633.271,0.058,0.016,0.023,-0.22468073502901031,-6.772378224841314,-7.105450924845859
1621786580638.256,0.08,-0.003,0.005,-0.2549948038963203,-6.766501007407856,-7.051009331778038
1621786580643.237,0.103,-0.024,-0.014,-0.2852836345457575,-6.760628683098271,-6.996613064489252
1621786580646.315,0.11593783902653569,-0.04125045203538093,-0.028170014171920048,-0.304,-6.757,-6.963
1621786580648.233,0.124,-0.052,-0.037,-0.32855260722467494,-6.759264560860528,-6.929031587092076
1621786580653.215,0.141,-0.073,-0.058,-0.3923312548359201,-6.7651470574848664,-6.840794137727004
1621786580658.194,0.15,-0.099,-0.08,-0.4560692731327659,-6.7710258067452544,-6.752612898821173
1621786580662.407,0.16016204544339208,-0.1167835795259361,-0.09608990528537076,-0.51,-6.776,-6.678
1621786580663.169,0.162,-0.12,-0.099,-0.5118503389985103,-6.786722477273418,-6.666376075522179
1621786580668.144,0.164,-0.155,-0.12,-0.5239317898513272,-6.856732936061537,-6.590479781703201
1621786580673.114,0.166,-0.173,-0.136,-0.5360007904897997,-6.926671247453711,-6.514661700769207
1621786580678.081,0.173,-0.187,-0.154,-0.5480626767200755,-6.996568331762488,-6.438888312912347
1621786580678.467,0.17354420731707315,-0.18902134146341462,-0.15508841463414635,-0.549,-7.002,-6.433
1621786580683.046,0.18,-0.213,-0.168,-0.5769895533525211,-7.0636912604504545,-6.399298292902066
1621786580688.007,0.188,-0.23,-0.178,-0.6073161709839037,-7.130533601352277,-6.3627825696316265
1621786580692.966,0.192,-0.251,-0.195,-0.6376293572113847,-7.19734633834346,-6.326283018867925
1621786580694.499,0.1947837931034483,-0.2553303448275862,-0.1999489655172414,-0.647,-7.218,-6.315
1621786580697.922,0.201,-0.265,-0.211,-0.6553432865425695,-7.205378104974062,-6.298313426914861
1621786580702.875,0.209,-0.295,-0.227,-0.6674151968263656,-7.187115471467806,-6.274169606347269
1621786580707.825,0.211,-0.318,-0.239,-0.6794799664327129,-7.1688636405248705,-6.250040067134575
1621786580710.5,0.20937778216453634,-0.3223259142279031,-0.2454888713418546,-0.686,-7.159,-6.237
1621786580712.772,0.208,-0.326,-0.251,-0.6720580007032242,-7.12414500175806,-6.204848042438048
1621786580717.716,0.208,-0.365,-0.264,-0.6417184963233609,-7.048296240808401,-6.13488143029673
1621786580722.658,0.194,-0.372,-0.291,-0.6113924755018115,-6.972481188754529,-6.0649459128919325
1621786580726.47,0.18473811171527435,-0.38357736035590706,-0.29794641621354423,-0.588,-6.914,-6.011
1621786580727.597,0.182,-0.387,-0.3,-0.5582353193444631,-6.900142809005973,-5.990921213049472
1621786580732.532,0.164,-0.415,-0.304,-0.4278923265431153,-6.839460560575892,-5.902993873487517
1621786580737.465,0.129,-0.422,-0.311,-0.2976009189768724,-6.778802328074743,-5.815101332516465
1621786580742.395,0.089,-0.419,-0.321,-0.16739333741767498,-6.71818312145811,-5.727265339255629
1621786580742.41,0.08890125576375944,-0.4190209457470813,-0.321,-0.167,-6.718,-5.727
1621786580747.372,0.056,-0.426,-0.321,-0.051370853351635784,-6.6997101349805535,-5.760479752916953
1621786580752.315,0.017,-0.431,-0.318,0.06380886143521697,-6.681491359719362,-5.793829375428964
1621786580757.255,-0.017,-0.44,-0.312,0.1789203080912072,-6.663283382902463,-5.827159231297186
1621786580758.417,-0.02335545445554347,-0.437175353575314,-0.31294154880822866,0.206,-6.659,-5.835
1621786580762.192,-0.044,-0.428,-0.316,0.23843594101704257,-6.64029606320915,-5.911709816711838
1621786580767.127,-0.056,-0.435,-0.314,0.280840553080068,-6.6158437686618585,-6.011995176627314
1621786580772.058,-0.07,-0.45,-0.312,0.323211600594117,-6.591410828854487,-6.112201157609444
1621786580774.361,-0.07326999455256772,-0.4467300054474323,-0.3148028524736295,0.343,-6.58,-6.159
1621786580776.988,-0.077,-0.443,-0.318,0.3494374798656174,-6.573562520134383,-6.18474991946247
1621786580781.914,-0.086,-0.44,-0.326,0.3615089511712458,-6.561491048828755,-6.233035804684984
1621786580786.837,-0.087,-0.443,-0.326,0.3735726448525013,-6.549427355147499,-6.281290579410006
1621786580790.276,-0.08839762861536934,-0.44090355707694595,-0.33019288584610806,0.382,-6.541,-6.315
1621786580791.758,-0.089,-0.44,-0.332,0.386572027972028,-6.546505094905095,-6.315
1621786580796.675,-0.093,-0.44,-0.332,0.4017393222162453,-6.5647677553216015,-6.315
1621786580801.591,-0.091,-0.435,-0.337,0.41690360408821947,-6.583026788596019,-6.315
1621786580806.161,-0.09565182166111635,-0.4284874496744371,-0.33327854267110696,0.431,-6.6,-6.315
1621786580806.503,-0.096,-0.428,-0.333,0.431,-6.600841337788522,-6.316272793064688
1621786580811.412,-0.098,-0.436,-0.335,0.431,-6.612916726975963,-6.33454068952774
1621786580816.319,-0.108,-0.435,-0.34,0.431,-6.624986711423864,-6.352800409589948
1621786580821.222,-0.113,-0.426,-0.339,0.431,-6.637046486919298,-6.371044685339451
1621786580822.016,-0.1136481693648817,-0.4263240846824408,-0.339,0.431,-6.639,-6.374
1621786580826.123,-0.117,-0.428,-0.339,0.42606876494638585,-6.679747573864075,-6.4173429607343975
1621786580831.022,-0.126,-0.429,-0.339,0.42018657718120805,-6.728353020134229,-6.469044295302013
1621786580835.917,-0.126,-0.428,-0.339,0.41430907968834374,-6.776919709943686,-6.520704404844558
1621786580837.84,-0.12324882746232911,-0.4256418521105678,-0.339,0.412,-6.796,-6.541
1621786580840.81,-0.119,-0.422,-0.339,0.412,-6.825316852656301,-6.577599382933981
1621786580845.767,-0.11,-0.433,-0.337,0.412,-6.874248161849357,-6.6386856033278585
1621786580850.68,-0.094,-0.436,-0.337,0.412,-6.92274327290589,-6.699227270634105
1621786580853.745,-0.08651043945118314,-0.43974478027440844,-0.337,0.412,-6.953,-6.737
1621786580855.591,-0.082,-0.442,-0.337,0.41083549723544177,-6.948458439218223,-6.748412127092671
1621786580860.498,-0.063,-0.454,-0.339,0.4077399621124613,-6.936385852238599,-6.778748371297879
1621786580865.402,-0.045,-0.459,-0.337,0.40464627516210017,-6.92432047313219,-6.809066503411419
1621786580869.597,-0.028740512003187568,-0.46499033768303616,-0.335288474947704,0.402,-6.914,-6.835
1621786580870.304,-0.026,-0.466,-0.335,0.402,-6.906984214668168,-6.831514450599472
1621786580875.203,-0.01,-0.469,-0.34,0.402,-6.858372768373786,-6.807363540975512
1621786580880.101,-0.005,-0.464,-0.333,0.402,-6.809768589812829,-6.783216242072616
1621786580884.995,0.0,-0.466,-0.333,0.402,-6.761205595074606,-6.759089403922416
1621786580885.419,0.0001733140318474517,-0.4653934008885339,-0.3327400289522288,0.402,-6.757,-6.757
1621786580889.886,0.002,-0.459,-0.33,0.43254354915993015,-6.7179721316289776,-6.695912901680139
1621786580894.775,-0.002,-0.456,-0.323,0.4659716833856284,-6.675258404562808,-6.6290566332287435
1621786580899.661,-0.016,-0.45,-0.318,0.49937978577059217,-6.632570273737577,-6.562240428458816
1621786580901.214,-0.01854416395901025,-0.44459365158710323,-0.31386573356660835,0.51,-6.619,-6.541
1621786580904.545,-0.024,-0.433,-0.305,0.5264767980181156,-6.614986420995587,-6.522410791979562
1621786580909.426,-0.038,-0.426,-0.297,0.5506225594178215,-6.609104761167454,-6.495169420143997
1621786580914.304,-0.056,-0.405,-0.29,0.5747526205775335,-6.603226925756754,-6.467945761399706
1621786580916.982,-0.06259062687762869,-0.39840937312237135,-0.2839585920288404,0.588,-6.6,-6.453
1621786580919.18,-0.068,-0.393,-0.279,0.5935849875930521,-6.605445362903225,-6.468079466501241
1621786580924.052,-0.073,-0.387,-0.269,0.6059646401985112,-6.617515524193548,-6.50150452853598
1621786580928.924,-0.082,-0.372,-0.264,0.6183442928039702,-6.629585685483871,-6.534929590570719
1621786580932.724,-0.08512315023827438,-0.35716503636819663,-0.25853448708301985,0.628,-6.639,-6.561
1621786580933.791,-0.086,-0.353,-0.257,0.635943726306631,-6.6483016282393885,-6.568943726306631
1621786580938.656,-0.086,-0.346,-0.246,0.6721667547076006,-6.69071662730719,-6.6051667547076
1621786580943.518,-0.08,-0.312,-0.232,0.7083679696724877,-6.733106084146417,-6.641367969672488
1621786580948.378,-0.08,-0.298,-0.222,0.7445528245603132,-6.775476384314213,-6.677552824560313
1621786580948.438,-0.07991346298808985,-0.29793818784863557,-0.2218887381275441,0.745,-6.776,-6.678
1621786580953.236,-0.073,-0.293,-0.213,0.7572353307392996,-6.7821176653696496,-6.7202118910505835
1621786580958.09,-0.063,-0.276,-0.202,0.7696132295719844,-6.788306614785992,-6.762915642023346
1621786580962.941,-0.051,-0.26,-0.188,0.7819830350194553,-6.794491517509728,-6.80559147081712
1621786580964.124,-0.047584231195247205,-0.2548763467928708,-0.18507219816735473,0.785,-6.796,-6.816
1621786580967.79,-0.037,-0.239,-0.176,0.7803176694366922,-6.800682330563308,-6.8066353388733845
1621786580972.637,-0.026,-0.222,-0.164,0.7741270521835389,-6.806872947816461,-6.794254104367077
1621786580977.481,-0.012,-0.204,-0.155,0.7679401768035049,-6.813059823196495,-6.78188035360701
1621786580979.783,-0.009622421705582734,-0.19639174945786475,-0.14929381209339856,0.765,-6.816,-6.776
1621786580982.322,-0.007,-0.188,-0.143,0.7586641829514036,-6.816,-6.763328365902807
1621786580987.161,0.003,-0.169,-0.131,0.7465895777684053,-6.816,-6.739179155536811
1621786580991.997,0.01,-0.154,-0.119,0.7345216739303623,-6.816,-6.715043347860725
1621786580995.412,0.014946251768033946,-0.13916124469589816,-0.11122731865023237,0.726,-6.816,-6.698
1621786580996.83,0.017,-0.133,-0.108,0.7152762521710557,-6.814182415622213,-6.687276252171056
1621786581001.66,0.017,-0.12,-0.094,0.6787494093163717,-6.8079914253078595,-6.650749409316372
1621786581006.489,0.021,-0.096,-0.087,0.6422281055876324,-6.801801373828412,-6.614228105587633
1621786581011.015,0.023814046450437686,-0.09130992258260386,-0.07574381419824924,0.608,-6.796,-6.58
1621786581011.314,0.024,-0.091,-0.075,0.6053693491754969,-6.795251128597404,-6.57963516521412
1621786581016.136,0.03,-0.08,-0.066,0.5629546680042635,-6.783176876293185,-6.573752837168475
1621786581020.956,0.028,-0.068,-0.059,0.5205571665935168,-6.771107514577716,-6.567872891717349
1621786581025.773,0.033,-0.059,-0.051,0.47818758229356073,-6.75904610006897,-6.561996817982319
1621786581026.59,0.033,-0.05781233841942515,-0.04981233841942515,0.471,-6.757,-6.561
1621786581030.589,0.033,-0.052,-0.044,0.44810565990326023,-6.757,-6.548395250957975
1621786581035.401,0.03,-0.044,-0.037,0.4205583736415604,-6.757,-6.533228767510522
1621786581040.21,0.03,-0.051,-0.024,0.39302646208932723,-6.757,-6.518070748790753
1621786581042.136,0.03,-0.04739405789740985,-0.023599339766378874,0.382,-6.757,-6.512
1621786581045.017,0.03,-0.042,-0.023,0.37476103369089936,-6.757,-6.504575419170153
1621786581049.822,0.026,-0.033,-0.017,0.36268831985907074,-6.757,-6.4921931485734055
1621786581054.623,0.028,-0.037,-0.012,0.35062542074302433,-6.757,-6.47982094435182
1621786581057.658,0.028,-0.033205626494378596,-0.005676044157297656,0.343,-6.757,-6.472
1621786581059.422,0.028,-0.031,-0.002,0.3385594667843187,-6.7525594667843185,-6.476554393041725
1621786581064.218,0.019,-0.023,0.0,0.32648780410941636,-6.740487804109416,-6.488935585528804
1621786581069.011,0.026,-0.021,0.0,0.31442351569393673,-6.728423515693937,-6.501309214672885
1621786581073.152,0.02427165274098227,-0.02272834725901773,0.0,0.304,-6.718,-6.512
1621786581073.803,0.024,-0.023,0.0,0.304,-6.71631670665488,-6.512
1621786581078.591,0.017,-0.007,0.005,0.304,-6.703933830029044,-6.512
1621786581083.376,0.012,-0.007,0.003,0.304,-6.691559161510292,-6.512
1621786581088.159,0.007,-0.003,0.012,0.304,-6.679189544134361,-6.512
1621786581088.619,0.006807548904438429,-0.003,0.011711323356657644,0.304,-6.678,-6.512
1621786581092.939,0.005,-0.003,0.009,0.304,-6.689192460348836,-6.500807539651165
1621786581097.717,0.0,-0.003,0.016,0.304,-6.701571530226601,-6.4884284697734
1621786581102.492,-0.005,0.003,0.017,0.304,-6.7139423773304445,-6.476057622669556
1621786581104.058,-0.0066406649616368284,0.0036562659846547316,0.016671867007672637,0.304,-6.718,-6.472
1621786581107.265,-0.01,0.005,0.016,0.2998377564762735,-6.730070506218807,-6.46804586865246
1621786581112.034,-0.012,0.019,0.019,0.29364778578784756,-6.748021421215242,-6.462165396498455
1621786581116.801,-0.012,0.026,0.024,0.2874603501544799,-6.765964984552008,-6.456287332646756
1621786581119.467,-0.014238507661558961,0.026,0.027917388407728182,0.284,-6.776,-6.453
1621786581121.565,-0.016,0.026,0.031,0.27868128362614863,-6.776,-6.453
1621786581126.327,-0.014,0.028,0.031,0.26660848450221397,-6.776,-6.453
1621786581131.087,-0.014,0.033,0.035,0.2545406370518497,-6.776,-6.453
1621786581134.85,-0.014,0.03695616241466044,0.03183507006827165,0.245,-6.776,-6.453
1621786581135.843,-0.014,0.038,0.031,0.245,-6.77477145537219,-6.45422854462781
1621786581140.597,-0.012,0.038,0.037,0.245,-6.768889424147032,-6.460110575852968
1621786581145.348,-0.012,0.047,0.038,0.245,-6.763011017838405,-6.465988982161595
1621786581150.096,-0.014,0.045,0.04,0.245,-6.75713623644631,-6.47186376355369
1621786581150.206,-0.014115974079407529,0.04504638963176301,0.04009277926352602,0.245,-6.757,-6.472
1621786581154.843,-0.019,0.047,0.044,0.2332017902935508,-6.757,-6.4780503639520255
1621786581159.586,-0.021,0.058,0.047,0.22113398531449596,-6.757,-6.484238981890003
1621786581164.326,-0.024,0.058,0.047,0.20907363458260994,-6.757,-6.490423777137123
1621786581165.534,-0.024,0.058764878652032775,0.04750991910135518,0.206,-6.757,-6.492
1621786581169.064,-0.024,0.061,0.049,0.19238664326178886,-6.761383962339424,-6.492
1621786581173.8,-0.033,0.058,0.047,0.1741222053778026,-6.767265730471554,-6.492
1621786581178.533,-0.031,0.059,0.051,0.15587000718104205,-6.773143557009495,-6.492
1621786581180.833,-0.031,0.05851372974088985,0.051486270259110144,0.147,-6.776,-6.492
1621786581183.263,-0.031,0.058,0.052,0.13761187849720224,-6.785388121502797,-6.498205707434053
1621786581187.99,-0.028,0.056,0.054,0.11934876099120703,-6.803651239008793,-6.51027793764988
1621786581192.714,-0.028,0.059,0.052,0.10109696243005595,-6.821903037569944,-6.522342685851319
1621786581196.104,-0.02297570431636082,0.06043551305246834,0.05128224347376583,0.088,-6.835,-6.531
1621786581197.437,-0.021,0.061,0.051,0.08633877786318217,-6.836748654880861,-6.531
1621786581202.156,-0.014,0.063,0.051,0.08045786894696387,-6.842939085318986,-6.531
1621786581206.873,-0.012,0.052,0.051,0.07457939405585447,-6.849126953625417,-6.531
1621786581211.35,-0.007251191216076237,0.05579904702713901,0.04720095297286099,0.069,-6.855,-6.531
1621786581211.587,-0.007,0.056,0.047,0.06837740693196406,-6.855,-6.530081675224647
1621786581216.298,-0.005,0.051,0.045,0.05599165596919127,-6.855,-6.511812692554557
1621786581221.007,0.0,0.058,0.045,0.04361168164313222,-6.855,-6.49355223042362
1621786581225.714,0.002,0.049,0.049,0.031236842105263153,-6.855,-6.475299342105264
1621786581226.565,0.002,0.04936183356694181,0.04809541608264549,0.029,-6.855,-6.472
1621786581230.417,0.002,0.051,0.044,0.02164393427864056,-6.845107359891965,-6.437248930902544
1621786581235.118,0.0,0.042,0.038,0.01266681135654802,-6.833034677341565,-6.394839763994727
1621786581239.816,-0.002,0.044,0.038,0.003695283109867848,-6.820969518664994,-6.352457027105237
1621786581241.751,-0.00405987837205676,0.043176048651177294,0.037588024325588644,0.0,-6.816,-6.335
1621786581244.513,-0.007,0.042,0.037,0.005282703207522866,-6.819461081411825,-6.317148106402164
1621786581249.205,-0.012,0.04,0.035,0.014257181501996652,-6.825340912018549,-6.286820559062218
1621786581253.896,-0.012,0.031,0.031,0.02322932500322041,-6.831219212933144,-6.256500901713255
1621786581256.913,-0.02101198041462652,0.034862277320554226,0.03228742577351808,0.029,-6.835,-6.237
1621786581258.583,-0.026,0.037,0.033,0.025799199638546443,-6.839304524624024,-6.23920744852514
1621786581263.268,-0.03,0.03,0.028,0.01681917640224618,-6.851381107596979,-6.245400567998451
1621786581267.951,-0.035,0.026,0.028,0.007843364745368876,-6.863452026721745,-6.251590782934228
1621786581272.043,-0.03674866979655712,0.019879655712050078,0.02450266040688576,0.0,-6.874,-6.257
1621786581272.631,-0.037,0.019,0.024,0.0,-6.875557459188621,-6.258518522708905
1621786581277.307,-0.044,0.019,0.026,0.0,-6.887939550670761,-6.270591061903992
1621786581281.982,-0.042,0.012,0.024,0.0,-6.90031970260223,-6.282661710037175
1621786581286.653,-0.042,0.014,0.014,0.0,-6.912689510263455,-6.29472227250687
1621786581287.148,-0.04221194061062317,0.013470148473442075,0.014211940610623171,0.0,-6.914,-6.296
1621786581291.323,-0.044,0.009,0.016,0.0,-6.919260653455087,-6.30679818340781
1621786581295.99,-0.042,0.01,0.014,0.0,-6.9251411663752345,-6.318868709928114
1621786581300.653,-0.042,0.014,0.012,0.0,-6.931016757334369,-6.330929133475811
1621786581302.227,-0.040311508040437906,0.011636111256613063,0.011324603216175162,0.0,-6.933,-6.335
1621786581305.314,-0.037,0.007,0.01,0.0,-6.933,-6.347100699119207
1621786581309.974,-0.038,-0.007,0.007,0.0,-6.933,-6.365368505571866
1621786581314.629,-0.035,-0.005,0.005,0.0,-6.933,-6.383615257343996
1621786581317.278,-0.03215331339524634,-0.0061386746419014645,0.003861325358098536,0.0,-6.933,-6.394
1621786581319.282,-0.03,-0.007,0.003,0.0013337233109096227,-6.9277984790874525,-6.394
1621786581323.933,-0.024,-0.017,0.0,0.004429332813363232,-6.915725602027884,-6.394
1621786581328.581,-0.021,-0.012,0.0,0.007522829937278607,-6.903660963244613,-6.394
1621786581332.303,-0.022602543887312098,-0.012,-0.0016025438873120991,0.01,-6.894,-6.394
1621786581333.226,-0.023,-0.012,-0.002,0.0136317888773118,-6.891599325996354,-6.391599325996354
1621786581337.868,-0.019,-0.012,-0.005,0.03189447121646262,-6.879527383433186,-6.379527383433186
1621786581342.509,-0.016,-0.016,-0.007,0.05015427194581923,-6.867457345662934,-6.367457345662934
1621786581347.146,-0.021,-0.016,-0.009,0.0683977435530086,-6.8553981017191985,-6.3553981017191985
1621786581347.299,-0.021099078219647092,-0.01593394785356861,-0.009099078219647089,0.069,-6.855,-6.355
1621786581351.781,-0.024,-0.014,-0.012,0.08067792656869302,-6.8606892462770555,-6.355
1621786581356.413,-0.021,-0.021,-0.007,0.09274706813029082,-6.866569084473731,-6.355
1621786581361.043,-0.024,-0.023,-0.01,0.10481048459443149,-6.872446133520364,-6.355
1621786581362.267,-0.025058475828583494,-0.025116951657166982,-0.01,0.108,-6.874,-6.355
1621786581365.669,-0.028,-0.031,-0.01,0.108,-6.878554338944272,-6.359326621997059
1621786581370.293,-0.026,-0.026,-0.01,0.108,-6.884744892956365,-6.365207648308547
1621786581374.915,-0.024,-0.026,-0.01,0.108,-6.890932832162118,-6.371086190554012
1621786581377.206,-0.023503885804916733,-0.026,-0.009503885804916732,0.108,-6.894,-6.374
1621786581379.533,-0.023,-0.026,-0.009,0.108,-6.897121080638559,-6.380242161277118
1621786581384.15,-0.023,-0.024,-0.012,0.108,-6.903313794514941,-6.392627589029881
1621786581388.764,-0.021,-0.017,-0.009,0.108,-6.909502578796562,-6.405005157593123
1621786581392.117,-0.01954535825875126,-0.02136392522374623,-0.007545358258751258,0.108,-6.914,-6.414
1621786581393.374,-0.019,-0.023,-0.007,0.10960481291317399,-6.909016633585407,-6.41231072324929
1621786581397.982,-0.021,-0.024,-0.007,0.11548736077164089,-6.890749774445958,-6.406118567608799
1621786581402.588,-0.016,-0.031,-0.003,0.12136741523268975,-6.872490657961648,-6.399929036597169
1621786581407.0,-0.020791600381800827,-0.026208399618199173,-0.004916640152720331,0.127,-6.855,-6.394
1621786581407.192,-0.021,-0.026,-0.005,0.12725832319978966,-6.854741676800211,-6.393237946560621
1621786581411.792,-0.023,-0.026,-0.005,0.13345084957439116,-6.848549150425609,-6.374969993755546
1621786581416.389,-0.031,-0.017,-0.005,0.13963910342787655,-6.842360896572123,-6.356714644887764
1621786581420.984,-0.037,-0.019,0.0,0.14582472803759816,-6.836175271962402,-6.338467052289086
1621786581421.857,-0.03757036525067787,-0.018429634749322132,-0.000570365250677867,0.147,-6.835,-6.335
1621786581425.576,-0.04,-0.016,-0.003,0.16179662495884095,-6.840015805070793,-6.320203375041159
1621786581430.167,-0.042,-0.023,-0.003,0.1800629239380968,-6.8462077708264735,-6.301937076061903
1621786581434.754,-0.052,-0.028,0.0,0.19831270991109645,-6.852394138952914,-6.283687290088904
1621786581436.686,-0.05368598210481466,-0.02589252236898168,-0.0008429910524073286,0.206,-6.855,-6.276
1621786581439.338,-0.056,-0.023,-0.002,0.20241665979381443,-6.855,-6.272595826804124
1621786581443.919,-0.065,-0.023,-0.003,0.19622647422680412,-6.855,-6.266715150515464
1621786581448.498,-0.068,-0.021,0.0,0.19003892783505155,-6.855,-6.2608369814432985
1621786581451.487,-0.07518370939350297,-0.021,-0.003265322451592255,0.186,-6.855,-6.257
1621786581453.075,-0.079,-0.021,-0.005,0.1902991704398982,-6.852850414780051,-6.2611916911789
1621786581457.649,-0.082,-0.021,-0.005,0.20268308160095186,-6.846658459199524,-6.273266004560928
1621786581462.22,-0.086,-0.019,-0.005,0.2150590607132234,-6.840470469643388,-6.285332584195393
1621786581466.261,-0.09042212129308042,-0.017231151482767833,-0.005,0.226,-6.835,-6.296
1621786581466.789,-0.091,-0.017,-0.005,0.22807705298013245,-6.837112864238411,-6.296
1621786581471.354,-0.086,-0.03,-0.005,0.24603208609271524,-6.8553774668874174,-6.296
1621786581475.918,-0.091,-0.026,-0.007,0.26398327814569533,-6.873638162251655,-6.296
1621786581480.479,-0.091,-0.024,-0.005,0.28192294701986753,-6.891887135761589,-6.296
1621786581481.007,-0.0912317086234601,-0.023189019817889664,-0.005,0.284,-6.894,-6.296
1621786581485.037,-0.093,-0.017,-0.005,0.30015407454096105,-6.894,-6.2853218829305515
1621786581489.592,-0.091,-0.016,-0.005,0.3184121813266102,-6.894,-6.2732529648858
1621786581494.144,-0.094,-0.012,-0.002,0.336658544676475,-6.894,-6.261191809451144
1621786581495.726,-0.0964333458505445,-0.012695241671584142,-0.0013047583284158575,0.343,-6.894,-6.257
1621786581498.695,-0.101,-0.014,0.0,0.3508823167691541,-6.894,-6.2331509390061495
1621786581503.242,-0.105,-0.012,0.0,0.36295371447565233,-6.894,-6.196627222868539
1621786581507.787,-0.113,-0.01,0.0,0.37502057503739405,-6.894,-6.160117234502244
1621786581510.416,-0.11705160180606321,-0.00942119974199097,0.0011576005160180607,0.382,-6.894,-6.139
1621786581512.329,-0.12,-0.009,0.002,0.3859138252530634,-6.8990879728289825,-6.114734283431007
1621786581516.869,-0.122,-0.003,0.002,0.39520141848694723,-6.911161844033032,-6.0571512053809275
1621786581521.405,-0.129,-0.005,0.012,0.40448151971230684,-6.923225975625999,-5.9996145777836976
1621786581525.08,-0.1387267783102687,-0.0025683054224328256,0.015242259436756233,0.412,-6.933,-5.953
1621786581525.939,-0.141,-0.002,0.016,0.412,-6.934173585975681,-5.948364335396061
1621786581530.471,-0.155,0.007,0.021,0.412,-6.940366103447701,-5.923903891381582
1621786581534.999,-0.166,0.01,0.024,0.412,-6.9465532834053345,-5.89946453054893
1621786581539.525,-0.18,0.017,0.03,0.412,-6.952737461011125,-5.875037029006054
1621786581539.717,-0.18059444294577826,0.017084920420825468,0.030212301052063663,0.412,-6.953,-5.874
1621786581544.05,-0.194,0.019,0.035,0.40310257010126666,-6.9470683800675115,-5.8799316199324885
1621786581548.57,-0.204,0.023,0.037,0.3938211289729621,-6.940880752648641,-5.886119247351359
1621786581553.088,-0.215,0.024,0.04,0.384544199725945,-6.93469613315063,-5.89230386684937
1621786581554.327,-0.21692047788950156,0.02454870796842902,0.04109741593685804,0.382,-6.933,-5.894
1621786581557.604,-0.222,0.026,0.044,0.382,-6.933,-5.929281105605036
1621786581562.117,-0.239,0.031,0.04,0.382,-6.933,-5.9778672068572964
1621786581566.628,-0.239,0.037,0.042,0.382,-6.933,-6.0264322808544835
1621786581568.91,-0.2435567954065327,0.03750631060072585,0.042,0.382,-6.933,-6.051
1621786581571.135,-0.248,0.038,0.042,0.37313275405106183,-6.936057671016875,-6.088456469956721
1621786581575.64,-0.25,0.035,0.04,0.3551803267688798,-6.9422481631831445,-6.164289998993525
1621786581580.142,-0.25,0.037,0.04,0.3372386016707485,-6.9484349649411215,-6.240078320528735
1621786581583.464,-0.25221420047732696,0.03257159904534606,0.034833532219570404,0.324,-6.953,-6.296
1621786581584.643,-0.253,0.031,0.033,0.30963425661366767,-6.946588171030959,-6.3254619483007835
1621786581589.139,-0.244,0.037,0.03,0.25485165887929007,-6.922137181081717,-6.437812699586541
1621786581593.634,-0.236,0.037,0.024,0.20007798581464922,-6.897690174459646,-6.550145147736059
1621786581597.99,-0.22533068768687142,0.03312025006795325,0.010420875237836368,0.147,-6.874,-6.659
1621786581598.125,-0.225,0.033,0.01,0.14608739727872827,-6.873459888185369,-6.660638959989223
1621786581602.614,-0.215,0.03,0.002,0.11574376936548564,-6.85550141452243,-6.715133638690556
1621786581607.101,-0.194,0.026,-0.003,0.08541334366159234,-6.8375507544119625,-6.76960460730163
1621786581611.585,-0.182,0.016,-0.016,0.05510437154789169,-6.819612791324262,-6.824037047016031
1621786581612.488,-0.17796927100359594,0.015596927100359596,-0.01741075514874142,0.049,-6.816,-6.835
1621786581616.066,-0.162,0.014,-0.023,0.05394558339660846,-6.78682105796001,-6.8204105289800045
1621786581620.544,-0.155,0.0,-0.03,0.060135408757276645,-6.750301088332068,-6.802150544166034
1621786581625.02,-0.148,-0.005,-0.037,0.06632253437948199,-6.713797047161057,-6.783898523580528
1621786581626.957,-0.14496927694406547,-0.008030723055934516,-0.037,0.069,-6.698,-6.776
1621786581629.494,-0.141,-0.012,-0.037,0.07918759931032152,-6.673936187835965,-6.776
1621786581633.965,-0.133,-0.019,-0.042,0.0971431082862842,-6.631524037323778,-6.776
1621786581638.432,-0.129,-0.026,-0.038,0.11508096960681566,-6.589153571790797,-6.776
1621786581641.4,-0.12434698452621794,-0.03331188145880037,-0.04065886598501832,0.127,-6.561,-6.776
1621786581642.897,-0.122,-0.037,-0.042,0.1352039696518087,-6.549784446551958,-6.77807695434223
1621786581647.36,-0.119,-0.04,-0.038,0.1596620207288985,-6.516348123560493,-6.7842688660073165
1621786581651.821,-0.115,-0.044,-0.042,0.18410803075464027,-6.48292826175315,-6.790457729304972
1621786581655.816,-0.1105184596844873,-0.052963080631025415,-0.0312443032427695,0.206,-6.453,-6.796
1621786581656.278,-0.11,-0.054,-0.03,0.20850541283469642,-6.453,-6.799147826382055
1621786581660.732,-0.11,-0.049,-0.031,0.23265028676146196,-6.453,-6.829483693623375
1621786581665.184,-0.106,-0.054,-0.026,0.2567858960871483,-6.453,-6.8598079207248785
1621786581669.634,-0.101,-0.058,-0.024,0.2809095937828757,-6.453,-6.8901171819323315
1621786581670.204,-0.10010266264068077,-0.05774361789733736,-0.02387180894866868,0.284,-6.453,-6.894
1621786581674.081,-0.094,-0.056,-0.023,0.3104585671053079,-6.463529429766398,-6.949616987996872
1621786581678.525,-0.084,-0.049,-0.019,0.3407859498792887,-6.4755984902580845,-7.013366384440137
1621786581682.966,-0.075,-0.044,-0.021,0.37109500493046343,-6.487660257064164,-7.077077255261995
1621786581684.564,-0.07140028599714003,-0.04507991420085799,-0.017760257397426028,0.382,-6.492,-7.1
1621786581687.405,-0.065,-0.047,-0.012,0.38794695421095665,-6.499731040474243,-7.123391353229763
1621786581691.842,-0.045,-0.04,-0.014,0.39723456663941126,-6.5118049366312345,-7.159922628781684
1621786581696.275,-0.03,-0.038,-0.005,0.40651349141455434,-6.52386753883892,-7.1964197328972475
1621786581698.896,-0.01816969696969697,-0.03385939393939394,-0.0008593939393939393,0.412,-6.531,-7.218
1621786581700.706,-0.01,-0.031,0.002,0.4144039797259245,-6.5347957574619855,-7.205600525624178
1621786581705.134,0.005,-0.03,0.002,0.42028487806542997,-6.5440813864191,-7.17526747103094
1621786581709.56,0.021,-0.031,0.0,0.426163182415482,-6.5533629196033925,-7.144947795962251
1621786581713.202,0.030880989180834623,-0.02111901081916538,0.007410741885625966,0.431,-6.561,-7.12
1621786581713.983,0.033,-0.019,0.009,0.42996063544178253,-6.557225465551737,-7.109770464611228
1621786581718.403,0.047,-0.019,0.01,0.4240782674122334,-6.535863181654953,-7.051875579267771
1621786581722.821,0.054,-0.016,0.014,0.41819882350929394,-6.514511516954804,-6.994009473486209
1621786581727.236,0.059,-0.009,0.019,0.4123232784418338,-6.493174011183502,-6.936181740453838
1621786581727.479,0.059,-0.009,0.01927524204702628,0.412,-6.492,-6.933
1621786581731.649,0.059,-0.009,0.024,0.4032206154478788,-6.492,-6.8469620313892126
1621786581736.058,0.056,-0.003,0.028,0.3939374957165376,-6.492,-6.7559874580220685
1621786581740.465,0.051,0.002,0.03,0.38465900212459736,-6.492,-6.665058220821054
1621786581741.728,0.04927929925712385,0.0008528661714158998,0.031433917285730126,0.382,-6.492,-6.639
1621786581744.869,0.045,-0.002,0.035,0.36919175378066155,-6.502820759737028,-6.606537720788919
1621786581749.271,0.031,0.005,0.037,0.35124029730332834,-6.517986645381671,-6.561040063854987
1621786581753.671,0.023,0.012,0.04,0.33329780112261187,-6.533144961120552,-6.515565116638344
1621786581755.951,0.02092535821392869,0.01822392535821393,0.041037320893035655,0.324,-6.541,-6.492
1621786581758.067,0.019,0.024,0.042,0.31031533665232736,-6.53960360578085,-6.494792788438301
1621786581762.461,0.007,0.019,0.04,0.28189759453493807,-6.536703836177034,-6.500592327645931
1621786581767.322,0.003,0.031,0.044,0.25045934232361805,-6.533495851257512,-6.507008297484975
1621786581771.104,-0.004503875217981012,0.031,0.03724651230381709,0.226,-6.531,-6.512
1621786581772.362,-0.007,0.031,0.035,0.21829478310778155,-6.533334914209763,-6.507408002054132
1621786581777.36,-0.017,0.021,0.037,0.18768325579990333,-6.54261113460609,-6.489164768608023
1621786581782.359,-0.03,0.026,0.033,0.1570672426292895,-6.551888714354761,-6.470918861768971
1621786581787.268,-0.03785775693630324,0.01912446268073466,0.03692887846815162,0.127,-6.561,-6.453
1621786581787.357,-0.038,0.019,0.037,0.12689544973544975,-6.560889947089947,-6.453214603174604
1621786581792.354,-0.044,0.024,0.031,0.12101650793650794,-6.5547015873015875,-6.465281904761905
1621786581797.352,-0.049,0.026,0.033,0.11513641723356009,-6.54851201814059,-6.477351564625851
1621786581802.349,-0.049,0.031,0.035,0.10925747543461829,-6.54232365835223,-6.489418866213152
1621786581803.418,-0.05049733717691894,0.028860946890115795,0.03414437875604632,0.108,-6.541,-6.492
1621786581807.346,-0.056,0.021,0.031,0.1126214585916004,-6.533946194781242,-6.501486151845916
1621786581812.343,-0.056,0.026,0.038,0.11850075590360717,-6.524972530462915,-6.513554183170562
1621786581817.339,-0.061,0.024,0.04,0.12437890424213105,-6.516000619840957,-6.525619856075953
1621786581819.567,-0.06412087751013827,0.023554160355694534,0.040891679288610934,0.127,-6.512,-6.531
1621786581822.336,-0.068,0.023,0.042,0.127,-6.50856999425409,-6.539403514077478
1621786581827.332,-0.068,0.019,0.044,0.127,-6.502381346962228,-6.554565699942541
1621786581832.328,-0.073,0.026,0.044,0.127,-6.496193002086672,-6.569727144887652
1621786581835.713,-0.0743550625488663,0.026,0.04603259382329945,0.127,-6.492,-6.58
1621786581837.324,-0.075,0.026,0.047,0.13288786558993437,-6.486112134410066,-6.591775731179869
1621786581842.319,-0.077,0.03,0.049,0.15114301485043705,-6.467856985149563,-6.628286029700874
1621786581847.314,-0.084,0.031,0.051,0.1693972718749055,-6.449602728125094,-6.664794543749811
1621786581851.857,-0.08581860828772478,0.024634870992963253,0.051,0.186,-6.433,-6.698
1621786581852.31,-0.086,0.024,0.051,0.1882176109380199,-6.433,-6.701312380894764
1621786581857.305,-0.086,0.03,0.051,0.2126627090958589,-6.433,-6.737825312320397
1621786581862.3,-0.086,0.031,0.051,0.23710900208717747,-6.433,-6.774340028434012
1621786581867.294,-0.086,0.026,0.054,0.26154932091109834,-6.433,-6.8108458211077165
1621786581867.999,-0.086,0.027976535001955415,0.05470590535784122,0.265,-6.433,-6.816
1621786581872.288,-0.086,0.04,0.059,0.2700491158541197,-6.44867883344174,-6.84709192394379
1621786581877.283,-0.075,0.038,0.061,0.2759291170642424,-6.466937784567911,-6.883300352448229
1621786581882.277,-0.075,0.04,0.059,0.28180825606195825,-6.48519405829766,-6.919503471539427
1621786581884.139,-0.07313554349420566,0.04,0.06235602171042981,0.284,-6.492,-6.933
1621786581887.27,-0.07,0.04,0.068,0.26129813758566955,-6.499567287471444,-6.933
1621786581892.264,-0.063,0.038,0.072,0.22509021589482126,-6.511636594701726,-6.933
1621786581897.258,-0.054,0.035,0.066,0.18888052407824862,-6.5237064919739165,-6.933
1621786581900.276,-0.052186384310656815,0.03258184574754243,0.07023176994180075,0.167,-6.531,-6.933
1621786581902.25,-0.051,0.031,0.073,0.16210636366387268,-6.531,-6.925781886404212
1621786581907.243,-0.044,0.035,0.068,0.14972944594063,-6.531,-6.907525932762429
1621786581912.236,-0.038,0.044,0.07,0.1373519230187309,-6.531,-6.889269086452628
1621786581916.412,-0.03549034088130288,0.03814412872304005,0.06832689392086859,0.127,-6.531,-6.874
1621786581917.228,-0.035,0.037,0.068,0.12057657848538048,-6.52801589079242,-6.869043344028088
1621786581922.221,-0.03,0.04,0.068,0.08126915975543314,-6.50975496398087,-6.838711635086869
1621786581927.213,-0.028,0.031,0.061,0.04196942914219989,-6.491497608814093,-6.808385858708154
1621786581932.204,-0.031,0.037,0.058,0.0026754646165022267,-6.473242932380895,-6.778064531751316
1621786581932.544,-0.0311361568934318,0.0365234508729887,0.057863843106568204,0.0,-6.472,-6.776
1621786581937.196,-0.033,0.03,0.056,-0.002884106010383084,-6.460751986559506,-6.747735761098245
1621786581942.187,-0.037,0.024,0.056,-0.005978295418426191,-6.448684647868138,-6.717412704899424
1621786581947.179,-0.037,0.024,0.051,-0.009073090254128259,-6.436614948008899,-6.687083715509543
1621786581948.674,-0.03909695250207895,0.02250217678422932,0.051,-0.01,-6.433,-6.678
1621786581952.17,-0.044,0.019,0.051,-0.014118641758507935,-6.428881358241492,-6.665210533486738
1621786581957.16,-0.054,0.016,0.049,-0.019997608090105368,-6.423002391909894,-6.646954795930725
1621786581962.151,-0.059,0.009,0.049,-0.02587772496063946,-6.41712227503936,-6.6286954856485405
1621786581964.801,-0.0637795988258317,0.007937866927592956,0.04634466731898239,-0.029,-6.414,-6.619
1621786581967.141,-0.068,0.007,0.044,-0.034804869186046514,-6.4081951308139535,-6.624804869186046
1621786581972.132,-0.079,-0.002,0.044,-0.04718556201550388,-6.3958144379844954,-6.637185562015504
1621786581977.122,-0.082,-0.003,0.042,-0.059563832364341096,-6.383436167635659,-6.649563832364341
1621786581980.926,-0.09114959628089063,-0.007574798140445314,0.04047506728651823,-0.069,-6.374,-6.659
1621786581982.111,-0.094,-0.009,0.04,-0.069,-6.3769398582763,-6.660396432681242
1621786581987.101,-0.106,-0.017,0.038,-0.069,-6.389318878323541,-6.666276467203682
1621786581992.091,-0.106,-0.023,0.031,-0.069,-6.401697898370783,-6.672156501726122
1621786581997.05,-0.11295786640567654,-0.03293980915096648,0.0349759236603866,-0.069,-6.414,-6.678
1621786581997.08,-0.113,-0.033,0.035,-0.06896274477139526,-6.4140353924671745,-6.6780745104572095
1621786582002.068,-0.119,-0.038,0.028,-0.0627744392785207,-6.419914282685405,-6.690451121442958
1621786582007.057,-0.124,-0.037,0.028,-0.05658522512153383,-6.425794036134542,-6.702829549756932
1621786582012.046,-0.127,-0.045,0.023,-0.05039570807650952,-6.431674077327316,-6.715208583846981
1621786582013.171,-0.1283532377269835,-0.04590215848465567,0.02209784151534433,-0.049,-6.433,-6.718
1621786582017.034,-0.133,-0.049,0.019,-0.037257602835160844,-6.4188611952505,-6.718
1621786582022.022,-0.14,-0.058,0.007,-0.022095565517659174,-6.4006048646028955,-6.718
1621786582027.01,-0.141,-0.065,0.009,-0.00693352820015751,-6.382348533955291,-6.718
1621786582029.291,-0.14374430900279042,-0.06545738483379841,0.0048835364958143635,0.0,-6.374,-6.718
1621786582031.997,-0.147,-0.066,0.0,0.011585185185185186,-6.387264197530864,-6.704735802469136
1621786582036.986,-0.147,-0.073,0.0,0.03294419450124972,-6.41171871544346,-6.68028128455654
1621786582041.973,-0.145,-0.079,0.0,0.054293796864349014,-6.436162463076574,-6.655837536923427
1621786582045.408,-0.14844464574254515,-0.08451143318807226,0.0,0.069,-6.453,-6.639
1621786582046.959,-0.15,-0.087,0.0,0.05956604288203653,-6.454829032502462,-6.642754329873475
1621786582051.946,-0.154,-0.087,-0.005,0.029232744904917042,-6.460709978028639,-6.654825744374574
1621786582056.933,-0.154,-0.094,-0.009,-0.0011005530722024426,-6.466590923554815,-6.666897158875672
1621786582061.52,-0.16043865661411927,-0.08940095956134338,-0.011759424263193968,-0.029,-6.472,-6.678
1621786582061.92,-0.161,-0.089,-0.012,-0.03436113341919843,-6.469096052731268,-6.683361133419198
1621786582066.906,-0.152,-0.096,-0.023,-0.10120510644745814,-6.4328889006742935,-6.750205106447458
1621786582071.892,-0.15,-0.101,-0.028,-0.16804907947571787,-6.39668174861732,-6.8170490794757175
1621786582076.877,-0.145,-0.105,-0.042,-0.2348766876278506,-6.360483460868248,-6.8838766876278505
1621786582077.632,-0.1443942124075797,-0.10621157518484062,-0.04563472555452187,-0.245,-6.355,-6.894
1621786582081.863,-0.141,-0.113,-0.066,-0.2888594550359167,-6.303524232412936,-6.909495256569576
1621786582086.849,-0.133,-0.134,-0.086,-0.3405467978055951,-6.2428612432940325,-6.9277560543145515
1621786582091.834,-0.124,-0.147,-0.105,-0.39222148637589793,-6.182213105810323,-6.946012381414239
1621786582093.742,-0.12476546353886087,-0.15235824477202606,-0.11150644008031735,-0.412,-6.159,-6.953
1621786582096.819,-0.126,-0.161,-0.122,-0.4269012807881773,-6.127095975748389,-6.9042842743463435
1621786582101.803,-0.126,-0.188,-0.14,-0.45103605911330047,-6.0754227965138305,-6.8253821144372875
1621786582106.788,-0.138,-0.208,-0.15,-0.4751767487684729,-6.023736960970064,-6.746460629026147
1621786582109.849,-0.14536879224213928,-0.22150945244392203,-0.16289538642374377,-0.49,-5.992,-6.698
1621786582111.773,-0.15,-0.23,-0.171,-0.5017059269364863,-5.9756355919357285,-6.688563589510384
1621786582116.757,-0.171,-0.25,-0.182,-0.5320328937395786,-5.933239730180385,-6.664116340760952
1621786582121.74,-0.195,-0.26,-0.197,-0.5623524329240563,-5.890854251932697,-6.639675079581628
1621786582125.955,-0.21275973548861132,-0.2701484202792065,-0.2063027185892726,-0.588,-5.855,-6.619
1621786582126.724,-0.216,-0.272,-0.208,-0.604430878406041,-5.85122662966838,-6.63213514988855
1621786582131.708,-0.244,-0.29,-0.222,-0.7109134027809367,-5.826772794128797,-6.717259260944063
1621786582136.691,-0.26,-0.311,-0.232,-0.8173750625483328,-5.802323750170586,-6.802366692444162
1621786582141.674,-0.271,-0.321,-0.257,-0.9238419384676038,-5.7778735083170325,-6.887478293833113
1621786582142.056,-0.2715364037236649,-0.322762469377756,-0.2586092111709946,-0.932,-5.776,-6.894
1621786582146.657,-0.278,-0.344,-0.278,-0.9823032545724772,-5.798579301768328,-7.025760229306318
1621786582151.639,-0.281,-0.353,-0.291,-1.0367704206982318,-5.823027632017957,-7.168427067851619
1621786582156.623,-0.279,-0.375,-0.302,-1.0912616093906398,-5.847486745124208,-7.311156829142528
1621786582158.154,-0.27746344212486523,-0.3786877389003234,-0.308453543075566,-1.108,-5.855,-7.355
1621786582161.605,-0.274,-0.387,-0.323,-1.1332973473071148,-5.901092624330761,-7.394875479653588
1621786582166.587,-0.262,-0.396,-0.337,-1.169817875722324,-5.967634265087286,-7.452441736308071
1621786582171.568,-0.25,-0.419,-0.351,-1.2063330350507333,-6.034166123185658,-7.509999529825732
1621786582174.251,-0.2451542871141597,-0.42276888780009797,-0.3563841254287114,-1.226,-6.07,-7.541
1621786582176.551,-0.241,-0.426,-0.361,-1.16998131209708,-6.137308168373152,-7.5298534243458475
1621786582181.532,-0.22,-0.435,-0.37,-1.0486679408418658,-6.283069897610922,-7.505714539249147
1621786582186.513,-0.218,-0.435,-0.365,-0.9273545695866514,-6.428831626848692,-7.481575654152446
1621786582190.346,-0.2156914028036467,-0.44115625919027546,-0.36192187040486223,-0.834,-6.541,-7.463
1621786582191.494,-0.215,-0.443,-0.361,-0.8220889799014031,-6.557761016306409,-7.465781615472127
1621786582196.474,-0.204,-0.45,-0.353,-0.7704146075085324,-6.630476450511946,-7.47784928327645
1621786582201.456,-0.188,-0.45,-0.347,-0.7187225028441411,-6.70321683731513,-7.489921092150171
1621786582206.436,-0.164,-0.449,-0.351,-0.6670506636329162,-6.77592870686386,-7.501988168373151
1621786582206.441,-0.1639725463280714,-0.44899607804686736,-0.35100294146484945,-0.667,-6.776,-7.502
1621786582211.416,-0.136,-0.445,-0.354,-0.5427231670130619,-6.818662196398501,-7.465520730615775
1621786582216.396,-0.094,-0.433,-0.353,-0.41832436245581567,-6.8613662636345705,-7.42900565863131
1621786582221.376,-0.049,-0.421,-0.349,-0.29392555789856945,-6.90407033087064,-7.392490586646844
1621786582222.534,-0.04365197568389058,-0.4177446808510638,-0.3485349544072948,-0.265,-6.914,-7.384
1621786582226.356,-0.026,-0.407,-0.347,-0.07165508504149662,-6.958179550592483,-7.2490861035670395
1621786582231.335,-0.01,-0.386,-0.332,0.18021819478371692,-7.0157329044591785,-7.073331775630035
1621786582236.314,-0.003,-0.37,-0.305,0.4320914746089305,-7.073286258325873,-6.897577447693031
1621786582238.625,-0.003,-0.36443121874693596,-0.2873655260319639,0.549,-7.1,-6.816
1621786582241.294,-0.003,-0.358,-0.267,0.6352773190869354,-7.126049113647401,-6.732875121418164
1621786582246.272,-0.012,-0.335,-0.227,0.7961988829528898,-7.1746350473530836,-6.5778333839242356
1621786582251.25,-0.016,-0.307,-0.185,0.9571204468188441,-7.223220981058766,-6.422791646430306
1621786582254.711,-0.01947553201922134,-0.28684191428851624,-0.15372021182700796,1.069,-7.257,-6.315
1621786582256.229,-0.021,-0.278,-0.14,1.0745683018638819,-7.258887559953858,-6.297445692429118
1621786582261.207,-0.024,-0.243,-0.099,1.0928278185902494,-7.265077226640763,-6.239881792240908
1621786582266.184,-0.037,-0.208,-0.056,1.111083753263311,-7.271265679072309,-6.182329184627527
1621786582270.796,-0.046262528194567026,-0.18391742669412572,-0.013392370304991665,1.128,-7.277,-6.129
1621786582271.163,-0.047,-0.182,-0.01,1.1271095998542715,-7.275196368935576,-6.13415975469063
1621786582276.14,-0.063,-0.14,0.037,1.1150412441556863,-7.250750212520494,-6.204094328738843
1621786582281.117,-0.075,-0.11,0.073,1.1029722964357276,-7.226302856882628,-6.274032333475014
1621786582286.094,-0.084,-0.079,0.117,1.0909033487157689,-7.201855501244763,-6.343970338211185
1621786582286.879,-0.08668048062775871,-0.07505811672388425,0.12251863658656205,1.089,-7.198,-6.355
1621786582291.072,-0.101,-0.054,0.152,0.9993078698081127,-7.182616756740345,-6.459814640514939
1621786582296.048,-0.113,-0.049,0.195,0.8928679863978625,-7.164361079062425,-6.584200783337382
1621786582301.024,-0.124,-0.037,0.229,0.786433325236823,-7.146106297060967,-6.708580823415108
1621786582302.961,-0.12750338534000588,-0.034275144735550975,0.24184574624668825,0.745,-7.139,-6.757
1621786582306.0,-0.133,-0.03,0.262,0.6281865889212828,-7.109324101068999,-6.803309523809523
1621786582310.976,-0.131,-0.023,0.284,0.43691964285714285,-7.060733630952381,-6.879135416666666
1621786582315.953,-0.122,-0.012,0.307,0.24562454446064136,-7.012136008867833,-6.954972470238095
1621786582319.039,-0.11021380900971636,-0.006417067425655117,0.3125829325743449,0.127,-6.982,-7.002
1621786582320.928,-0.103,-0.003,0.316,0.07177516059957173,-6.967077543396055,-7.004349993165976
1621786582325.904,-0.077,0.0,0.326,-0.07370663811563169,-6.927766504168755,-7.01054070800492
1621786582330.879,-0.051,0.012,0.333,-0.21915274803711637,-6.88846510850912,-7.016729904171792
1621786582335.115,-0.02375336146825007,0.012,0.33214854254588283,-0.343,-6.855,-7.022
1621786582335.854,-0.019,0.012,0.332,-0.3614822673491396,-6.846862285271648,-7.0098164158021845
1621786582340.829,0.002,0.019,0.344,-0.48590633211318524,-6.792078555263598,-6.927795577089567
1621786582345.803,0.026,0.024,0.342,-0.6102998678594753,-6.7373082671365,-6.8457948632269625
1621786582350.778,0.031,0.026,0.344,-0.734723932623521,-6.68252453712845,-6.763774024514345
1621786582351.189,0.031,0.026908524316631495,0.34441296559846885,-0.745,-6.678,-6.757
1621786582355.753,0.031,0.037,0.349,-0.8259362419675818,-6.630858188889057,-6.692818980053777
1621786582360.726,0.024,0.026,0.353,-0.9141287769456302,-6.579489905357984,-6.62288384705364
1621786582365.7,0.017,0.026,0.347,-1.0023343005149863,-6.528114056542148,-6.552938414328467
1621786582367.26,0.018254786450662742,0.026,0.34543151693667157,-1.03,-6.512,-6.531
1621786582370.673,0.021,0.026,0.342,-1.0673825187255959,-6.486936720399884,-6.533124006745773
1621786582375.646,0.024,0.017,0.326,-1.1218492228687764,-6.450419271031161,-6.536218705844817
1621786582380.62,0.03,0.016,0.312,-1.1763292970115011,-6.413892857685471,-6.539314164602926
1621786582383.329,0.035447493740487994,0.012731503755707203,0.3043735087633168,-1.206,-6.394,-6.541
1621786582385.593,0.04,0.01,0.298,-1.1921912475307703,-6.402313432609026,-6.52578219115636
1621786582390.566,0.058,0.017,0.293,-1.1618590487767817,-6.420574654307856,-6.492354870080535
1621786582395.538,0.073,0.016,0.279,-1.1315313174289623,-6.438833186445829,-6.4589324722686525
1621786582399.396,0.08308522755167165,0.023757867347439735,0.27279370612204823,-1.108,-6.453,-6.433
1621786582400.511,0.086,0.026,0.271,-1.0889806669301152,-6.458414262698726,-6.420783202115694
1621786582405.483,0.103,0.026,0.262,-1.0041703498799284,-6.482557345654619,-6.366306502112654
1621786582410.455,0.11,0.031,0.26,-0.9193558683162598,-6.506701614128948,-6.311827127093656
1621786582415.426,0.12,0.047,0.251,-0.8345622093199987,-6.5308399550110945,-6.257361127154452
1621786582415.459,0.12003978193605422,0.047059672904081334,0.2509933696773243,-0.834,-6.531,-6.257
1621786582420.397,0.126,0.056,0.25,-0.764515976043535,-6.5128603654272945,-6.20565561061624
1621786582425.369,0.126,0.058,0.246,-0.6945544340741191,-6.494596069072447,-6.153958365001672
1621786582430.34,0.127,0.061,0.248,-0.6246031982488676,-6.4763344632596604,-6.102268734989207
1621786582431.52,0.12628790334462944,0.06313628996611169,0.24871209665537056,-0.608,-6.472,-6.09
1621786582435.311,0.124,0.07,0.251,-0.5617393524851801,-6.476720474236206,-6.04373935248518
1621786582440.281,0.113,0.077,0.265,-0.5010922632618939,-6.482908952728378,-5.983092263261894
1621786582445.251,0.105,0.089,0.269,-0.44044517403860767,-6.48909743122055,-5.922445174038608
1621786582447.582,0.10218693837466242,0.09556381045912103,0.2736884360422293,-0.412,-6.492,-5.894
1621786582450.223,0.099,0.103,0.279,-0.3620111276641026,-6.509759204645648,-5.866539007631267
1621786582455.192,0.084,0.122,0.29,-0.2679533002949135,-6.5431744854215435,-5.814869082727798
1621786582460.162,0.073,0.143,0.3,-0.17387236630081174,-6.576597975129975,-5.763186464382354
1621786582463.642,0.06599660983638775,0.15280474622905713,0.31260610229450203,-0.108,-6.6,-5.727
1621786582465.131,0.063,0.157,0.318,-0.07887986010796016,-6.598145214019615,-5.731544225651943
1621786582470.101,0.045,0.182,0.332,0.018316186421348732,-6.591954383030487,-5.746711761575306
1621786582475.071,0.044,0.201,0.337,0.11551223295065764,-6.585763552041359,-5.76187929749867
1621786582479.698,0.03096112831097351,0.21869561157796452,0.3528329156223893,0.206,-6.58,-5.776
1621786582480.039,0.03,0.22,0.354,0.206,-6.579596371709676,-5.774959063882848
1621786582485.008,0.024,0.246,0.372,0.206,-6.573715880232965,-5.759793585863962
1621786582489.976,0.017,0.265,0.386,0.206,-6.567836544456441,-5.744631088335032
1621786582494.946,0.007,0.293,0.393,0.206,-6.561954897279542,-5.729462629826189
1621786582495.753,0.004725731137871713,0.2983607766035881,0.3952742688621283,0.206,-6.561,-5.727
1621786582499.913,-0.007,0.326,0.407,0.17049622070475873,-6.591320745821483,-5.729591516736879
1621786582504.881,-0.01,0.346,0.414,0.12809795750764225,-6.627529481544569,-5.732686280473895
1621786582509.849,-0.017,0.374,0.429,0.08569969431052575,-6.663738217267653,-5.735781044210911
1621786582511.806,-0.019757815572158867,0.3799096047974833,0.43412165749115217,0.069,-6.678,-5.737
1621786582514.816,-0.024,0.389,0.442,0.050621180085486994,-6.700129599488903,-5.770006860254636
1621786582519.784,-0.023,0.421,0.45,0.020286959431709287,-6.736654477418963,-5.82448464428591
1621786582524.751,-0.024,0.44,0.457,-0.01004129842868226,-6.773172175659026,-5.878951719627022
1621786582527.856,-0.024,0.45312745146227573,0.4626260506266896,-0.029,-6.796,-5.913
1621786582529.718,-0.024,0.461,0.466,-0.047217818618874474,-6.805050890778804,-5.933538559844209
1621786582534.684,-0.016,0.475,0.471,-0.09580424165893289,-6.829189368467495,-5.988314336137778
1621786582539.652,-0.005,0.485,0.473,-0.1444097734637679,-6.8533373396826365,-6.043111655433675
1621786582543.903,-0.0007197640117994107,0.485,0.4789923303834808,-0.186,-6.874,-6.09
1621786582544.618,0.0,0.485,0.48,-0.1995440048691418,-6.877519659160073,-6.089108947048083
1621786582549.583,0.01,0.476,0.485,-0.2936165550821668,-6.901966144248326,-6.082919963481436
1621786582554.549,0.021,0.473,0.487,-0.387707608034084,-6.926417437614121,-6.076729762629337
1621786582559.515,0.026,0.466,0.494,-0.4817940353012782,-6.95086752891053,-6.0705398660986
1621786582559.948,0.027220982252593284,0.46556393490978815,0.49417442603608475,-0.49,-6.953,-6.07
1621786582564.481,0.04,0.461,0.496,-0.58154099458275,-6.919660995800109,-6.025642172378112
1621786582569.446,0.045,0.449,0.496,-0.6818086310791892,-6.883143770162517,-5.977055694199282
1621786582574.411,0.047,0.445,0.487,-0.7820713372694625,-6.846628340130257,-5.928471605088563
1621786582575.992,0.047,0.4427705208282103,0.48540751487729306,-0.814,-6.835,-5.913
1621786582579.375,0.047,0.438,0.482,-0.8222256164383561,-6.847443881278539,-5.8613262557077626
1621786582584.341,0.031,0.428,0.48,-0.8343001826484018,-6.865710532724505,-5.785473211567732
1621786582589.305,0.012,0.424,0.482,-0.8463694063926941,-6.883969101978691,-5.709653729071538
1621786582592.032,0.005407760782963655,0.4278454728766045,0.48364805980425907,-0.853,-6.894,-5.668
1621786582594.269,0.0,0.431,0.485,-0.8584402173913044,-6.919945652173913,-5.670789855072464
1621786582599.233,-0.016,0.428,0.49,-0.8705116459627329,-6.977517080745342,-5.67698033126294
1621786582604.197,-0.038,0.431,0.492,-0.8825836682499086,-7.03509134088418,-5.68317111192303
1621786582608.069,-0.05048081841432225,0.4403606138107417,0.4959002557544757,-0.892,-7.08,-5.688
1621786582609.161,-0.054,0.443,0.497,-0.9000344706831712,-7.088034470683171,-5.715371671310464
1621786582614.124,-0.065,0.431,0.497,-0.9365578952176495,-7.12455789521765,-5.8397989311652125
1621786582619.087,-0.073,0.435,0.503,-0.9730795231352487,-7.161079523135249,-5.964220070342118
1621786582624.05,-0.082,0.438,0.504,-1.009602947669727,-7.197602947669727,-6.088647330196866
1621786582624.104,-0.0820434953749262,0.43796737846880535,0.5039456307813422,-1.01,-7.198,-6.09
1621786582629.012,-0.086,0.435,0.499,-1.076113186863381,-7.227995797743572,-6.2011068834787375
1621786582633.976,-0.08,0.428,0.496,-1.1429827798839811,-7.258334779762177,-6.313484949527246
1621786582638.938,-0.082,0.426,0.49,-1.2098227744027772,-7.28866033283089,-6.425813273649112
1621786582640.139,-0.08030579610312931,0.426,0.49,-1.226,-7.296,-6.453
1621786582643.9,-0.075,0.426,0.49,-1.2374950431723697,-7.326027867878843,-6.462149115994335
1621786582648.861,-0.075,0.424,0.483,-1.252658351988061,-7.365638143968813,-6.474217871990498
1621786582653.824,-0.065,0.428,0.485,-1.2678268841274916,-7.405262064659571,-6.486290785325963
1621786582656.171,-0.065,0.428,0.48405383858267714,-1.275,-7.424,-6.492
1621786582658.785,-0.065,0.428,0.483,-1.2637488692262004,-7.439979866896121,-6.453680931422567
1621786582663.746,-0.056,0.426,0.485,-1.2423951540441345,-7.470308331937317,-6.380954510150313
1621786582668.707,-0.056,0.431,0.485,-1.221042489682165,-7.500635304509389,-6.308231667758098
1621786582672.202,-0.058113435039370075,0.431,0.485,-1.206,-7.522,-6.257
1621786582673.668,-0.059,0.431,0.485,-1.2042619921702438,-7.514773546392067,-6.243553307843466
1621786582678.629,-0.054,0.428,0.482,-1.1983808399469893,-7.490320334516428,-6.198051761695127
1621786582683.59,-0.059,0.435,0.478,-1.1924993982969518,-7.465865919234695,-6.15254797629747
1621786582688.229,-0.0711585449891711,0.4331294546170506,0.48641745422327226,-1.187,-7.443,-6.11
1621786582688.55,-0.072,0.433,0.487,-1.1887628957070169,-7.4437812833247,-6.11038062520947
1621786582693.51,-0.086,0.435,0.487,-1.2159986289266018,-7.455851665092471,-6.116261067609153
1621786582698.47,-0.098,0.438,0.487,-1.2432343621461868,-7.467922046860242,-6.122141510008835
1621786582703.429,-0.105,0.447,0.487,-1.2704647329453702,-7.479990052100789,-6.128020794613205
1621786582704.255,-0.10699822799763734,0.447,0.487,-1.275,-7.482,-6.129
1621786582708.389,-0.117,0.447,0.487,-1.3155040146263426,-7.53282350879866,-6.166924141083263
1621786582713.348,-0.12,0.452,0.482,-1.3640906528528984,-7.593788908356822,-6.2124160889769175
1621786582718.308,-0.12,0.456,0.476,-1.4126892511617277,-7.654769315151977,-6.257919235164165
1621786582720.279,-0.11960247193224345,0.45878269647429587,0.4756024719322434,-1.432,-7.679,-6.276
1621786582723.266,-0.119,0.463,0.475,-1.4648126047603083,-7.709948252217109,-6.297999360009752
1621786582728.225,-0.11,0.461,0.459,-1.5192866242038217,-7.7613271569195135,-6.334521713954835
1621786582733.183,-0.099,0.469,0.449,-1.5737499161917534,-7.812695943680858,-6.371036875628562
1621786582736.301,-0.09271134528264723,0.47277319283041164,0.4464845381130589,-1.608,-7.845,-6.394
1621786582738.141,-0.089,0.475,0.445,-1.6136285701222302,-7.86751428048892,-6.407554515804554
1621786582743.099,-0.08,0.473,0.44,-1.6287944188740209,-7.928177675496083,-6.444076355655805
1621786582748.057,-0.079,0.476,0.436,-1.6439595208339683,-7.988838083335874,-6.480596397110372
1621786582752.32,-0.09534052403467297,0.49320055161544524,0.43513997241922775,-1.657,-8.041,-6.512
1621786582753.014,-0.098,0.496,0.435,-1.675272907334613,-8.044420757534205,-6.559111192369808
1621786582757.971,-0.119,0.504,0.449,-1.8058193923880916,-8.068859554499193,-6.895686016393942
1621786582762.929,-0.152,0.504,0.469,-1.9363915958192401,-8.09330316604199,-7.232327147515007
1621786582767.889,-0.199,0.504,0.475,-2.067015236005729,-8.117756406740408,-7.569100892829935
1621786582768.344,-0.20225711432850724,0.501580429355966,0.47416245631552667,-2.079,-8.12,-7.6
1621786582772.779,-0.234,0.478,0.466,-2.229496826055548,-8.188407648207066,-8.038088163415871
1621786582777.711,-0.264,0.438,0.459,-2.3968526767187717,-8.264478489417623,-8.525252040392862
1621786582782.643,-0.276,0.382,0.44,-2.564216811914972,-8.340553096324987,-9.012440033199614
1621786582784.228,-0.2676443740408891,0.35853997326865006,0.4348580763328548,-2.618,-8.365,-9.169
1621786582787.575,-0.25,0.309,0.424,-2.774727108332184,-8.424665547944155,-9.35850114170996
1621786582792.505,-0.202,0.234,0.386,-3.0055820575299217,-8.512551346298254,-9.63763138859516
1621786582797.436,-0.131,0.183,0.342,-3.2364941688504745,-8.600458906103933,-9.916830751076578
1621786582800.159,-0.0873580662737134,0.16090281836643716,0.3138260934172074,-3.364,-8.649,-10.071
1621786582802.365,-0.052,0.143,0.291,-3.260683945129895,-8.643598758525556,-10.034437750019158
1621786582807.296,0.026,0.098,0.244,-3.029754954402636,-8.63152606329987,-9.952714890029887
1621786582812.225,0.099,0.051,0.208,-2.798906000459805,-8.619457552302858,-9.871020354050119
1621786582816.088,0.14994011590470058,0.02984025954727822,0.18762395363811976,-2.618,-8.61,-9.807
1621786582817.154,0.164,0.024,0.182,-2.5385841728383705,-8.604107425977888,-9.713053620988394
1621786582822.082,0.208,0.003,0.161,-2.171511017066102,-8.576870969225816,-9.278817838907033
1621786582827.011,0.244,-0.014,0.145,-1.8043651195240504,-8.549629115108024,-8.8444960056427
1621786582831.938,0.264,-0.023,0.138,-1.4373647055215664,-8.522398055721668,-8.410346274744315
1621786582832.01,0.2641023036908596,-0.02283923705722071,0.13810230369085957,-1.432,-8.522,-8.404
1621786582836.866,0.271,-0.012,0.145,-1.2044242331288344,-8.47410536809816,-8.077889417177914
1621786582841.792,0.267,0.012,0.155,-0.9735646932515338,-8.425519647239264,-7.7470732668711655
1621786582846.72,0.258,0.047,0.176,-0.742613619631902,-8.376914662576688,-7.416125950920246
1621786582847.928,0.2550572433959459,0.0568091886801804,0.17894275660405412,-0.686,-8.365,-7.335
1621786582851.646,0.246,0.087,0.188,-0.6014307848070197,-8.213850049088789,-7.312105571577591
1621786582856.571,0.244,0.141,0.204,-0.489406700619746,-8.013630208013746,-7.281778609560042
1621786582861.496,0.236,0.195,0.213,-0.3773826164324723,-7.8134103669387,-7.251451647542493
1621786582863.843,0.23933586159032322,0.21835103113226254,0.22539034304977196,-0.324,-7.718,-7.237
1621786582866.421,0.243,0.244,0.239,-0.2714991022512776,-7.590798750824854,-7.2736209965778125
1621786582871.346,0.255,0.291,0.258,-0.17119598545186687,-7.347780396850974,-7.343585516320611
1621786582876.27,0.272,0.33,0.274,-0.07091275723953777,-7.104810229731596,-7.413536163160075
1621786582879.752,0.28967811988695524,0.34343537111408595,0.2824854975457385,0.0,-6.933,-7.463
1621786582881.194,0.297,0.349,0.286,-0.020489325454684983,-6.829918747601872,-7.47007153710383
1621786582886.117,0.321,0.363,0.293,-0.09043121786509094,-6.478042943749521,-7.494210774307421
1621786582891.04,0.354,0.365,0.298,-0.16037657892717366,-6.126149689202671,-7.518351208656282
1621786582895.659,0.37839466375719105,0.365,0.290493949613172,-0.226,-5.796,-7.541
1621786582895.963,0.38,0.365,0.29,-0.23517479081906809,-5.772183772165502,-7.537062485606817
1621786582900.885,0.405,0.358,0.286,-0.38374744760881246,-5.3865139172487915,-7.473300053734552
1621786582905.806,0.419,0.34,0.272,-0.5322832578490827,-5.000939709833423,-7.409553435173102
1621786582910.727,0.44,0.326,0.255,-0.6808264373992476,-4.615346372917786,-7.345803653949489
1621786582911.561,0.44203333333333333,0.32430555555555557,0.2531361111111111,-0.706,-4.55,-7.335
1621786582915.649,0.452,0.316,0.244,-0.6303981939367878,-4.36356697484412,-7.1611672758546545
1621786582920.569,0.454,0.302,0.248,-0.5394042141474951,-4.139177058697054,-6.951943023005805
1621786582925.489,0.44,0.283,0.243,-0.44841474951623306,-3.914798276868262,-6.74272915194889
1621786582927.458,0.43279481834425254,0.2745939547349613,0.24780345443716498,-0.412,-3.825,-6.659
1621786582930.408,0.422,0.262,0.255,-0.28635580438054864,-3.708449697416521,-6.573443169600344
1621786582935.329,0.393,0.244,0.26,-0.07675470770743087,-3.5140191380210735,-6.430716278069609
1621786582940.247,0.363,0.22,0.272,0.1327112094123431,-3.3197139741344883,-6.288081436426751
1621786582943.353,0.33458576533650985,0.20358288663887236,0.27957712924359734,0.265,-3.197,-6.198
1621786582945.166,0.318,0.194,0.284,0.36347171985679383,-3.1858178116500975,-6.183394692767474
1621786582950.083,0.264,0.173,0.298,0.6305361472626418,-3.1554906808438714,-6.143783746408323
1621786582955.001,0.202,0.154,0.307,0.8976536162628109,-3.1251575267743275,-6.104164932929734
1621786582959.242,0.15457123709293089,0.14451424741858618,0.31303638800635425,1.128,-3.099,-6.07
1621786582959.919,0.147,0.143,0.314,1.1572311876699908,-3.12908340888486,-6.078777878513146
1621786582964.836,0.082,0.136,0.316,1.3695341518508843,-3.347575963858199,-6.1425306636753385
1621786582969.752,0.031,0.129,0.328,1.581794950596985,-3.5660251240837777,-6.206270786913963
1621786582974.668,-0.021,0.131,0.328,1.794055749343086,-3.784474284309357,-6.270010910152588
1621786582975.13,-0.026544804291674946,0.131,0.32706020266242797,1.814,-3.805,-6.276
1621786582979.583,-0.08,0.131,0.318,1.819607735231273,-4.041366039998155,-6.507038691528446
1621786582984.499,-0.115,0.154,0.309,1.825798379782639,-4.302301707838224,-6.762093247044717
1621786582989.414,-0.134,0.173,0.293,1.8319877945675065,-4.563185541020399,-7.017097136181267
1621786582991.012,-0.13530074029910072,0.17982888657027873,0.2861711134297213,1.834,-4.648,-7.1
1621786582994.328,-0.138,0.194,0.272,1.7090994033339486,-4.8366040782432185,-7.280249523282278
1621786582999.242,-0.127,0.213,0.243,1.5240015377991019,-5.116108045764901,-7.54737236267454
1621786583004.156,-0.105,0.251,0.202,1.3389036722642553,-5.395612013286584,-7.814495202066802
1621786583006.888,-0.08832174085850555,0.2765733306836248,0.17920637917329094,1.236,-5.551,-7.963
1621786583009.07,-0.075,0.297,0.161,1.1132282963145266,-5.687107487848397,-7.9602503537808404
1621786583013.982,-0.019,0.337,0.119,0.8368752076539716,-5.9934787731495724,-7.954061034885867
1621786583018.895,0.033,0.377,0.075,0.5604534393650402,-6.299926198240325,-7.947870177813327
1621786583022.76,0.0731302748645559,0.4084747253839654,0.038017197673840646,0.343,-6.541,-7.943
1621786583023.807,0.084,0.417,0.028,0.30809744426151314,-6.56429036328107,-7.917796264098105
1621786583028.719,0.119,0.463,-0.007,0.14432892246618764,-6.673572571586836,-7.799536197319629
1621786583033.63,0.145,0.497,-0.047,-0.019398901386345757,-6.782827622286163,-7.681305519225739
1621786583038.541,0.162,0.529,-0.08,-0.18313486482743763,-6.892088104506778,-7.563068963394931
1621786583038.627,0.16224504002784546,0.5293325543235046,-0.08064760578787729,-0.186,-6.894,-7.561
1621786583043.451,0.176,0.548,-0.117,-0.3559718541772463,-6.887918717202961,-7.531201714294507
1621786583048.362,0.19,0.56,-0.15,-0.5290147115399412,-6.881727559515565,-7.500865041626271
1621786583053.271,0.22,0.565,-0.188,-0.7019801486542634,-6.875539171783389,-7.470541941738609
1621786583054.492,0.22820773859849805,0.5647512806485303,-0.1959590192470284,-0.745,-6.874,-7.463
1621786583058.18,0.253,0.564,-0.22,-0.8293988548737129,-6.771465853996398,-7.472067645564945
1621786583063.089,0.295,0.552,-0.26,-0.9417444244355174,-6.634979914115529,-7.484137830724477
1621786583067.998,0.337,0.529,-0.29,-1.0540844068892277,-6.498500761878376,-7.4962074156161975
1621786583070.354,0.3504407799830871,0.5232396657215341,-0.3068009749788589,-1.108,-6.433,-7.502
1621786583072.906,0.365,0.517,-0.325,-1.0827356599649005,-6.339988608023646,-7.4373104159610826
1621786583077.813,0.384,0.49,-0.349,-1.0341574555866868,-6.1611465562363374,-7.312925459527695
1621786583082.72,0.394,0.461,-0.372,-0.9855792512084731,-5.982304504449029,-7.188540503094306
1621786583086.213,0.39898179376212506,0.43751440083569615,-0.37698179376212504,-0.951,-5.855,-7.1
1621786583087.628,0.401,0.428,-0.379,-0.9343999661241396,-5.817337557550467,-7.042256871410314
1621786583092.534,0.394,0.4,-0.396,-0.8768468811111282,-5.686760128112345,-6.842058774617741
1621786583097.44,0.375,0.368,-0.394,-0.8192937960981168,-5.556182698674222,-6.64186067782517
1621786583102.068,0.35518925105747695,0.334038716098532,-0.41098064195073397,-0.765,-5.433,-6.453
1621786583102.346,0.354,0.332,-0.412,-0.7591456757797459,-5.4259537774355024,-6.4445690720061615
1621786583107.251,0.349,0.293,-0.422,-0.6557895879861378,-5.301555132845591,-6.29572392760878
1621786583112.156,0.337,0.265,-0.426,-0.5524335001925298,-5.1771564882556795,-6.146878783211398
1621786583117.061,0.325,0.232,-0.447,-0.44907741239892185,-5.052757843665768,-5.998033638814016
1621786583117.919,0.3230756708318813,0.22552725643450988,-0.4478746950764176,-0.431,-5.031,-5.972
1621786583121.965,0.314,0.195,-0.452,-0.308452629633053,-4.993469867825122,-5.814220260652556
1621786583126.868,0.283,0.166,-0.464,-0.1599583140770866,-4.9479934836861075,-5.623033829374249
1621786583131.772,0.248,0.152,-0.471,-0.011427026527405515,-4.902505776874018,-5.431799796654035
1621786583133.767,0.23864103968530598,0.14752397550166807,-0.47751058108848277,0.049,-4.884,-5.354
1621786583136.675,0.225,0.141,-0.487,0.1191208543952657,-4.887487686475158,-5.256895466033781
1621786583141.577,0.194,0.112,-0.504,0.23732138453951424,-4.893366770435211,-5.093209391567008
1621786583146.479,0.138,0.099,-0.513,0.3555278017507089,-4.899246147207496,-4.929515164591296
1621786583149.609,0.10223632559529741,0.099,-0.5161931852147056,0.431,-4.903,-4.825
1621786583151.38,0.082,0.099,-0.518,0.47271086343245616,-4.923911344401794,-4.811804606206355
1621786583156.282,0.014,0.099,-0.522,0.5881661194098876,-4.981793738149193,-4.775279887157194
1621786583161.183,-0.056,0.086,-0.525,0.7035983751869153,-5.039664600965022,-4.738762444310842
1621786583165.446,-0.11690034877927255,0.08077997010463378,-0.5223899850523169,0.804,-5.09,-4.707
1621786583166.083,-0.126,0.08,-0.522,0.804,-5.106937900937577,-4.7255472026893655
1621786583170.983,-0.209,0.068,-0.522,0.804,-5.237234440537873,-4.868223461016531
1621786583175.883,-0.281,0.052,-0.515,0.804,-5.367537472242783,-5.010906828275352
1621786583180.782,-0.347,0.037,-0.515,0.804,-5.497808043424624,-5.153554650875894
1621786583181.278,-0.3521645569620253,0.03679746835443038,-0.5152025316455696,0.804,-5.511,-5.168
1621786583185.681,-0.398,0.035,-0.517,0.7494821624122774,-5.691242646718593,-5.465344736639161
1621786583190.579,-0.421,0.017,-0.525,0.6888305390606926,-5.891764340248322,-5.796143641551631
1621786583195.477,-0.435,0.009,-0.527,0.628181938767641,-6.092276039176371,-6.126926058456081
1621786583197.107,-0.43732937892533147,0.0030101684777190706,-0.530993221014854,0.608,-6.159,-6.237
1621786583200.375,-0.442,-0.009,-0.539,0.5573979417074262,-6.298620373084816,-6.467910617024888
1621786583205.273,-0.433,-0.031,-0.56,0.48155911805094814,-6.507873617132894,-6.813983289873633
1621786583210.169,-0.403,-0.044,-0.581,0.4057505361744148,-6.717043418555492,-7.15991796145716
1621786583212.93,-0.37536755759449486,-0.04963927396030717,-0.5911506931285528,0.363,-6.835,-7.355
1621786583215.065,-0.354,-0.054,-0.599,0.3445110572694023,-6.902477893177364,-7.463504452229201
1621786583219.962,-0.283,-0.075,-0.623,0.3021038287627895,-7.057248800135804,-7.712376070618374
1621786583224.858,-0.201,-0.099,-0.646,0.25970505717680825,-7.211988842420408,-7.961198058612016
1621786583228.75,-0.11989855361596011,-0.11490224438902744,-0.6666729177057357,0.226,-7.335,-8.159
1621786583229.753,-0.099,-0.119,-0.672,0.226,-7.338107604903202,-8.154053200358168
1621786583234.648,0.003,-0.136,-0.689,0.226,-7.353274956000865,-8.12990925371291
1621786583239.542,0.101,-0.169,-0.707,0.226,-7.368439281193072,-8.10577012381511
1621786583244.437,0.194,-0.194,-0.724,0.226,-7.383606632290734,-8.081626177169852
1621786583244.564,0.19633509629777468,-0.1945708013172338,-0.7244151282307155,0.226,-7.384,-8.081
1621786583249.33,0.284,-0.216,-0.74,0.3411509218368797,-7.31617550415367,-7.773528952163305
1621786583254.223,0.36,-0.243,-0.744,0.459363175936506,-7.246547867576665,-7.457883666347549
1621786583259.116,0.415,-0.257,-0.745,0.5775813285568698,-7.176916756740064,-7.142222630554955
1621786583260.375,0.4258070052888933,-0.26188888334497556,-0.7442280710507934,0.608,-7.159,-7.061
1621786583264.009,0.457,-0.276,-0.742,0.7229580636690814,-7.066573716810058,-6.7880895568496005
1621786583268.901,0.48,-0.29,-0.728,0.8777054416830139,-6.942156824886856,-6.420719281444525
1621786583273.792,0.497,-0.295,-0.712,1.032429650453345,-6.81775856103551,-6.053404009823759
1621786583276.181,0.4886985228066673,-0.2964649665635293,-0.707116778121569,1.108,-6.757,-5.874
1621786583278.684,0.48,-0.298,-0.702,1.1406301657680484,-6.690155679834386,-5.749815291445874
1621786583283.574,0.468,-0.304,-0.691,1.2043724451173354,-6.559576835730507,-5.507223315669947
1621786583288.465,0.435,-0.314,-0.686,1.2681306369633396,-6.428965394181897,-5.264570779712339
1621786583291.984,0.4105284893882647,-0.3154395006242197,-0.6730444943820225,1.314,-6.335,-5.09
1621786583293.354,0.401,-0.316,-0.668,1.3208509882094788,-6.312018837018837,-5.05002144854975
1621786583298.245,0.377,-0.316,-0.658,1.3453079906664813,-6.229979524979525,-4.907304003832305
1621786583303.134,0.346,-0.319,-0.642,1.3697540061502327,-6.147977067977068,-4.7646506729714275
1621786583307.783,0.2994053433208489,-0.322803645443196,-0.63249088639201,1.393,-6.07,-4.629
1621786583308.023,0.297,-0.323,-0.632,1.393,-6.068222423146474,-4.623788813155901
1621786583312.911,0.239,-0.333,-0.621,1.393,-6.03201808318264,-4.517651303689278
1621786583317.799,0.178,-0.34,-0.611,1.393,-5.9958119349005425,-4.411508492913556
1621786583322.687,0.112,-0.358,-0.599,1.393,-5.959607594936709,-4.305370983446933
1621786583323.579,0.09958695109157216,-0.36311125543288203,-0.596444372283559,1.393,-5.953,-4.286
1621786583327.574,0.044,-0.386,-0.585,1.35075429781708,-6.005111464968153,-4.251090377836868
1621786583332.461,-0.024,-0.403,-0.576,1.299074763465463,-6.068859872611465,-4.20838513388164
1621786583337.347,-0.094,-0.419,-0.571,1.2474055562426565,-6.132595541401273,-4.165688423721476
1621786583339.371,-0.11637115874681457,-0.42852845650327287,-0.5652000699545295,1.226,-6.159,-4.148
1621786583342.233,-0.148,-0.442,-0.557,1.2082358235266828,-6.235313451992515,-4.204917871557363
1621786583347.119,-0.197,-0.468,-0.553,1.177907000479379,-6.365603599981443,-4.302093896423214
1621786583352.004,-0.243,-0.496,-0.548,1.1475842392564986,-6.49586770686749,-4.399250498708769
1621786583355.159,-0.2617299215353091,-0.5115006247188765,-0.5434789844569944,1.128,-6.58,-4.462
1621786583356.889,-0.272,-0.52,-0.541,1.1461939615170451,-6.614415083833447,-4.545845666027346
1621786583361.773,-0.293,-0.546,-0.541,1.1975586524778816,-6.71157480047021,-4.782556440636021
1621786583366.658,-0.312,-0.571,-0.532,1.2489336138093177,-6.808753944193529,-5.0193145455670365
1621786583370.943,-0.3304286785660717,-0.5903062346882656,-0.5276122193890306,1.294,-6.894,-5.227
1621786583371.541,-0.333,-0.593,-0.527,1.3137041621537986,-6.900328067460932,-5.268227170044871
1621786583376.424,-0.344,-0.6,-0.517,1.474628191242457,-6.952009438341328,-5.604929753984218
1621786583381.307,-0.353,-0.614,-0.51,1.635544174531951,-7.003688225282376,-5.941615503636083
1621786583386.19,-0.346,-0.609,-0.497,1.7964682036206097,-7.055369596162772,-6.27831808757543
1621786583386.722,-0.34382067310096515,-0.6069296394459168,-0.4954744711706756,1.814,-7.061,-6.315
1621786583391.072,-0.326,-0.59,-0.483,1.968157372583616,-7.07175516552909,-6.601804414109053
1621786583395.953,-0.302,-0.578,-0.459,2.1411237095850555,-7.0838225843896545,-6.9236022503908
1621786583400.834,-0.276,-0.552,-0.44,2.314098698364056,-7.095890606862608,-7.245416183002895
1621786583402.496,-0.2681696254438166,-0.5441696254438166,-0.4359145871880782,2.373,-7.1,-7.355
1621786583405.716,-0.253,-0.529,-0.428,2.262945335480076,-7.177997925503917,-7.369088630522959
1621786583410.596,-0.23,-0.504,-0.424,2.0961569031179366,-7.296204198532371,-7.390440025389355
1621786583415.476,-0.206,-0.461,-0.412,1.9293601263275229,-7.414416385422795,-7.411792488466421
1621786583418.266,-0.18426941553242593,-0.43069155324259406,-0.412,1.834,-7.482,-7.424
1621786583420.355,-0.168,-0.408,-0.412,1.7832614693814355,-7.537905117287296,-7.434333173337462
1621786583425.235,-0.131,-0.37,-0.408,1.6647233103661843,-7.668513741580862,-7.458474103894093
1621786583430.114,-0.087,-0.328,-0.405,1.546214802198653,-7.799089695749787,-7.48260899589688
1621786583434.034,-0.05887387387387387,-0.297463063063063,-0.4074108108108108,1.451,-7.904,-7.502
1621786583434.992,-0.052,-0.29,-0.408,1.4438883312421582,-7.918344904502997,-7.49841377387425
1621786583439.87,-0.012,-0.26,-0.405,1.4076757284260422,-7.991389128986787,-7.480152717753303
1621786583444.748,0.017,-0.248,-0.415,1.3714649379618014,-8.064429697786453,-7.461892575553387
1621786583449.625,0.054,-0.241,-0.428,1.3352613969050606,-8.137455643849622,-7.443636089037594
1621786583449.795,0.055150010014019625,-0.2414181854596435,-0.428278790306429,1.334,-8.14,-7.443
1621786583454.501,0.087,-0.253,-0.436,1.2139077566834562,-8.286381092599768,-7.249717210383572
1621786583459.378,0.133,-0.264,-0.454,1.08945441301821,-8.438077954281287,-7.049415435877567
1621786583464.255,0.168,-0.291,-0.466,0.965001069352964,-8.589774815962805,-6.849113661371562
1621786583465.548,0.17754987980769232,-0.29710131209935897,-0.47024439102564103,0.932,-8.63,-6.796
1621786583469.13,0.204,-0.314,-0.482,0.8851612113322175,-8.712536312069927,-6.5863623147975945
1621786583474.005,0.236,-0.342,-0.503,0.8214111648378898,-8.824872559047797,-6.301034436798711
1621786583478.879,0.262,-0.374,-0.515,0.7576738887855682,-8.937186302771062,-6.015763715826669
1621786583481.301,0.26994792709793713,-0.38691538153414784,-0.5194707089925896,0.726,-8.993,-5.874
1621786583483.755,0.278,-0.4,-0.524,0.7428295813953488,-9.005154697674419,-5.754790465116279
1621786583488.628,0.281,-0.436,-0.536,0.776250976744186,-9.029292372093023,-5.518055581395348
1621786583493.502,0.274,-0.483,-0.559,0.8096790697674419,-9.05343488372093,-5.281273255813954
1621786583497.048,0.26235671342685374,-0.5062865731462926,-0.5735541082164328,0.834,-9.071,-5.109
1621786583498.375,0.258,-0.515,-0.579,0.9265515284045968,-9.066026830440919,-5.1156589897486
1621786583503.247,0.218,-0.562,-0.611,1.266378262690178,-9.04776655965508,-5.140109182834721
1621786583508.121,0.169,-0.59,-0.639,1.606341227376355,-9.029498968656462,-5.164569177561686
1621786583512.79,0.0971088667234725,-0.5832901608941907,-0.665839356423237,1.932,-9.012,-5.188
1621786583512.992,0.094,-0.583,-0.667,1.9435703804811466,-9.011756278016472,-5.212782677482899
1621786583517.864,0.016,-0.557,-0.681,2.222770516976625,-9.005875122147943,-5.810803368956585
1621786583522.735,-0.072,-0.511,-0.691,2.501914690325883,-8.999995145104,-6.408704192582712
1621786583527.606,-0.155,-0.447,-0.677,2.781044872888586,-8.994115462766205,-7.0065750492469485
1621786583528.53,-0.16695382995789051,-0.43865129336274317,-0.6737743633446962,2.834,-8.993,-7.12
1621786583532.476,-0.218,-0.403,-0.66,2.784843372746175,-9.08629727213481,-7.407666589082332
1621786583537.346,-0.262,-0.349,-0.682,2.7241784439685937,-9.201436830835117,-7.762680228408279
1621786583542.216,-0.237,-0.253,-0.709,2.663510473885113,-9.316582161809887,-8.117711665580485
1621786583544.264,-0.2041933009075866,-0.22229629443915158,-0.7064764077621221,2.638,-9.365,-8.267
1621786583547.085,-0.159,-0.18,-0.703,2.799753860479553,-9.44426297819508,-8.349670210289439
1621786583551.954,-0.026,-0.124,-0.682,3.0789420035694888,-9.581071358733608,-8.492359494063784
1621786583556.822,0.127,-0.106,-0.661,3.3580601536432066,-9.717845441142236,-8.635013005354233
1621786583559.995,0.22868674457094135,-0.09948161893776017,-0.6479632378755203,3.54,-9.807,-8.728
1621786583561.69,0.283,-0.096,-0.641,3.500880730242017,-9.595561963456852,-8.671961376655231
1621786583566.557,0.412,-0.098,-0.611,3.3885438471211016,-8.988385752208268,-8.511038017914526
1621786583571.425,0.49,-0.099,-0.571,3.2761787882080817,-8.381057251967649,-8.350074297157583
1621786583575.722,0.5226661650363682,-0.09458565337346375,-0.5418653122648608,3.177,-7.845,-8.208
1621786583576.292,0.527,-0.094,-0.538,3.1421552066834373,-7.782779744712569,-8.172792617783161
1621786583581.158,0.52,-0.08,-0.504,2.844728407714525,-7.251682567781608,-7.872270846920712
1621786583586.024,0.487,-0.08,-0.478,2.5473016087456135,-6.720585390850648,-7.571749076058262
1621786583590.89,0.424,-0.091,-0.466,2.2498748097767014,-6.189488213919686,-7.271227305195813
1621786583591.444,0.41625372610026595,-0.09213915792643147,-0.46383559993978024,2.216,-6.129,-7.237
1621786583595.755,0.356,-0.101,-0.447,2.0492615360720667,-6.002574947580958,-7.258665030674846
1621786583600.62,0.284,-0.106,-0.429,1.8610775801817194,-5.859889415236468,-7.283116564417178
1621786583605.484,0.215,-0.099,-0.41,1.6729502834511143,-5.717246843208822,-7.307560736196319
1621786583607.163,0.1915303091128061,-0.0979645724608591,-0.4068937173825773,1.608,-5.668,-7.316
1621786583610.349,0.147,-0.096,-0.401,1.4867461155997514,-5.620350062150404,-7.455097265382225
1621786583615.212,0.103,-0.084,-0.41,1.3016783095090119,-5.547622747047856,-7.667399129894345
1621786583620.075,0.093,-0.087,-0.412,1.1166012119328776,-5.474891780609074,-7.879711653200746
1621786583622.876,0.10048777549073748,-0.08412008634971635,-0.4096960690797731,1.01,-5.433,-8.002
1621786583624.938,0.106,-0.082,-0.408,0.9546172540244888,-5.364755858039654,-8.112765491951023
1621786583629.801,0.157,-0.094,-0.391,0.8240028901734104,-5.203809248554913,-8.373994219653179
1621786583634.662,0.22,-0.106,-0.38,0.6934409845235875,-5.0429272795077384,-8.635118030952825
1621786583638.588,0.28782765893341367,-0.13345405242542935,-0.37031033443808375,0.588,-4.913,-8.846
1621786583639.524,0.304,-0.14,-0.368,0.564043459338473,-4.8697352026858995,-8.836643838597364
1621786583644.385,0.382,-0.157,-0.368,0.43963065779656796,-4.64504939691619,-8.788054759388212
1621786583649.245,0.459,-0.161,-0.361,0.3152428500373041,-4.420408729171848,-8.739475441432479
1621786583654.106,0.522,-0.168,-0.339,0.1908362969410594,-4.1957342079084805,-8.690888802536682
1621786583654.295,0.5238273973979003,-0.16811664238710003,-0.3379113377203999,0.186,-4.187,-8.689
1621786583658.966,0.569,-0.171,-0.311,0.1306644794128623,-4.096559149147904,-8.420354972633412
1621786583663.825,0.604,-0.187,-0.288,0.0731048948874238,-4.002483269063316,-8.140912473566363
1621786583668.685,0.613,-0.183,-0.257,0.01553084960816023,-3.9083837541982835,-7.861399769871874
1621786583669.996,0.6057148025324088,-0.18030177871570696,-0.25457160084413627,0.0,-3.883,-7.786
1621786583673.544,0.586,-0.173,-0.248,0.042037232305323566,-3.9008545233984977,-7.679776886110203
1621786583678.402,0.545,-0.159,-0.229,0.09959977604628377,-3.925303130686325,-7.5343231465497125
1621786583683.26,0.503,-0.15,-0.195,0.15715942705174263,-3.9497505093391814,-7.3888767165896825
1621786583685.694,0.4834549110284508,-0.1520046245099025,-0.17094450588117022,0.186,-3.962,-7.316
1621786583688.117,0.464,-0.154,-0.147,0.3041097731727807,-4.092152338280594,-7.322021282553907
1621786583692.975,0.428,-0.164,-0.079,0.5409362923550826,-4.353125875105013,-7.334094791374965
1621786583697.832,0.387,-0.162,-0.007,0.7777033043965276,-4.61403383739382,-7.346165266498647
1621786583701.387,0.3467357968828557,-0.16492830568124686,0.037656661639014585,0.951,-4.805,-7.355
1621786583702.688,0.332,-0.166,0.054,0.9388106152553449,-4.888750194504092,-7.337089067313976
1621786583707.544,0.297,-0.173,0.117,0.8933148632247222,-5.201340055394765,-7.270238166371021
1621786583712.4,0.269,-0.169,0.197,0.8478191111940996,-5.513929916285439,-7.203387265428065
1621786583717.077,0.24009976868148444,-0.16225661269234637,0.2827373529115961,0.804,-5.815,-7.139
1621786583717.255,0.239,-0.162,0.286,0.7899855701877277,-5.823124964976184,-7.132214065564584
1621786583722.109,0.204,-0.176,0.368,0.40777035272874446,-6.044716945300582,-6.947141433952866
1621786583726.963,0.164,-0.201,0.426,0.025555135269761164,-6.266308925624981,-6.7620688023411475
1621786583731.818,0.124,-0.239,0.456,-0.35675620310700173,-6.48795663273248,-6.576949627969242
1621786583732.761,0.11855974241585752,-0.2494919253408462,0.4620231423253006,-0.431,-6.531,-6.541
1621786583736.671,0.096,-0.293,0.487,-0.6474421060687228,-6.511880538761766,-6.490505012627229
1621786583741.613,0.082,-0.356,0.501,-0.9210254687380424,-6.487713492002755,-6.426679222468815
1621786583746.592,0.07,-0.407,0.504,-1.1966495905716692,-6.463366174332288,-6.362377332210913
1621786583748.712,0.07212537328046213,-0.43335462867773045,0.498048954814706,-1.314,-6.453,-6.335
1621786583751.579,0.075,-0.469,0.49,-1.2059127473093052,-6.346690498175929,-6.399532356458425
1621786583756.57,0.075,-0.518,0.475,-1.0177632491182393,-6.161635564099847,-6.511865033832367
1621786583761.561,0.089,-0.55,0.459,-0.8296137509271734,-5.976580630023767,-6.6241977112063095
1621786583764.84,0.09228498752629262,-0.5545989825368097,0.443889057379054,-0.706,-5.855,-6.698
1621786583766.552,0.094,-0.557,0.436,-0.581066242809567,-5.842474780502574,-6.6719942476536485
1621786583771.543,0.075,-0.548,0.426,-0.21683053284892512,-5.805958371177717,-6.596176279140176
1621786583776.535,0.044,-0.532,0.414,0.1474764456554648,-5.769434816833182,-6.520343475628217
1621786583780.968,-0.009293547913711293,-0.5151237098273248,0.41044709680575253,0.471,-5.737,-6.453
1621786583781.526,-0.016,-0.513,0.41,0.5069387677868604,-5.745820390554042,-6.455040796245838
1621786583786.517,-0.075,-0.473,0.408,0.8284845746291251,-5.824736830154405,-6.473299894035725
1621786583791.508,-0.112,-0.435,0.417,1.1500146533454436,-5.9036494096276115,-6.491558098698153
1621786583796.5,-0.122,-0.393,0.436,1.4716076445655464,-5.982577429609446,-6.50981987587042
1621786583797.096,-0.12092535342170914,-0.38941784473903046,0.43874631903341,1.51,-5.992,-6.512
1621786583801.491,-0.113,-0.363,0.459,1.5822096420192235,-5.986550215696663,-6.583937152804056
1621786583806.483,-0.086,-0.34,0.473,1.6642266707030955,-5.980360251267691,-6.665644683266479
1621786583811.474,-0.049,-0.309,0.485,1.7462316657836978,-5.974171195035193,-6.747340225535457
1621786583813.225,-0.026902088325915785,-0.29426805888394386,0.48885836553039563,1.775,-5.972,-6.776
1621786583816.466,0.014,-0.267,0.496,1.745459809264305,-5.914929155313351,-6.675523160762943
1621786583821.457,0.061,-0.22,0.492,1.6999690281562214,-5.827042204056918,-6.520792612776264
1621786583826.448,0.08,-0.173,0.497,1.6544782470481378,-5.739155252800484,-6.366062064789585
1621786583829.353,0.07708971286014772,-0.15029976030915226,0.5045667465636159,1.628,-5.688,-6.276
1621786583831.439,0.075,-0.134,0.51,1.5899749318801089,-5.642344050862851,-6.208874114441417
1621786583836.432,0.089,-0.091,0.534,1.498957765667575,-5.53306153496821,-6.0482009536784735
1621786583841.423,0.105,-0.051,0.55,1.407971752951862,-5.4238164244626095,-5.887582788374205
1621786583845.481,0.12044778163674608,-0.019291395587731748,0.5581304113877611,1.334,-5.335,-5.757
1621786583846.414,0.124,-0.012,0.56,1.2931533151680292,-5.310005994550409,-5.711582652134423
1621786583851.406,0.138,0.009,0.579,1.0746310323947927,-5.176292643051771,-5.468608159249167
1621786583856.398,0.134,0.052,0.595,0.8561087496215563,-5.042579291553134,-5.225633666363912
1621786583861.389,0.084,0.086,0.602,0.6376292158643657,-4.908892098092642,-4.9827067060248265
1621786583861.609,0.08060632001173997,0.08718999168419507,0.6025288851929755,0.628,-4.903,-4.972
1621786583866.38,0.007,0.113,0.614,0.40464426177392254,-4.85093296698306,-4.8270406467142015
1621786583871.372,-0.082,0.131,0.618,0.17093337572096828,-4.796452018711113,-4.675360733911622
1621786583876.363,-0.148,0.148,0.616,-0.0627203627170474,-4.741984392267285,-4.523717910289599
1621786583877.736,-0.16587841737174158,0.15047547317454882,0.6132494742505012,-0.127,-4.727,-4.482
1621786583881.355,-0.213,0.157,0.606,-0.25691216093485103,-4.8566877875999035,-4.4775125333010415
1621786583886.347,-0.293,0.173,0.585,-0.43611434366674734,-5.035580467425527,-4.471322475175588
1621786583891.338,-0.4,0.176,0.579,-0.6152814694841365,-5.214438150883991,-4.465133627997093
1621786583893.865,-0.45922667253521127,0.1795434761345853,0.5764689456181533,-0.706,-5.305,-4.462
1621786583896.33,-0.517,0.183,0.574,-0.7225041090914595,-5.428016739061341,-4.610384165998214
1621786583901.322,-0.602,0.185,0.572,-0.755925869871203,-5.6771326411696155,-4.910870552267946
1621786583906.314,-0.668,0.185,0.567,-0.7893476306509466,-5.9262485432778895,-5.211356938537678
1621786583909.996,-0.6938215526096952,0.19163982781392164,0.5610979308320697,-0.814,-6.11,-5.433
1621786583911.305,-0.703,0.194,0.559,-0.8267403275611528,-6.165667928069751,-5.568274688181157
1621786583916.297,-0.705,0.182,0.559,-0.8753346603293776,-6.377997305643013,-6.084241266045047
1621786583921.288,-0.672,0.175,0.545,-0.9239171106805522,-6.590274763865343,-6.6000816783724865
1621786583926.125,-0.6090309520316854,0.15756241748569752,0.5294999266539534,-0.971,-6.796,-7.1
1621786583926.281,-0.607,0.157,0.529,-0.9730891203002966,-6.800265287279773,-7.107205530665374
1621786583931.272,-0.527,0.126,0.524,-1.0399246231155779,-6.9367211055276385,-7.337726130653266
1621786583936.264,-0.421,0.106,0.51,-1.1067732033662288,-7.073203623539384,-7.568291835684446
1621786583941.255,-0.311,0.089,0.485,-1.17360870618151,-7.20965944178725,-7.798812435672337
1621786583942.255,-0.2863663211421866,0.08619616663407001,0.4801934285155486,-1.187,-7.237,-7.845
1621786583946.248,-0.188,0.075,0.461,-1.2427042306819043,-7.193426912888822,-7.709081677136154
1621786583951.24,-0.068,0.059,0.428,-1.312341330507833,-7.138955225913873,-7.539167153560887
1621786583956.231,0.044,0.044,0.396,-1.3819648073866646,-7.084494195110875,-7.3692858699765385
1621786583958.384,0.07849638177195384,0.036238314101310384,0.3834950616076667,-1.412,-7.061,-7.296
1621786583961.224,0.124,0.026,0.367,-1.3947434911600871,-6.964328333131509,-7.066382780334221
1621786583966.215,0.183,0.023,0.342,-1.3644181399854687,-6.79444447808186,-6.66286994429644
1621786583971.207,0.213,0.028,0.316,-1.3340868551707437,-6.624527382538145,-6.259278154516832
1621786583974.513,0.21498674622193964,0.02998674622193965,0.3054040201496552,-1.314,-6.512,-5.992
1621786583976.199,0.216,0.031,0.3,-1.276052073083968,-6.461716383342668,-5.865925069254174
1621786583981.191,0.18,0.045,0.281,-1.1636974160245834,-6.312838724814943,-5.492647613569277
1621786583986.183,0.131,0.063,0.269,-1.0513372640438383,-6.163953785137978,-5.119351902029941
1621786583990.641,0.07473844573776105,0.07103736489460556,0.26096263510539447,-0.951,-6.031,-4.786
1621786583991.175,0.068,0.072,0.26,-0.9403066757493188,-6.0322911444141685,-4.7687847411444135
1621786583996.167,-0.005,0.103,0.246,-0.8403311837723282,-6.0443624886466845,-4.607833484710869
1621786584001.158,-0.084,0.119,0.237,-0.7403752497729337,-6.056431471389645,-4.446913714804722
1621786584006.151,-0.166,0.141,0.234,-0.6403801998183469,-6.068505177111716,-4.285930971843778
1621786584006.769,-0.17565845070422537,0.14471478873239435,0.23437147887323945,-0.628,-6.07,-4.266
1621786584011.143,-0.244,0.171,0.237,-0.4550007264802034,-6.22428932074101,-4.287150381402107
1621786584016.135,-0.319,0.206,0.244,-0.25756178108729866,-6.400375151350042,-4.311288685070832
1621786584021.126,-0.375,0.237,0.257,-0.06016146022520885,-6.57642653468943,-4.3354222666182345
1621786584022.9,-0.3899221064984597,0.2501456652486431,0.26375047674930324,0.01,-6.639,-4.344
1621786584026.119,-0.417,0.274,0.276,0.06467394100821768,-6.7778797917581,-4.457538220560861
1621786584031.111,-0.436,0.318,0.29,0.14946519969126928,-6.993261967098991,-4.633619338045008
1621786584036.103,-0.452,0.342,0.309,0.2342523116969596,-7.208633609274028,-4.809691844363394
1621786584039.032,-0.4490663177972319,0.36546945762214506,0.318387783048858,0.284,-7.335,-4.913
1621786584041.095,-0.447,0.382,0.325,0.284,-7.373885861338177,-5.017122010293673
1621786584046.088,-0.431,0.403,0.33,0.284,-7.46799884953073,-5.2691219194671515
1621786584051.08,-0.407,0.431,0.351,0.284,-7.562098032092038,-5.521084862246443
1621786584055.16,-0.3898370421088668,0.44571110676382847,0.3624419719274221,0.284,-7.639,-5.727
1621786584056.072,-0.386,0.449,0.365,0.2496173768258533,-7.643467478997957,-5.770261030802997
1621786584061.064,-0.347,0.466,0.377,0.0614424581851207,-7.667917838492394,-6.007027170211156
1621786584066.056,-0.309,0.475,0.375,-0.12673246045561187,-7.6923681979868315,-6.243793309619314
1621786584071.049,-0.251,0.497,0.368,-0.3149533943843184,-7.716824536441384,-6.480617346552638
1621786584071.289,-0.2475866386266934,0.4966634714138993,0.3673269428277987,-0.324,-7.718,-6.492
1621786584076.041,-0.18,0.49,0.354,-0.6271307664366146,-7.588086814384308,-6.699978932074101
1621786584081.033,-0.129,0.489,0.337,-0.9455706956047947,-7.4516125590265165,-6.918461526819228
1621786584086.025,-0.075,0.489,0.318,-1.2640106247729748,-7.315138303668725,-7.136944121564355
1621786584087.42,-0.06633903774691961,0.48117719538431447,0.3104565812634461,-1.353,-7.277,-7.198
1621786584091.018,-0.044,0.461,0.291,-1.3837836352903783,-7.174164812544461,-7.235252660097777
1621786584096.01,-0.038,0.417,0.257,-1.4264918040230667,-7.031494770618596,-7.286935733854001
1621786584101.002,-0.045,0.401,0.225,-1.4691999727557554,-6.888824728692731,-7.338618807610226
1621786584103.55,-0.05520883259157823,0.40202088325915786,0.2285730914070524,-1.491,-6.816,-7.365
1621786584105.994,-0.065,0.403,0.232,-1.3602800181584325,-6.943690550049179,-7.263968449723841
1621786584110.987,-0.086,0.391,0.246,-1.093198592721495,-7.2045823711886205,-7.057545146402361
1621786584115.979,-0.093,0.374,0.267,-0.8261824619807823,-7.465410410834531,-6.8511723083907095
1621786584119.684,-0.09745326942827799,0.3532180760013694,0.273679904142417,-0.628,-7.659,-6.698
1621786584120.971,-0.099,0.346,0.276,-0.6185869302015861,-7.6988858889763305,-6.681567013741752
1621786584125.963,-0.106,0.314,0.286,-0.5820722198680308,-7.853609237847327,-6.617820994006902
