time,gyro_x,gyro_y,gyro_z,acc_x,acc_y,acc_z
1621786498739.124,,,,2.079,-5.757,-6.472
1621786498757.779,,,,1.677,-5.031,-5.609
1621786498776.369,0.166,1.22,1.079,1.888761652160478,-4.675122779008086,-5.118810990369264
1621786498776.741,0.15997256210604377,1.2191209986404647,1.0799417871709307,1.893,-4.668,-5.109
1621786498782.295,0.07,1.206,1.094,2.0088810157378543,-4.707491788945488,-5.179624002128792
1621786498788.249,-0.024,1.183,1.114,2.1331109252641984,-4.749828847664665,-5.255336260422211
1621786498794.234,-0.108,1.161,1.134,2.257982665551585,-4.792384639752655,-5.3314396842292
1621786498796.008,-0.13278392204628503,1.1589346731628096,1.1401959805115711,2.295,-4.805,-5.354
1621786498800.247,-0.192,1.154,1.155,2.324670716343815,-4.928230931384166,-5.574906063289718
1621786498806.291,-0.251,1.143,1.175,2.366974941063477,-5.103932419453418,-5.88987182397625
1621786498812.363,-0.288,1.134,1.196,2.409475683227102,-5.2804501004103725,-6.206300707238278
1621786498815.581,-0.2953843137254902,1.1260882352941175,1.1996921568627452,2.432,-5.374,-6.374
1621786498818.464,-0.302,1.119,1.203,2.428713514416119,-5.488369698319047,-6.51581185294445
1621786498823.247,-0.291,1.117,1.218,2.423261271290215,-5.678107759100524,-6.751076143827229
1621786498828.856,-0.271,1.103,1.229,2.416867527552043,-5.900610041188912,-7.026966186129355
1621786498833.126,-0.24437899543378994,1.097675799086758,1.234324200913242,2.412,-6.07,-7.237
1621786498834.47,-0.236,1.096,1.236,2.4077143432391077,-6.080861923169848,-7.258058830635419
1621786498840.091,-0.187,1.082,1.241,2.389790099594642,-6.126290609648064,-7.3461348554401225
1621786498845.719,-0.134,1.066,1.239,2.3718440578776407,-6.17177454296529,-7.434317991463317
1621786498851.315,-0.08432938932951936,1.0510988167988558,1.2370131755731808,2.354,-6.217,-7.522
1621786498851.352,-0.084,1.051,1.237,2.3538393793472445,-6.216381915462814,-7.5215405029427505
1621786498856.992,-0.044,1.037,1.239,2.3294282102728734,-6.122445264847512,-7.451706019261637
1621786498862.638,-0.014,1.035,1.237,2.3049906233279827,-6.028406955591225,-7.3817959604066345
1621786498868.29,0.0,1.016,1.236,2.2805266185125737,-5.934266987693954,-7.311810326377742
1621786498869.567,0.0022563527330773546,1.0139692825402304,1.236,2.275,-5.913,-7.296
1621786498873.949,0.01,1.007,1.236,2.2163908251256146,-5.835731577614586,-7.220884567712012
1621786498879.612,0.005,0.998,1.234,2.140648531940131,-5.735875411496582,-7.1238107715477605
1621786498885.283,0.005,0.986,1.229,2.064801748610574,-5.635881488984553,-7.026603057402941
1621786498887.885,0.0017915537780071387,0.9814165053971531,1.2271666021588614,2.03,-5.59,-6.982
1621786498890.96,-0.002,0.976,1.225,1.993863237872589,-5.566912624196377,-6.963931618936295
1621786498896.644,-0.01,0.963,1.223,1.9270640242282555,-5.524235348812496,-6.930532012114128
1621786498902.333,-0.023,0.951,1.218,1.8602074278731204,-5.481521412252271,-6.89710371393656
1621786498906.265,-0.026451416570228453,0.9447874501735888,1.2145485834297716,1.814,-5.452,-6.874
1621786498908.029,-0.028,0.942,1.213,1.8083573026272253,-5.4501828601680895,-6.868452941565747
1621786498913.731,-0.042,0.941,1.199,1.7901196611739791,-5.44430972139501,-6.850524412679505
1621786498919.439,-0.054,0.935,1.192,1.771862497518364,-5.438430295810998,-6.83257669247568
1621786498924.711,-0.06507337293278065,0.9276177513781463,1.1707760352121706,1.755,-5.433,-6.816
1621786498925.152,-0.066,0.927,1.169,1.7526645433564128,-5.433,-6.816
1621786498930.873,-0.075,0.909,1.154,1.7223785690735245,-5.433,-6.816
1621786498936.599,-0.086,0.915,1.134,1.6920654533465216,-5.433,-6.816
1621786498942.332,-0.098,0.894,1.117,1.6617161490273658,-5.433,-6.816
1621786498943.223,-0.09955230356914962,0.8915163142893606,1.1148267750031906,1.657,-5.433,-6.816
1621786498948.071,-0.108,0.878,1.103,1.6776158273759463,-5.422822566232128,-6.831135670731707
1621786498953.817,-0.115,0.866,1.084,1.702048977607233,-5.410760631307822,-6.849073932926829
1621786498959.568,-0.119,0.864,1.068,1.7265049674095878,-5.398687421152228,-6.867028963414634
1621786498961.801,-0.12365366350067843,0.8597341417910448,1.0617951153324288,1.736,-5.394,-6.874
1621786498965.326,-0.131,0.853,1.052,1.7507494401005854,-5.3771705106544605,-6.855468652181315
1621786498971.09,-0.131,0.848,1.042,1.7748687281442772,-5.349649784553325,-6.825164931305908
1621786498976.859,-0.147,0.831,1.03,1.7990074260343405,-5.322106911319791,-6.794836823700444
1621786498980.442,-0.15568439071811996,0.8235562365273257,1.02565780464094,1.814,-5.305,-6.776
1621786498982.635,-0.161,0.819,1.023,1.8117725386301942,-5.293510988724159,-6.776
1621786498988.418,-0.171,0.805,1.021,1.805899013363959,-5.263215963666736,-6.776
1621786498994.207,-0.188,0.785,1.016,1.8000192889956148,-5.2328889642931715,-6.776
1621786498999.149,-0.188,0.7722058823529412,1.0142941176470588,1.795,-5.207,-6.776
1621786499000.001,-0.188,0.77,1.014,1.7914106336167055,-5.207,-6.7813613320661865
1621786499005.796,-0.199,0.754,1.007,1.7669988283233307,-5.207,-6.817824534909455
1621786499011.596,-0.202,0.728,1.012,1.7425654251233516,-5.207,-6.8543199979170195
1621786499017.403,-0.211,0.721,1.012,1.7181021962428233,-5.207,-6.890860010675277
1621786499017.902,-0.2113435005461726,0.7188531215864212,1.0117423745903706,1.716,-5.207,-6.894
1621786499023.214,-0.215,0.696,1.009,1.693973445469766,-5.201634557229815,-6.952172695297797
1621786499029.032,-0.209,0.681,1.009,1.6698493166686135,-5.1957581668808155,-7.015885138029046
1621786499034.856,-0.209,0.675,1.005,1.6456998792975899,-5.189875611623772,-7.079664421342263
1621786499036.713,-0.20677080890973037,0.6762738234801541,1.006273823480154,1.638,-5.188,-7.1
1621786499040.687,-0.202,0.679,1.009,1.6999047446577327,-5.208634914885911,-7.168221555337093
1621786499046.523,-0.194,0.686,1.014,1.790810938065918,-5.238936979355306,-7.268403890929787
1621786499052.365,-0.171,0.7,1.016,1.8818122057225641,-5.2692707352408545,-7.368691002224867
1621786499055.587,-0.15777710516428006,0.6961433223395816,1.0253662171753015,1.932,-5.286,-7.424
1621786499058.213,-0.147,0.693,1.033,1.979563468530026,-5.317200526003661,-7.461995307222237
1621786499064.067,-0.12,0.698,1.056,2.085595157672176,-5.3867548410385995,-7.546697006420339
1621786499069.927,-0.089,0.689,1.079,2.1917373978289456,-5.456381674960679,-7.631487017507672
1621786499074.524,-0.0647065384775461,0.6772450992633288,1.0962405210804511,2.275,-5.511,-7.698
1621786499075.793,-0.058,0.674,1.101,2.280276818298638,-5.512335903366744,-7.698
1621786499081.666,-0.038,0.667,1.124,2.3046975841685944,-5.518518375738885,-7.698
1621786499087.542,-0.024,0.66,1.143,2.329130531996916,-5.524703932151118,-7.698
1621786499093.426,-0.002,0.66,1.164,2.353596980210743,-5.530897969673606,-7.698
1621786499093.523,-0.0015721450777202073,0.6595721450777202,1.1643126632124352,2.354,-5.531,-7.698
1621786499099.316,0.024,0.634,1.183,2.2941253234276933,-5.513067990265147,-7.686146637632894
1621786499105.212,0.044,0.62,1.194,2.2331857819905214,-5.494817061611375,-7.674082464454976
1621786499111.114,0.065,0.606,1.204,2.172183156141924,-5.4765472396567185,-7.662005802484949
1621786499112.583,0.07096751931898013,0.6007784205958924,1.2069837596594901,2.157,-5.472,-7.659
1621786499117.022,0.089,0.585,1.216,2.082023159023593,-5.433234884077214,-7.583791032580941
1621786499122.936,0.098,0.571,1.23,1.982131013175365,-5.381587861301195,-7.483589623123277
1621786499128.856,0.103,0.56,1.229,1.8821398988867328,-5.329889669083852,-7.383288938821367
1621786499131.706,0.0996333786511762,0.5609618918139497,1.2294809459069749,1.834,-5.305,-7.335
1621786499134.782,0.096,0.562,1.23,1.7695476063220585,-5.286241467511644,-7.316241467511644
1621786499140.714,0.096,0.564,1.229,1.6452469267771246,-5.250064404061999,-7.280064404061999
1621786499146.65,0.082,0.56,1.229,1.5208695121020082,-5.2138650072535695,-7.24386500725357
1621786499150.891,0.07201076107939378,0.56,1.2247188976054546,1.432,-5.188,-7.218
1621786499152.594,0.068,0.56,1.223,1.4016608374759054,-5.1983489271583645,-7.228348927158365
1621786499158.544,0.052,0.56,1.216,1.2956542812214669,-5.234508597950694,-7.2645085979506945
1621786499164.499,0.03,0.565,1.216,1.189556381251902,-5.2706994268032865,-7.300699426803287
1621786499170.143,0.01295970515970516,0.566893366093366,1.2017997542997543,1.089,-5.305,-7.335
1621786499170.461,0.012,0.567,1.201,1.0848027609921367,-5.309361836616015,-7.342423352127633
1621786499176.429,-0.007,0.559,1.192,1.0059997598037975,-5.391255151576446,-7.48179650324897
1621786499182.402,-0.009,0.555,1.182,0.9271290612121059,-5.473218818740361,-7.621289385856236
1621786499188.382,-0.01,0.553,1.168,0.848168099415944,-5.555276288842254,-7.760941910444742
1621786499189.455,-0.008697336664267266,0.5515112419020197,1.1633476309438116,0.834,-5.57,-7.786
1621786499194.148,-0.003,0.545,1.143,0.7045520856716536,-5.642338540359958,-7.850723957164173
1621786499199.867,0.017,0.522,1.115,0.5467996461158574,-5.730494315405845,-7.929600176942071
1621786499205.585,0.054,0.501,1.084,0.38907414400971857,-5.81863503717104,-8.008462927995142
1621786499207.944,0.06637524012806831,0.4877997438633938,1.0703872358591249,0.324,-5.855,-8.041
1621786499211.304,0.084,0.469,1.051,0.30256018377935917,-5.886978030973159,-7.985765219228179
1621786499217.023,0.115,0.443,1.009,0.26606638237196834,-5.941409463580793,-7.891747290178631
1621786499222.743,0.14,0.422,0.969,0.22956634936561793,-5.9958501907767054,-7.797713306840237
1621786499226.436,0.14193728922091783,0.41231355389541086,0.9418779509071505,0.206,-6.031,-7.737
1621786499228.462,0.143,0.407,0.927,0.206,-6.018072547958227,-7.726263641524629
1621786499234.182,0.141,0.407,0.908,0.206,-5.981572514951877,-7.695950054790542
1621786499239.902,0.138,0.401,0.885,0.206,-5.945070924045787,-7.665635174207518
1621786499244.928,0.1318494173887063,0.3878201801186564,0.852489777626019,0.206,-5.913,-7.639
1621786499245.622,0.131,0.386,0.848,0.17766270611377347,-5.911536219256209,-7.623198674534965
1621786499251.343,0.131,0.344,0.784,-0.055903177683604616,-5.899471226583231,-7.49295862542411
1621786499257.063,0.134,0.295,0.717,-0.28942919191519134,-5.887408293397758,-7.362740808216827
1621786499262.784,0.148,0.257,0.663,-0.5229950757125694,-5.875343300724781,-7.232500759105971
1621786499263.421,0.14766586979722518,0.2546610885805763,0.6583221771611526,-0.549,-5.874,-7.218
1621786499268.503,0.145,0.236,0.621,-0.48717519404403614,-5.911644437404298,-7.048187866307619
1621786499274.224,0.143,0.229,0.585,-0.41757476635514024,-5.954023364485981,-6.8570186915887845
1621786499279.946,0.124,0.229,0.553,-0.3479654284809124,-5.996407716880511,-6.665825043560906
1621786499281.916,0.11608010071267016,0.22831131310544958,0.5409479793453676,-0.324,-6.011,-6.6
1621786499285.667,0.101,0.227,0.518,-0.35380977773084843,-6.027020220685286,-6.635690618235573
1621786499291.388,0.075,0.227,0.496,-0.39927531545324957,-6.051454081093923,-6.69012554775355
1621786499297.11,0.044,0.229,0.468,-0.4447505543529908,-6.0758931550604505,-6.744572092286574
1621786499300.413,0.03245500704015019,0.2168777573921577,0.45299150915219527,-0.471,-6.09,-6.776
1621786499302.832,0.024,0.208,0.442,-0.5433584039021746,-6.155780367183795,-6.829966750220175
1621786499308.386,0.007,0.195,0.408,-0.7094949935641217,-6.3068136305128375,-6.95387567237992
1621786499313.937,0.014,0.178,0.375,-0.8755439468870673,-6.457767224442788,-7.077719233114288
1621786499318.432,0.027772805280528053,0.1698983498349835,0.342593399339934,-1.01,-6.58,-7.178
1621786499319.485,0.031,0.168,0.335,-1.0077071954210957,-6.597284219133279,-7.1872300081766145
1621786499325.03,0.068,0.148,0.295,-0.9956362224039248,-6.688280784955029,-7.235823412373944
1621786499330.571,0.115,0.113,0.258,-0.9835737530662305,-6.779213246116107,-7.284382583810302
1621786499336.11,0.157,0.093,0.22,-0.9715155355682747,-6.870113654946851,-7.332924638866176
1621786499336.347,0.1589250275633958,0.09201609702315325,0.21901609702315325,-0.971,-6.874,-7.335
1621786499341.646,0.202,0.07,0.197,-0.8693684627250761,-6.862444227540169,-7.2304054441456325
1621786499347.179,0.236,0.033,0.169,-0.7632511842518395,-6.850378414535923,-7.121194367466179
1621786499352.709,0.264,0.014,0.155,-0.657190094603634,-6.838318990348518,-7.012041117769921
1621786499354.231,0.26730497017892646,0.009593373094764745,0.15031795891318755,-0.628,-6.835,-6.982
1621786499358.235,0.276,-0.002,0.138,-0.7004516945211849,-6.843748037418966,-6.867602587598129
1621786499363.759,0.283,-0.021,0.133,-0.8004024316857682,-6.855816392680325,-6.709785634180366
1621786499369.28,0.281,-0.042,0.119,-0.9003001586476653,-6.867878347328975,-6.552052381082634
1621786499372.082,0.27388972475440304,-0.057744180900964684,0.11442910877068767,-0.951,-6.874,-6.472
1621786499374.797,0.267,-0.073,0.11,-1.0153043764215834,-6.89045704420268,-6.445181113151189
1621786499380.312,0.258,-0.094,0.103,-1.145919569208846,-6.923884629086624,-6.390706530377353
1621786499385.824,0.244,-0.126,0.087,-1.2764653750239785,-6.957294456167274,-6.336260886245924
1621786499389.9,0.23364008687558177,-0.14227986348122867,0.08108004964318957,-1.373,-6.982,-6.296
1621786499391.332,0.23,-0.148,0.079,-1.3666393159108379,-7.007281706379708,-6.297529784780938
1621786499396.838,0.215,-0.173,0.072,-1.342185489184144,-7.104477929065554,-6.303411084879763
1621786499402.339,0.213,-0.187,0.068,-1.3177522647414077,-7.20159226419238,-6.309287429998903
1621786499407.687,0.20132926341961552,-0.19186280690849356,0.068,-1.294,-7.296,-6.315
1621786499407.838,0.201,-0.192,0.068,-1.2920726849349247,-7.298604016799035,-6.316344837623187
1621786499413.335,0.195,-0.202,0.063,-1.2218535490041167,-7.393477871567772,-6.365342190250462
1621786499418.764,0.19,-0.206,0.07,-1.1525045116221049,-7.487176126519467,-6.4137324074459094
1621786499424.19,0.188,-0.195,0.07,-1.0831928978335896,-7.580823818038172,-6.4620965112894515
1621786499425.301,0.1892295015534243,-0.19540983385114144,0.07184425233013644,-1.069,-7.6,-6.472
1621786499429.612,0.194,-0.197,0.079,-1.0111388234309857,-7.6386561903035535,-6.498591519444483
1621786499435.029,0.201,-0.183,0.086,-0.9384338859684593,-7.687229276182774,-6.532004852405985
1621786499440.442,0.202,-0.178,0.098,-0.8657846535688888,-7.735765146339083,-6.565392584742809
1621786499442.81,0.20156219534211953,-0.17975121863152194,0.10412926521032678,-0.834,-7.757,-6.58
1621786499445.851,0.201,-0.182,0.112,-0.787857638112279,-7.757,-6.56815969581749
1621786499451.256,0.199,-0.173,0.129,-0.705845294676806,-7.757,-6.5471150190114065
1621786499456.657,0.195,-0.169,0.155,-0.623895926526504,-7.757,-6.5260865019011405
1621786499460.275,0.1903057742782152,-0.17168241469816273,0.17176509186351704,-0.569,-7.757,-6.512
1621786499462.052,0.188,-0.173,0.18,-0.5609413512339364,-7.7249694213602025,-6.533013691719102
1621786499467.445,0.173,-0.175,0.209,-0.5364853062768894,-7.627764381910674,-6.596785150721022
1621786499472.834,0.159,-0.164,0.232,-0.5120480821783426,-7.5306341494177165,-6.660507532547612
1621786499477.696,0.146357275654106,-0.170321362172947,0.2554793452138031,-0.49,-7.443,-6.718
1621786499478.218,0.145,-0.171,0.258,-0.4923727523038885,-7.4265108732299385,-6.7335880815913685
1621786499483.598,0.124,-0.171,0.286,-0.5168283041132838,-7.256560266351989,-6.894251770060688
1621786499488.974,0.103,-0.182,0.307,-0.5412672089233536,-7.086725345583277,-7.054806094066082
1621786499494.346,0.072,-0.19,0.321,-0.5656861373342323,-6.917029248145651,-7.2152291807147675
1621786499495.075,0.06928397307622339,-0.19067900673094415,0.32385182826996545,-0.569,-6.894,-7.237
1621786499499.714,0.052,-0.195,0.342,-0.6160949262811034,-6.8573408812470955,-7.268575007393013
1621786499505.078,0.035,-0.201,0.358,-0.6705458014729697,-6.814955824989791,-7.3050818441693774
1621786499510.438,0.035,-0.206,0.375,-0.7249595003731711,-6.772599707095884,-7.341563755932013
1621786499512.412,0.03241944013859761,-0.20415674295614114,0.3790551654964895,-0.745,-6.757,-7.355
1621786499515.793,0.028,-0.201,0.386,-0.7489103179533518,-6.808811712881911,-7.285982888123342
1621786499521.145,0.024,-0.197,0.403,-0.7551005252160162,-6.890831959112216,-7.176725729937313
1621786499526.491,0.014,-0.199,0.426,-0.7612836731236234,-6.9727586688880105,-7.067593169368046
1621786499529.704,0.011594956370779844,-0.1959936954634748,0.4386264790534058,-0.765,-7.022,-7.002
1621786499531.835,0.01,-0.194,0.447,-0.7952665213514317,-7.00618728680415,-7.002
1621786499537.173,0.014,-0.19,0.466,-0.871088873476667,-6.966573976306068,-7.002
1621786499542.508,0.03,-0.182,0.475,-0.9468661448528684,-6.926984218199318,-7.002
1621786499546.953,0.048346937840685264,-0.1628191104392836,0.4816716137602492,-1.01,-6.894,-7.002
1621786499547.838,0.052,-0.159,0.483,-1.0160694420795733,-6.87332274816959,-6.989398192292412
1621786499553.165,0.072,-0.138,0.478,-1.0526032975764799,-6.748859952324196,-6.913544000794596
1621786499558.488,0.103,-0.113,0.478,-1.0891086894829445,-6.624494125659799,-6.8377489074294795
1621786499563.806,0.119,-0.091,0.483,-1.1255789204835687,-6.500248084454283,-6.762026817640048
1621786499564.159,0.11946501584968071,-0.08947209077962053,0.482800707492994,-1.128,-6.492,-6.757
1621786499569.12,0.126,-0.068,0.48,-1.1647107681365576,-6.40123479374111,-6.612469416785206
1621786499574.43,0.133,-0.054,0.485,-1.204001280227596,-6.304091322901849,-6.457782361308677
1621786499579.736,0.134,-0.024,0.482,-1.243264694167852,-6.207014850640114,-6.303201991465149
1621786499581.322,0.12951319242989365,-0.023102638485978728,0.47930791545793616,-1.255,-6.178,-6.257
1621786499585.038,0.119,-0.021,0.473,-1.2633714426738119,-6.17392160485122,-6.158045254548019
1621786499590.336,0.094,-0.019,0.475,-1.275306289662953,-6.168107192215484,-6.016969242702016
1621786499595.754,0.084,-0.01,0.471,-1.287511733182908,-6.162160950500635,-5.872694641094345
1621786499598.634,0.0707031109107304,-0.0009581154192966623,0.47206375112714155,-1.294,-6.159,-5.796
1621786499601.169,0.059,0.007,0.473,-1.3167522575962707,-6.156101623236144,-5.763248342568426
1621786499606.581,0.037,0.019,0.459,-1.3653289739975156,-6.149913506497132,-5.693322623417589
1621786499611.992,0.024,0.037,0.454,-1.4138947339037224,-6.143726785489972,-5.62341267603668
1621786499616.126,0.005653559658706155,0.049995395241749806,0.4417690397724708,-1.451,-6.139,-5.57
1621786499617.4,0.0,0.054,0.438,-1.4410092798345284,-6.1476051458359535,-5.57
1621786499622.806,-0.017,0.075,0.426,-1.3986128603971881,-6.1841217698768745,-5.57
1621786499628.209,-0.035,0.087,0.408,-1.3562394169356982,-6.22061860439115,-5.57
1621786499633.595,-0.06291648212590953,0.09397912053147738,0.4000238622497402,-1.314,-6.257,-5.57
1621786499633.611,-0.063,0.094,0.4,-1.3138457318011953,-6.25723555922572,-5.570263272075804
1621786499639.009,-0.084,0.113,0.384,-1.262165885201618,-6.336147899841841,-5.658459417470293
1621786499644.406,-0.087,0.133,0.379,-1.210495388189847,-6.415045964141251,-5.746639606981399
1621786499649.8,-0.093,0.162,0.36,-1.158852939941495,-6.493901199490531,-5.834771928842359
1621786499651.038,-0.0900144920972782,0.16567447126488838,0.35632552873511164,-1.147,-6.512,-5.855
1621786499655.191,-0.08,0.178,0.344,-1.0511542386185244,-6.561114992150706,-5.9017307692307694
1621786499660.581,-0.065,0.197,0.326,-0.9267519623233909,-6.624863422291994,-5.962384615384615
1621786499665.967,-0.045,0.229,0.309,-0.8024454754429244,-6.688562766315317,-6.0229917582417585
1621786499668.456,-0.03621638779304403,0.24101967986215028,0.30345245544823835,-0.745,-6.718,-6.051
1621786499671.351,-0.026,0.255,0.297,-0.6749259144886444,-6.730982847196878,-6.037850706044187
1621786499676.733,-0.002,0.291,0.288,-0.5446583195306139,-6.75511793604896,-6.013406192976054
1621786499682.112,0.017,0.323,0.276,-0.4144557283624828,-6.779240981443531,-5.988973877768732
1621786499685.849,0.030897766479026693,0.337592654802978,0.269746005084438,-0.324,-6.796,-5.972
1621786499687.49,0.037,0.344,0.267,-0.324,-6.779278509480905,-5.972
1621786499692.865,0.056,0.38,0.262,-0.324,-6.724503872482184,-5.972
1621786499698.237,0.063,0.412,0.25,-0.324,-6.669759090845199,-5.972
1621786499703.218,0.08247906342350535,0.4379720845646738,0.23979668106387814,-0.324,-6.619,-5.972
1621786499703.607,0.084,0.44,0.239,-0.3303686811098442,-6.61812542759407,-5.97287457240593
1621786499708.975,0.089,0.459,0.22,-0.4182748708419556,-6.606053802947759,-5.984946197052241
1621786499714.341,0.099,0.48,0.204,-0.5061450793248589,-6.593987119388488,-5.997012880611512
1621786499719.703,0.101,0.511,0.188,-0.5939473232259245,-6.581929768993623,-6.009070231006377
1621786499720.561,0.10067985791702719,0.5127607814563505,0.18703957375108157,-0.608,-6.58,-6.011
1621786499725.064,0.099,0.522,0.182,-0.6922405480842426,-6.58,-6.041680199610928
1621786499730.422,0.098,0.529,0.162,-0.7924805886830754,-6.58,-6.078187374890749
1621786499735.778,0.101,0.541,0.152,-0.8926795229637148,-6.58,-6.114679579350982
1621786499737.88,0.09982229822161423,0.541,0.14454122207022344,-0.932,-6.58,-6.129
1621786499741.132,0.098,0.541,0.133,-0.9891676383810721,-6.58,-6.145548526899783
1621786499746.483,0.098,0.541,0.113,-1.0832253765687423,-6.58,-6.172775766901478
1621786499751.832,0.098,0.541,0.094,-1.1772530739585245,-6.58,-6.1999943108827305
1621786499755.174,0.0967494632987713,0.5334967797926278,0.08462097474078473,-1.236,-6.58,-6.217
1621786499757.177,0.096,0.529,0.079,-1.2381978511604297,-6.569820478835904,-6.232963340007331
1621786499762.521,0.093,0.522,0.058,-1.2440619130876174,-6.542660613067877,-6.2755549476890105
1621786499767.887,0.087,0.518,0.037,-1.2499500860099828,-6.515389075322185,-6.318321677335665
1621786499772.489,0.07842207053469852,0.5051331058020477,0.015555176336746301,-1.255,-6.492,-6.355
1621786499773.252,0.077,0.503,0.012,-1.2537229260318756,-6.492880740667672,-6.363190888209349
1621786499778.615,0.061,0.496,0.003,-1.2447458111973844,-6.4990718543466315,-6.420768245423672
1621786499783.975,0.049,0.482,-0.01,-1.2357736003269308,-6.505259585981427,-6.478314149627271
1621786499789.333,0.049,0.463,-0.024,-1.2268050674295055,-6.5114447810830995,-6.535836464072827
1621786499789.814,0.049,0.4601264472604613,-0.025257179323548182,-1.226,-6.512,-6.541
1621786499794.689,0.049,0.431,-0.038,-1.2451585512113217,-6.517353124603163,-6.618479435045787
1621786499800.044,0.045,0.403,-0.052,-1.2662034060925882,-6.523233304643517,-6.703587304050908
1621786499805.396,0.042,0.374,-0.061,-1.2872367474214441,-6.529110267661873,-6.788648610895545
1621786499807.117,0.03749584664536741,0.3627396166134185,-0.06325207667731629,-1.294,-6.531,-6.816
1621786499810.745,0.028,0.339,-0.068,-1.2509550688802544,-6.545488293889084,-6.9004100600494525
1621786499816.093,0.016,0.305,-0.068,-1.1875071706110916,-6.566843927940656,-7.024829841045567
1621786499821.438,-0.005,0.257,-0.065,-1.1240940303779583,-6.588187862945955,-7.149181462380784
1621786499824.396,-0.01883800082233085,0.23818031888163005,-0.05503663940792179,-1.089,-6.6,-7.218
1621786499826.782,-0.03,0.223,-0.047,-1.0469709431453267,-6.610783771166659,-7.273577897551245
1621786499832.123,-0.065,0.173,-0.03,-0.9528882994525315,-6.634923396850995,-7.397989814539745
1621786499837.462,-0.103,0.12,-0.016,-0.8588443605087072,-6.6590530917115816,-7.52235054959046
1621786499841.654,-0.1265638808837656,0.07522862632084534,-0.005788984950368234,-0.785,-6.678,-7.62
1621786499842.799,-0.133,0.063,-0.003,-0.7869265418283804,-6.678,-7.633685090229185
1621786499848.134,-0.157,0.002,0.003,-0.7959028301085016,-6.678,-7.697447689736253
1621786499853.467,-0.164,-0.056,0.007,-0.8048758321765489,-6.678,-7.76118694580583
1621786499858.798,-0.162,-0.098,0.009,-0.8138455480325221,-6.678,-7.824902858437916
1621786499858.89,-0.16162101983781554,-0.09856847024327668,0.00908613185504192,-0.814,-6.678,-7.826
1621786499864.127,-0.14,-0.131,0.014,-0.7333788736189706,-6.713899218539478,-7.849729991915925
1621786499869.453,-0.108,-0.145,0.019,-0.6513896949325618,-6.750407607539463,-7.873862655831171
1621786499874.778,-0.063,-0.155,0.028,-0.5694117914025161,-6.786910975903786,-7.897992001021146
1621786499876.104,-0.05153956603513923,-0.15375430065599338,0.028498279737602644,-0.549,-6.796,-7.904
1621786499880.1,-0.017,-0.15,0.03,-0.47835512174345146,-6.725355121743451,-7.847065805352453
1621786499885.421,0.026,-0.145,0.026,-0.3842914318165685,-6.631291431816568,-7.771257897352169
1621786499890.739,0.066,-0.124,0.019,-0.2902752182863633,-6.537275218286363,-7.69548825157947
1621786499893.3,0.08189831909616975,-0.11484642233856893,0.018036465509323047,-0.245,-6.492,-7.659
1621786499896.055,0.099,-0.105,0.017,-0.16013738982087006,-6.460557520614159,-7.5362780779073075
1621786499901.369,0.12,-0.082,0.012,0.003556297981233969,-6.399907307364231,-7.299556582314472
1621786499906.681,0.141,-0.052,0.014,0.16718982087005968,-6.339279385840205,-7.062922092692636
1621786499910.473,0.15242794077071645,-0.028429872160397312,0.020428216683528004,0.284,-6.296,-6.894
1621786499911.99,0.157,-0.019,0.023,0.32478205657503234,-6.2855612089460875,-6.821105391284541
1621786499917.298,0.164,0.017,0.028,0.4674733140668821,-6.249037199436243,-6.566056375724272
1621786499922.604,0.162,0.059,0.031,0.6101055051748929,-6.212528308870635,-6.311112936520365
1621786499927.622,0.15064472169789603,0.09117328852262788,0.03951645872657797,0.745,-6.178,-6.07
1621786499927.907,0.15,0.093,0.04,0.7494517619623424,-6.178991147002937,-6.061600449127656
1621786499933.208,0.124,0.122,0.051,0.8322804744630621,-6.197432256578568,-5.905319859503656
1621786499938.43,0.086,0.162,0.066,0.9138732222030287,-6.215598189094259,-5.7513712788622104
1621786499943.65,0.054,0.192,0.073,0.9954354522945816,-6.233757327114643,-5.597480278689469
1621786499944.582,0.04721053863072675,0.1973601010810052,0.07746675090083766,1.01,-6.237,-5.57
1621786499948.867,0.016,0.222,0.098,0.9799926394946172,-6.27183905414608,-5.612468044105076
1621786499954.081,-0.03,0.246,0.115,0.943478070620282,-6.314233087500181,-5.664145442427229
1621786499959.292,-0.065,0.267,0.129,0.9069857281539331,-6.356601315617891,-5.715791384731299
1621786499961.432,-0.0785592068254266,0.27151973560847553,0.13351973560847555,0.892,-6.374,-5.737
1621786499964.5,-0.098,0.278,0.14,0.8115533959443179,-6.408112278817262,-5.871077673426137
1621786499969.705,-0.12,0.291,0.152,0.6750751912441393,-6.465983989200331,-6.098541347926435
1621786499974.907,-0.126,0.295,0.161,0.5386802049614609,-6.523820411955118,-6.325866325064232
1621786499978.251,-0.1311456210378023,0.2917839868513735,0.16871843155670344,0.451,-6.561,-6.472
1621786499980.106,-0.134,0.29,0.173,0.39795986038394415,-6.58265805700989,-6.54139418266434
1621786499985.302,-0.133,0.295,0.176,0.24938743455497384,-6.6433251308900525,-6.735776439790576
1621786499990.495,-0.115,0.293,0.168,0.10089877835951133,-6.7039579988365325,-6.930049098312972
1621786499995.038,-0.09836852008655565,0.28512193056731583,0.16449863580769594,-0.029,-6.757,-7.1
1621786499995.685,-0.096,0.284,0.164,-0.040391123156729034,-6.762290114821938,-7.10984656408463
1621786500000.872,-0.079,0.283,0.166,-0.13171784111441395,-6.804702861805676,-7.188789998251442
1621786500006.056,-0.056,0.281,0.15,-0.22298867809057527,-6.8470896572827415,-7.267685128518972
1621786500011.237,-0.035,0.258,0.145,-0.3142122311592936,-6.889454493792622,-7.346539386256339
1621786500011.793,-0.03199391767645811,0.2563895987552454,0.14371167900419632,-0.324,-6.894,-7.355
1621786500016.415,-0.007,0.243,0.133,-0.3861763246241425,-6.861391971974895,-7.344222770398482
1621786500021.59,0.026,0.232,0.119,-0.455791344329295,-6.8248827616406365,-7.332156166982922
1621786500026.762,0.056,0.213,0.105,-0.5253636695372939,-6.788395942198219,-7.320096963946869
1621786500028.519,0.06381839221613451,0.20824097865104854,0.09854132816928017,-0.549,-6.776,-7.316
1621786500031.931,0.079,0.199,0.086,-0.5691108663729809,-6.713615271659324,-7.259566446402349
1621786500037.096,0.093,0.175,0.068,-0.5995556240822321,-6.619174390602056,-7.174134728340675
1621786500042.215,0.091,0.154,0.047,-0.629729838472834,-6.525572745961821,-7.089462187958884
1621786500045.145,0.09271778233694355,0.14598368242759674,0.0378384942029677,-0.647,-6.472,-7.041
1621786500047.332,0.094,0.14,0.031,-0.6418363534245766,-6.435722072777795,-7.008561707410801
1621786500052.444,0.094,0.12,0.01,-0.6297665168937894,-6.350923734074315,-6.93273837535842
1621786500057.553,0.079,0.089,-0.002,-0.6177041739336072,-6.266178042507907,-6.856962118300866
1621786500061.663,0.07014540499187148,0.06807095725351439,-0.01890422683369991,-0.608,-6.198,-6.796
1621786500062.659,0.068,0.063,-0.023,-0.6056437331516427,-6.192683295316527,-6.792435391178127
1621786500067.761,0.047,0.051,-0.033,-0.5935718369523357,-6.165444144918092,-6.774172778979175
1621786500072.86,0.033,0.028,-0.052,-0.5815068726486358,-6.138220635719999,-6.7559206534940905
1621786500077.955,0.01,0.0,-0.063,-0.5694517285303788,-6.1110192848890605,-6.737683384186983
1621786500078.146,0.009250131850218153,-0.0006373879273145707,-0.06363738792731458,-0.569,-6.11,-6.737
1621786500083.047,-0.01,-0.017,-0.08,-0.5222148529695548,-6.136223521902416,-6.789745038371903
1621786500088.135,-0.024,-0.037,-0.089,-0.47364685973844756,-6.163446346133864,-6.844500037110158
1621786500093.219,-0.035,-0.047,-0.105,-0.42511615479389014,-6.190648269924444,-6.899212997461665
1621786500094.593,-0.03581110684089162,-0.05186664104534973,-0.10824442736356649,-0.412,-6.198,-6.914
1621786500098.301,-0.038,-0.065,-0.117,-0.36091750874321005,-6.237781055138031,-6.951520767914279
1621786500103.378,-0.038,-0.068,-0.131,-0.29097673934072477,-6.292248202991294,-7.002893191457698
1621786500108.453,-0.033,-0.089,-0.141,-0.2210628767021356,-6.346694396904532,-7.054245851625865
1621786500110.998,-0.028482014734915975,-0.09100799345114846,-0.14300799345114845,-0.186,-6.374,-7.08
1621786500113.523,-0.024,-0.093,-0.145,-0.14374621257306452,-6.389112668495765,-7.107295329834188
1621786500118.591,-0.017,-0.098,-0.154,-0.05893221400453297,-6.41944760229035,-7.162083934748896
1621786500123.654,-0.007,-0.103,-0.155,0.025795985923893622,-6.449751848980079,-7.216817114994631
1621786500127.371,-0.00185790794171572,-0.11034584579754897,-0.1594075074785294,0.088,-6.472,-7.257
1621786500128.714,0.0,-0.113,-0.161,0.10576665320952765,-6.473645060482364,-7.258645060482364
1621786500133.771,0.01,-0.124,-0.162,0.17266370609608395,-6.479839232045934,-7.264839232045934
1621786500138.824,0.019,-0.131,-0.169,0.23950908356883327,-6.486028618848966,-7.271028618848966
1621786500143.699,0.03447307245253778,-0.12906586594343278,-0.16223053080201472,0.304,-6.492,-7.277
1621786500143.865,0.035,-0.129,-0.162,0.3051018754688672,-6.492703975993998,-7.275989947486872
1621786500148.903,0.038,-0.129,-0.162,0.33854055513878467,-6.514067576894224,-7.245337824456114
1621786500153.938,0.049,-0.14,-0.159,0.3719581695423856,-6.535417719429858,-7.214705011252813
1621786500158.969,0.061,-0.14,-0.157,0.4053498574643661,-6.556751297824456,-7.184095963990997
1621786500159.971,0.06418896605313,-0.1392027584867175,-0.15600344810839686,0.412,-6.561,-7.178
1621786500163.996,0.077,-0.136,-0.152,0.4362984585307166,-6.5753807203549135,-7.168330205278592
1621786500169.019,0.087,-0.134,-0.145,0.4666203173170915,-6.593326310248891,-7.156263343108504
1621786500174.039,0.106,-0.119,-0.143,0.49692449056320026,-6.6112614331904656,-7.144203519061584
1621786500176.205,0.10902282793867121,-0.12029549768800195,-0.143,0.51,-6.619,-7.139
1621786500179.055,0.113,-0.122,-0.143,0.51,-6.605275959784755,-7.125275959784755
1621786500184.068,0.129,-0.115,-0.143,0.51,-6.5811339704264205,-7.10113397042642
1621786500189.077,0.154,-0.106,-0.141,0.51,-6.557013143813213,-7.077013143813213
1621786500192.402,0.16330100970684358,-0.10134949514657822,-0.1403356421637969,0.51,-6.541,-7.061
1621786500194.082,0.168,-0.099,-0.14,0.5242420721850403,-6.543079134625554,-7.02939715369159
1621786500199.084,0.176,-0.091,-0.141,0.5666474747322143,-6.549269704340469,-6.935300494024867
1621786500204.083,0.188,-0.075,-0.136,0.60902804006587,-6.555456648184799,-6.841258947591062
1621786500208.562,0.1996596431190418,-0.07230931312637497,-0.13151552187729162,0.647,-6.561,-6.757
1621786500209.077,0.201,-0.072,-0.131,0.648884176256814,-6.561606768625076,-6.7466529981829195
1621786500214.068,0.206,-0.052,-0.131,0.6671488037552998,-6.567488597819503,-6.646352331920048
1621786500219.055,0.209,-0.042,-0.126,0.685397350090854,-6.573365248334343,-6.546139975772259
1621786500224.039,0.208,-0.037,-0.115,0.7036360690490612,-6.579238734100545,-6.44598158691702
1621786500224.685,0.20709196980096087,-0.03466506520247083,-0.11409196980096088,0.706,-6.58,-6.433
1621786500229.019,0.201,-0.019,-0.108,0.7456177810165786,-6.550893058844963,-6.374786117689925
1621786500233.995,0.187,-0.012,-0.099,0.7911050282382948,-6.517473856804519,-6.307947713609036
1621786500238.968,0.166,0.01,-0.091,0.8365632628894152,-6.4840759701220625,-6.241151940244125
1621786500240.766,0.15769062101442166,0.014696605513587757,-0.0866646718336113,0.853,-6.472,-6.217
1621786500243.945,0.143,0.023,-0.079,0.8569531847713886,-6.460535764162973,-6.176282196854697
1621786500248.923,0.115,0.021,-0.072,0.8631436031331593,-6.442583550913838,-6.11252088772846
1621786500253.897,0.089,0.028,-0.058,0.8693288602829559,-6.424646305179428,-6.048812739085554
1621786500256.849,0.07118358626786503,0.03334492411964049,-0.054436717253573005,0.873,-6.414,-6.011
1621786500258.868,0.059,0.037,-0.052,0.8594129138266796,-6.416390320715676,-6.016032254138267
1621786500263.835,0.035,0.049,-0.04,0.8259833252190847,-6.42227145204479,-6.028413583252191
1621786500268.799,0.005,0.059,-0.038,0.7925734542356377,-6.428149114532619,-6.040787609542357
1621786500272.896,-0.009041986611537704,0.07221598739909431,-0.029740007875566056,0.765,-6.433,-6.051
1621786500273.759,-0.012,0.075,-0.028,0.7576148649679003,-6.4361804596123635,-6.059948411790719
1621786500278.715,-0.031,0.087,-0.024,0.7152051786449517,-6.454444485109108,-6.111335330984949
1621786500283.668,-0.044,0.094,-0.021,0.6728226512344267,-6.472696814431889,-6.162689342299892
1621786500288.618,-0.063,0.091,-0.021,0.6304651935892157,-6.490938347286396,-6.214012977110877
1621786500288.906,-0.06329122858976258,0.091,-0.020708771410237428,0.628,-6.492,-6.217
1621786500293.564,-0.068,0.091,-0.016,0.5877520216457496,-6.492,-6.268622407019582
1621786500298.506,-0.077,0.099,-0.016,0.5450485347845362,-6.492,-6.323394270602443
1621786500303.445,-0.082,0.099,-0.012,0.5023724719874039,-6.492,-6.378130959842243
1621786500304.877,-0.08461143818334735,0.09551808242220354,-0.012580319596299412,0.49,-6.492,-6.394
1621786500308.38,-0.091,0.087,-0.014,0.47703030488739084,-6.487603493182166,-6.42411607170216
1621786500313.312,-0.094,0.094,-0.009,0.4587689597058373,-6.481413206679945,-6.466519534242377
1621786500318.24,-0.099,0.087,-0.016,0.44052298146162094,-6.475228129309024,-6.508887314233185
1621786500320.812,-0.1026556288107867,0.08908893074902097,-0.01391106925097903,0.431,-6.472,-6.531
1621786500323.165,-0.106,0.091,-0.012,0.433959982801511,-6.469188016338565,-6.541211940665213
1621786500328.085,-0.115,0.08,-0.012,0.440148981910875,-6.463308467184669,-6.562563987592518
1621786500333.003,-0.124,0.08,-0.007,0.4463355240932404,-6.457431252111422,-6.583907558121679
1621786500336.711,-0.13154570747217806,0.08,-0.008509141494435612,0.451,-6.453,-6.6
1621786500337.917,-0.134,0.08,-0.009,0.4539530509955396,-6.4574674361214575,-6.607420487116997
1621786500342.848,-0.138,0.08,0.0,0.4660264864119189,-6.47573237687957,-6.637758863291489
1621786500347.778,-0.145,0.086,0.0,0.47809812847749117,-6.493994604619794,-6.668092733097286
1621786500352.639,-0.14697402339877055,0.07909091810430299,0.006909081895697005,0.49,-6.512,-6.698
1621786500352.703,-0.147,0.079,0.007,0.49,-6.512197174013208,-6.698474827215482
1621786500357.625,-0.154,0.08,0.014,0.49,-6.527369789586853,-6.735012962678544
1621786500362.544,-0.152,0.084,0.016,0.49,-6.542532621717094,-6.771527538012594
1621786500367.459,-0.15,0.077,0.021,0.49,-6.557683412686223,-6.808013116264783
1621786500368.535,-0.1493428926441352,0.07590482107355864,0.02056192842942346,0.49,-6.561,-6.816
1621786500372.371,-0.147,0.072,0.019,0.485404353247233,-6.575028816403183,-6.830028816403183
1621786500377.28,-0.141,0.08,0.026,0.47952357495805303,-6.592980665917522,-6.847980665917522
1621786500382.185,-0.14,0.082,0.028,0.4736474762557148,-6.610918230377291,-6.865918230377291
1621786500384.395,-0.13594161602072333,0.08109813689349407,0.02935279465975889,0.471,-6.619,-6.874
1621786500387.086,-0.131,0.08,0.031,0.46759914531233127,-6.615769188046714,-6.860736666718092
1621786500391.984,-0.131,0.08,0.035,0.4614089850198244,-6.609888535768833,-6.836595041577315
1621786500396.879,-0.124,0.072,0.037,0.45522252734537716,-6.604011400978108,-6.812467856646971
1621786500400.22,-0.124,0.07268295239045812,0.03768295239045813,0.451,-6.6,-6.796
1621786500401.771,-0.124,0.073,0.038,0.451,-6.5961686305436995,-6.788337261087401
1621786500406.659,-0.129,0.075,0.044,0.451,-6.584094358879198,-6.764188717758397
1621786500411.543,-0.131,0.073,0.045,0.451,-6.572029736500278,-6.7400594730005565
1621786500416.008,-0.12917082562384358,0.07665834875231285,0.05048752312846927,0.451,-6.561,-6.718
1621786500416.425,-0.129,0.077,0.051,0.4499675119350239,-6.561,-6.715908549817099
1621786500421.302,-0.133,0.075,0.051,0.43789199578399157,-6.561,-6.691447888895778
1621786500426.177,-0.133,0.075,0.049,0.42582131564263126,-6.561,-6.666997023994048
1621786500431.048,-0.138,0.068,0.056,0.41376030752061504,-6.561,-6.642565751131502
1621786500431.759,-0.13902252320040132,0.06829214948582894,0.056,0.412,-6.561,-6.639
1621786500435.915,-0.145,0.07,0.056,0.4093679572020533,-6.571264966911992,-6.644264085595894
1621786500440.81,-0.148,0.068,0.058,0.40626788917063517,-6.583355232234522,-6.65046422165873
1621786500445.701,-0.148,0.07,0.059,0.4031704496258272,-6.595435246459274,-6.656659100748345
1621786500447.549,-0.14762191589251822,0.06848766357007292,0.059,0.402,-6.6,-6.659
1621786500450.589,-0.147,0.066,0.059,0.3981466811078447,-6.611367290731858,-6.666513971839703
1621786500455.474,-0.14,0.068,0.063,0.3919548197431533,-6.629633281757697,-6.678588101500851
1621786500460.355,-0.133,0.07,0.061,0.38576821909330034,-6.647883753674764,-6.690651972768064
1621786500463.328,-0.12934397518014412,0.0669533126501201,0.06404668734987991,0.382,-6.659,-6.698
1621786500465.234,-0.127,0.065,0.066,0.382,-6.666140843978668,-6.698
1621786500470.109,-0.12,0.073,0.063,0.382,-6.684405013642564,-6.698
1621786500474.981,-0.115,0.063,0.063,0.382,-6.702658207242962,-6.698
1621786500479.076,-0.10658615500376223,0.063,0.063,0.382,-6.718,-6.698
1621786500479.848,-0.105,0.063,0.063,0.382,-6.718,-6.697017539498828
1621786500484.714,-0.099,0.063,0.063,0.382,-6.718,-6.69082449626373
1621786500489.576,-0.093,0.068,0.065,0.382,-6.718,-6.684637045782908
1621786500494.435,-0.086,0.066,0.059,0.382,-6.718,-6.678453013096366
1621786500494.791,-0.0854868778280543,0.06643981900452489,0.05929321266968326,0.382,-6.718,-6.678
1621786500499.291,-0.079,0.072,0.063,0.382,-6.706522681278994,-6.661070954886515
1621786500504.144,-0.08,0.066,0.061,0.382,-6.694144960926554,-6.642813817366668
1621786500508.993,-0.075,0.066,0.063,0.382,-6.681777826208786,-6.624572293657959
1621786500510.474,-0.07408307304785894,0.06661128463476071,0.06086050377833753,0.382,-6.678,-6.619
1621786500513.839,-0.072,0.068,0.056,0.3863006022028769,-6.678,-6.60222765140878
1621786500518.682,-0.068,0.068,0.059,0.3924898748790914,-6.678,-6.5780894879715435
1621786500523.522,-0.068,0.068,0.058,0.39867571531093016,-6.678,-6.553964710287373
1621786500526.123,-0.07068931744749596,0.07068931744749596,0.06068931744749596,0.402,-6.678,-6.541
1621786500528.358,-0.073,0.073,0.063,0.3991375412373552,-6.675280664175487,-6.539568770618678
1621786500533.192,-0.072,0.077,0.059,0.3929460748291875,-6.669398771087728,-6.536473037414594
1621786500538.022,-0.072,0.077,0.058,0.38675961162619804,-6.663521631044888,-6.533379805813099
1621786500541.738,-0.072,0.07391991703343957,0.0587700207416401,0.382,-6.659,-6.531
1621786500542.848,-0.072,0.073,0.059,0.3806465998119712,-6.659,-6.534490347853337
1621786500547.672,-0.072,0.072,0.058,0.37476380445001567,-6.659,-6.5496617674710125
1621786500552.492,-0.073,0.065,0.056,0.36888636790974616,-6.659,-6.564819366969602
1621786500557.31,-0.073,0.068,0.054,0.36301101535568786,-6.659,-6.579971591977436
1621786500557.319,-0.073,0.06799624708388276,0.05399061770970687,0.363,-6.659,-6.58
1621786500562.124,-0.073,0.066,0.049,0.363,-6.659,-6.5982334495320645
1621786500566.934,-0.07,0.065,0.056,0.363,-6.659,-6.616486354500346
1621786500571.742,-0.072,0.056,0.051,0.363,-6.659,-6.634730921424534
1621786500572.867,-0.07106327184021954,0.055063271840219544,0.05170254611983534,0.363,-6.659,-6.639
1621786500576.546,-0.068,0.052,0.054,0.363,-6.663506492688839,-6.657737522232541
1621786500581.347,-0.063,0.051,0.054,0.363,-6.6693874521902,-6.682189932790833
1621786500586.145,-0.056,0.051,0.044,0.363,-6.675264823005367,-6.706627421969685
1621786500588.378,-0.05413727087576375,0.048205906313645616,0.044,0.363,-6.678,-6.718
1621786500590.94,-0.052,0.045,0.044,0.36614479038516135,-6.6715449039462476,-6.714689694331409
1621786500595.731,-0.044,0.042,0.042,0.37202561433393266,-6.65947373899877,-6.708499353332702
1621786500600.519,-0.04,0.047,0.044,0.37790284218163467,-6.647409955521908,-6.702312797703542
1621786500603.857,-0.03372172049594367,0.03514102760344916,0.039814480330629114,0.382,-6.639,-6.698
1621786500605.304,-0.031,0.03,0.038,0.3838736466088166,-6.635346389112808,-6.694346389112808
1621786500610.086,-0.031,0.035,0.042,0.39006550018176933,-6.62327227464555,-6.68227227464555
1621786500614.865,-0.03,0.037,0.044,0.39625356030790143,-6.611205557399592,-6.670205557399592
1621786500619.303,-0.03,0.03142335617138767,0.04492944063810205,0.402,-6.6,-6.659
1621786500619.64,-0.03,0.031,0.045,0.4026339099030603,-6.599147500475194,-6.657710321231705
1621786500624.411,-0.031,0.031,0.042,0.41161062535639614,-6.587075365900019,-6.639447348412849
1621786500629.18,-0.031,0.03,0.044,0.42058366596971425,-6.5750081733510735,-6.62119185199265
1621786500633.945,-0.033,0.03,0.047,0.4295493569029969,-6.5629508648545904,-6.602951308369764
1621786500634.716,-0.034456567416594065,0.029028955055603954,0.04651447752780198,0.431,-6.561,-6.6
1621786500638.709,-0.042,0.024,0.044,0.431,-6.561,-6.6049334000127
1621786500643.467,-0.044,0.031,0.047,0.431,-6.561,-6.6108121546961325
1621786500648.223,-0.042,0.033,0.049,0.431,-6.561,-6.616688194576745
1621786500650.094,-0.04318095433766501,0.031819045662335,0.04821269710822333,0.431,-6.561,-6.619
1621786500652.976,-0.045,0.03,0.047,0.431,-6.564569019015037,-6.622756862121092
1621786500657.725,-0.045,0.031,0.052,0.431,-6.570449964197629,-6.628947330734347
1621786500662.472,-0.044,0.044,0.049,0.431,-6.576328188400032,-6.635134935157929
1621786500665.437,-0.0446251286802553,0.03712358451719168,0.0502502573605106,0.431,-6.58,-6.639
1621786500667.215,-0.045,0.033,0.051,0.4287933822356881,-6.577793382235688,-6.645852128847074
1621786500671.955,-0.042,0.038,0.049,0.42291098708339975,-6.5719109870834,-6.664118513793654
1621786500676.691,-0.037,0.037,0.049,0.4170337426247807,-6.56603374262478,-6.682368904480945
1621786500680.747,-0.037,0.03957036769635398,0.049,0.412,-6.561,-6.698
1621786500681.425,-0.037,0.04,0.049,0.412,-6.560112354163337,-6.6971123541633375
1621786500686.155,-0.033,0.037,0.047,0.412,-6.5539196100367585,-6.690919610036759
1621786500690.882,-0.03,0.037,0.049,0.412,-6.547730701614192,-6.684730701614193
1621786500695.606,-0.037,0.037,0.04,0.412,-6.541545948537638,-6.6785459485376375
1621786500696.023,-0.036469921895205086,0.03761842445559406,0.04035338540319661,0.412,-6.541,-6.678
1621786500700.326,-0.031,0.044,0.044,0.412,-6.5328129615095065,-6.661343611346927
1621786500705.043,-0.033,0.044,0.042,0.412,-6.523838109272637,-6.643084429209847
1621786500709.758,-0.035,0.04,0.04,0.412,-6.514866973138345,-6.6248328074193905
1621786500711.265,-0.03723901326699834,0.0384007048092869,0.04,0.412,-6.512,-6.619
1621786500714.469,-0.042,0.035,0.04,0.4160021828103683,-6.5035743519781715,-6.614997817189631
1621786500719.176,-0.04,0.035,0.038,0.42188164673782197,-6.491196533183532,-6.609118353262177
1621786500723.881,-0.052,0.037,0.044,0.4277586710536875,-6.478823850413289,-6.6032413289463125
1621786500726.476,-0.05586408725006491,0.03589597507141003,0.04289597507141003,0.431,-6.472,-6.6
1621786500728.582,-0.059,0.035,0.042,0.431,-6.466588021428227,-6.6108239571435465
1621786500733.28,-0.063,0.04,0.042,0.431,-6.454514904843873,-6.634970190312253
1621786500737.975,-0.061,0.033,0.037,0.431,-6.442449317095928,-6.6591013658081435
1621786500741.652,-0.06648698865410638,0.03613542208806079,0.032296866867908815,0.431,-6.433,-6.678
1621786500742.666,-0.068,0.037,0.031,0.4349498823225973,-6.434338943160203,-6.6832888254828
1621786500747.355,-0.07,0.031,0.035,0.4532165425411871,-6.440531031369894,-6.707747573911081
1621786500752.04,-0.072,0.037,0.03,0.47146798529838474,-6.446717961118097,-6.732185946416481
1621786500756.722,-0.079,0.031,0.028,0.4897070638682013,-6.45290069961634,-6.75660776348454
1621786500756.797,-0.07888747977662962,0.031112520223370386,0.028,0.49,-6.453,-6.757
1621786500761.4,-0.072,0.038,0.028,0.4960936035424545,-6.453,-6.757
1621786500766.076,-0.072,0.038,0.023,0.5022841720805455,-6.453,-6.757
1621786500770.748,-0.075,0.042,0.023,0.5084695691522028,-6.453,-6.757
1621786500771.904,-0.07425721606358503,0.04026683748169839,0.02250481070905668,0.51,-6.453,-6.757
1621786500775.417,-0.072,0.035,0.021,0.5146609332231994,-6.448339066776801,-6.761427886562039
1621786500780.083,-0.063,0.031,0.024,0.5208517564744182,-6.4421482435255815,-6.767309168650697
1621786500784.746,-0.07,0.035,0.019,0.5270386926453201,-6.43596130735468,-6.773186758013054
1621786500786.978,-0.07,0.037395325682544674,0.019,0.53,-6.433,-6.776
1621786500789.405,-0.07,0.04,0.019,0.5330658193741072,-6.436227178288534,-6.7634140046747175
1621786500794.06,-0.068,0.031,0.019,0.538946110894689,-6.442416958836515,-6.739273860537593
1621786500798.714,-0.072,0.037,0.017,0.5448251688092456,-6.448605440851837,-6.715138780677834
1621786500802.019,-0.072,0.034156988344009244,0.019843011655990762,0.549,-6.453,-6.698
1621786500803.364,-0.072,0.033,0.021,0.549,-6.451207668407268,-6.701495046605827
1621786500808.009,-0.073,0.031,0.021,0.549,-6.44501763375791,-6.713565614172076
1621786500812.652,-0.073,0.028,0.021,0.549,-6.438830201877247,-6.725631106339368
1621786500817.027,-0.07677084538902625,0.03271355673628282,0.016286443263717188,0.549,-6.433,-6.737
1621786500817.293,-0.077,0.033,0.016,0.549,-6.433355041160649,-6.737355041160649
1621786500821.93,-0.079,0.031,0.017,0.549,-6.439547232863314,-6.743547232863314
1621786500826.563,-0.08,0.028,0.019,0.549,-6.445734208166925,-6.749734208166925
1621786500831.193,-0.08,0.035,0.012,0.549,-6.4519172711712445,-6.755917271171244
1621786500832.004,-0.08,0.03464960962228319,0.011474414433424774,0.549,-6.453,-6.757
1621786500835.821,-0.08,0.033,0.009,0.5640702488114882,-6.453,-6.766961689892339
1621786500840.444,-0.084,0.031,0.009,0.5823222623384686,-6.453,-6.779026580189835
1621786500845.065,-0.079,0.028,0.01,0.6005656009540769,-6.453,-6.791085736223882
1621786500846.948,-0.0802232501585959,0.03370850074011419,0.009592249947134701,0.608,-6.453,-6.796
1621786500849.683,-0.082,0.042,0.009,0.6151551839903051,-6.4458448160096955,-6.7888448160096955
1621786500854.297,-0.075,0.031,0.005,0.6272256849483321,-6.433774315051668,-6.776774315051668
1621786500858.908,-0.075,0.033,0.003,0.6392878830060758,-6.421712116993924,-6.764712116993924
1621786500861.856,-0.0762794701986755,0.026602649006622518,0.001080794701986755,0.647,-6.414,-6.757
1621786500863.516,-0.077,0.023,0.0,0.647,-6.409536007352458,-6.7526476071686465
1621786500868.12,-0.077,0.023,0.0,0.647,-6.397156305389615,-6.740577397754874
1621786500872.722,-0.084,0.026,-0.005,0.647,-6.384782511652333,-6.728512948861026
1621786500876.732,-0.08661627906976743,0.023383720930232558,-0.005,0.647,-6.374,-6.718
1621786500877.32,-0.087,0.023,-0.005,0.647,-6.373247100817528,-6.718
1621786500881.915,-0.094,0.031,-0.003,0.647,-6.3673648610859805,-6.718
1621786500886.507,-0.103,0.014,-0.005,0.647,-6.361486371786225,-6.718
1621786500891.095,-0.099,0.009,-0.005,0.647,-6.355613195598178,-6.718
1621786500891.574,-0.09962683706070288,0.008059744408945687,-0.005,0.647,-6.355,-6.718
1621786500895.68,-0.105,0.0,-0.005,0.647,-6.360267928385374,-6.723267928385374
1621786500900.262,-0.106,0.002,-0.007,0.647,-6.366146658313825,-6.729146658313825
1621786500904.841,-0.112,-0.002,-0.005,0.647,-6.37202162946355,-6.735021629463549
1621786500906.383,-0.11132604172224297,-0.0030109374166355438,-0.005673958277757029,0.647,-6.374,-6.737
1621786500909.417,-0.11,-0.005,-0.007,0.6591160888389463,-6.386116088838946,-6.741107148758965
1621786500913.99,-0.112,-0.003,-0.012,0.6773784578775159,-6.404378457877516,-6.747297782331361
1621786500918.559,-0.106,-0.003,-0.01,0.6956252272201474,-6.422625227220148,-6.753483127871236
1621786500921.157,-0.1099828360603144,-0.009258742380494064,-0.009431023419955085,0.706,-6.433,-6.757
1621786500923.125,-0.113,-0.014,-0.009,0.7165470279401779,-6.427793239371304,-6.757
1621786500927.687,-0.108,-0.017,-0.009,0.7409958263634707,-6.4157235793901854,-6.757
1621786500932.247,-0.11,-0.021,-0.009,0.765434157571341,-6.403659086768578,-6.757
1621786500935.898,-0.11240405122983763,-0.02260270081989175,-0.01140405122983763,0.785,-6.394,-6.757
1621786500936.803,-0.113,-0.023,-0.012,0.7904156318480643,-6.396400109569028,-6.752138239590942
1621786500941.356,-0.117,-0.03,-0.01,0.8176603360116874,-6.408474467096089,-6.727679925625871
1621786500945.906,-0.113,-0.033,-0.009,0.8448875091307524,-6.420541055182947,-6.70323734975762
1621786500950.453,-0.115,-0.033,-0.003,0.8720956902848794,-6.4325992263762535,-6.6788118234942555
1621786500950.604,-0.1150665269493256,-0.03266736525337203,-0.003066526949325595,0.873,-6.433,-6.678
1621786500954.996,-0.117,-0.023,-0.005,0.873,-6.433,-6.683986589241444
1621786500959.536,-0.119,-0.028,-0.002,0.873,-6.433,-6.690174506247816
1621786500964.073,-0.117,-0.026,-0.002,0.873,-6.433,-6.696358762749372
1621786500965.277,-0.11460982176511766,-0.026,-0.001468849281137257,0.873,-6.433,-6.698
1621786500968.607,-0.108,-0.026,0.0,0.8641294755273909,-6.433,-6.70687052447261
1621786500973.138,-0.113,-0.021,-0.002,0.8520590844659385,-6.433,-6.718940915534062
1621786500977.665,-0.101,-0.021,0.0,0.8399990994746935,-6.433,-6.731000900525307
1621786500979.917,-0.10348893685914733,-0.02597787371829466,-0.0014933621154883973,0.834,-6.433,-6.737
1621786500982.189,-0.106,-0.031,-0.003,0.8400652762458638,-6.433,-6.730934723754136
1621786500986.71,-0.096,-0.028,0.0,0.8521345633209666,-6.433,-6.7188654366790335
1621786500991.228,-0.087,-0.024,-0.003,0.8641960292790535,-6.433,-6.706803970720947
1621786500994.526,-0.087,-0.029114175996538483,-0.003,0.873,-6.433,-6.698
1621786500995.742,-0.087,-0.031,-0.003,0.873,-6.433,-6.689821703218457
1621786501000.253,-0.089,-0.028,-0.005,0.873,-6.433,-6.659484343324342
1621786501004.761,-0.087,-0.03,-0.003,0.873,-6.433,-6.629166686213078
1621786501009.098,-0.09373863328456078,-0.024224028613233622,-0.003,0.873,-6.433,-6.6
1621786501009.266,-0.094,-0.024,-0.003,0.8734512494122388,-6.432780160542755,-6.600219839457244
1621786501013.768,-0.094,-0.026,0.0,0.8855282293276012,-6.426896503660912,-6.606103496339087
1621786501018.266,-0.098,-0.028,0.002,0.8975947303016054,-6.4210179519043455,-6.611982048095654
1621786501022.761,-0.098,-0.037,0.003,0.909652717135756,-6.415143548062067,-6.617856451937932
1621786501023.636,-0.09955834556225882,-0.037,0.004363552366976466,0.912,-6.414,-6.619
1621786501027.253,-0.106,-0.037,0.01,0.90227576282882,-6.409013211707087,-6.6289735765858255
1621786501031.741,-0.108,-0.049,0.014,0.8902095696517832,-6.402825420334247,-6.641349159331504
1621786501036.226,-0.108,-0.035,0.023,0.8781512530083982,-6.396641668209435,-6.65371666358113
1621786501038.142,-0.10714519115564754,-0.03799183095523364,0.025991830955233636,0.873,-6.394,-6.659
1621786501040.709,-0.106,-0.042,0.03,0.8625344254550976,-6.4009179221567996,-6.6728358443135996
1621786501045.188,-0.11,-0.058,0.03,0.8442729235908424,-6.412989084406053,-6.696978168812107
1621786501049.664,-0.106,-0.056,0.042,0.8260233664569028,-6.425052350986115,-6.72110470197223
1621786501052.613,-0.10534070192675071,-0.05929649036624638,0.04397789421974783,0.814,-6.433,-6.737
1621786501054.137,-0.105,-0.061,0.045,0.814,-6.435110851848094,-6.755681038855636
1621786501058.606,-0.106,-0.061,0.052,0.814,-6.441301038179297,-6.810464187886781
1621786501063.072,-0.105,-0.07,0.059,0.814,-6.447487166480673,-6.865211423353961
1621786501067.052,-0.1058919894944189,-0.06821602101116218,0.06702790544977019,0.814,-6.453,-6.914
1621786501067.534,-0.106,-0.068,0.068,0.8116913845997389,-6.453635705689927,-6.921528093696503
1621786501071.995,-0.103,-0.061,0.066,0.7903209037441312,-6.459520330853065,-6.991214444312615
1621786501076.451,-0.098,-0.061,0.072,0.7689761521381718,-6.465397871150359,-7.060816895201613
1621786501080.905,-0.094,-0.054,0.075,0.7476395871116459,-6.471273157172156,-7.130392650722894
1621786501081.456,-0.09300916424298963,-0.05573396257476815,0.07611469022663667,0.745,-6.472,-7.139
1621786501085.354,-0.086,-0.068,0.084,0.6972585161147827,-6.477425168623321,-7.192166652508537
1621786501089.801,-0.077,-0.054,0.087,0.6427920793761361,-6.48361453643453,-7.252822457058394
1621786501094.245,-0.066,-0.07,0.086,0.5883615250004247,-6.489799826704497,-7.313438301704072
1621786501095.826,-0.05923518090839107,-0.07071208622016936,0.08849230177059277,0.569,-6.492,-7.335
1621786501098.685,-0.047,-0.072,0.093,0.5494554077757531,-6.492,-7.3527496806934485
1621786501103.122,-0.031,-0.068,0.096,0.5191246572776349,-6.492,-7.380294954105005
1621786501107.555,-0.01,-0.072,0.099,0.48882227823095653,-6.492,-7.407814461606581
1621786501110.162,2.369146005510095e-06,-0.07376512396694214,0.10017674931129478,0.471,-6.492,-7.424
1621786501111.986,0.007,-0.075,0.101,0.44472823953158874,-6.487026220105495,-7.421449343643844
1621786501116.415,0.028,-0.082,0.108,0.38093543981837114,-6.474948942489886,-7.415255867943531
1621786501120.838,0.045,-0.099,0.103,0.31723055256823884,-6.462888308495929,-7.40907092743381
1621786501124.464,0.056480262794677855,-0.1039201126262905,0.09889990614475791,0.265,-6.453,-7.404
1621786501125.26,0.059,-0.105,0.098,0.2502185815724185,-6.4475336641286685,-7.401824621438959
1621786501129.678,0.079,-0.115,0.086,0.16816810676704594,-6.417190469672342,-7.389749268543075
1621786501134.091,0.096,-0.129,0.08,0.08620831551030883,-6.386880811018907,-7.3776872615279325
1621786501138.503,0.106,-0.154,0.063,0.004271195140730599,-6.356579536316195,-7.3656285909829755
1621786501138.733,0.10683478260869565,-0.15514782608695651,0.062269565217391305,0.0,-6.355,-7.365
1621786501142.911,0.122,-0.176,0.049,-0.12091296667867125,-6.326239148702646,-7.2813587487781035
1621786501147.316,0.138,-0.202,0.035,-0.24839690624410488,-6.295915299000189,-7.193172043010753
1621786501151.718,0.14,-0.22,0.014,-0.37579605906261254,-6.265611617019087,-7.105043988269795
1621786501152.969,0.14341334517597426,-0.22398223603863662,0.009164427667369822,-0.412,-6.257,-7.08
1621786501156.116,0.152,-0.234,-0.003,-0.47715137449069056,-6.224424312754654,-7.034349717193598
1621786501160.511,0.152,-0.255,-0.019,-0.5681409046366496,-6.178929547681675,-6.970595148451872
1621786501164.903,0.155,-0.279,-0.031,-0.659069781835061,-6.1334651090824694,-6.906883078033936
1621786501167.17,0.1513845469210658,-0.28881337264282136,-0.0346154530789342,-0.706,-6.11,-6.874
1621786501169.292,0.148,-0.298,-0.038,-0.7251730888536568,-6.09517081408975,-6.85347880333632
1621786501173.678,0.136,-0.319,-0.047,-0.7648008547597711,-6.0645212138967395,-6.811064710139933
1621786501178.06,0.122,-0.34,-0.054,-0.8043933273592059,-6.033898910870614,-6.76868839181085
1621786501181.337,0.10104683318465656,-0.35496654772524533,-0.05250334522747547,-0.834,-6.011,-6.737
1621786501182.439,0.094,-0.36,-0.052,-0.8431220270480335,-6.017159317408502,-6.74159999654559
1621786501186.815,0.07,-0.374,-0.051,-0.8793433856676511,-6.041616474083286,-6.759865467986252
1621786501191.188,0.044,-0.393,-0.051,-0.9155404943261308,-6.0660572568526865,-6.778118710814032
1621786501195.472,0.02341413407821229,-0.4067239106145251,-0.04903944134078213,-0.951,-6.09,-6.796
1621786501195.558,0.023,-0.407,-0.049,-0.9502848807009038,-6.091858087751498,-6.798695449665824
1621786501199.924,-0.003,-0.422,-0.052,-0.9140568964920178,-6.1859889185164665,-6.935247082453164
1621786501204.287,-0.017,-0.426,-0.054,-0.8778532222876337,-6.280056584825293,-7.071707085223535
1621786501208.647,-0.021,-0.421,-0.056,-0.84167588392146,-6.3740558229733,-7.20806782214219
1621786501209.572,-0.022061820423719316,-0.42397309718641407,-0.056,-0.834,-6.394,-7.237
1621786501213.003,-0.026,-0.435,-0.056,-0.7932687875316741,-6.487169599777848,-7.320901419695234
1621786501217.357,-0.021,-0.438,-0.049,-0.741578725398313,-6.605406747891284,-7.427376757263356
1621786501221.707,-0.012,-0.438,-0.051,-0.6899350376618418,-6.723537818042972,-7.5337565691277035
1621786501223.639,-0.006666891322662173,-0.44022212861555743,-0.04388918843021623,-0.667,-6.776,-7.581
1621786501226.054,0.0,-0.443,-0.035,-0.6298275574112735,-6.835200556715379,-7.560692832289492
1621786501230.398,0.012,-0.443,-0.035,-0.5629645093945721,-6.941686151704941,-7.524165796798886
1621786501234.738,0.04,-0.438,-0.023,-0.4961615866388309,-7.048075991649269,-7.487671607515658
1621786501237.672,0.061644304367402064,-0.43123615488518685,-0.020294461954074743,-0.451,-7.12,-7.463
1621786501239.076,0.072,-0.428,-0.019,-0.446086669921875,-7.131731828962054,-7.424595807756696
1621786501243.41,0.101,-0.428,-0.01,-0.430917724609375,-7.167951555524554,-7.306030378069196
1621786501247.741,0.133,-0.408,-0.002,-0.415759033203125,-7.20414679827009,-7.187545096261161
1621786501251.672,0.148444256375536,-0.40345757165425417,-0.00018302866170164748,-0.402,-7.237,-7.08
1621786501252.068,0.15,-0.403,0.0,-0.3936656238530507,-7.239778125382316,-7.064720310397259
1621786501256.393,0.168,-0.391,0.012,-0.3026400545292483,-7.2701199818235835,-6.8978400999702885
1621786501260.714,0.176,-0.377,0.028,-0.21169669853365258,-7.300434433822116,-6.731110613978363
1621786501265.032,0.176,-0.347,0.049,-0.12082014086722476,-7.330726619710925,-6.564503591589912
1621786501265.641,0.17501182528007242,-0.3455883218286749,0.051964524159782734,-0.108,-7.335,-6.541
1621786501269.347,0.169,-0.337,0.07,-0.02981393556073375,-7.353349790633705,-6.480897787199748
1621786501273.658,0.157,-0.318,0.098,0.061141300348651825,-7.374696427632847,-6.4109798167387915
1621786501277.967,0.138,-0.295,0.119,0.15205532876640326,-7.396033393485992,-6.34109352278501
1621786501279.576,0.1327677649861056,-0.28528299211705327,0.1305856632450519,0.186,-7.404,-6.315
1621786501282.272,0.124,-0.269,0.15,0.18231479757618338,-7.404,-6.337887046632124
1621786501286.573,0.099,-0.246,0.18,0.17643576007728112,-7.404,-6.37439896373057
1621786501290.872,0.082,-0.213,0.208,0.17055939228945288,-7.404,-6.410894300518135
1621786501293.476,0.07593839508979314,-0.19178438281427596,0.21830472834735168,0.167,-7.404,-6.433
1621786501295.168,0.072,-0.178,0.225,0.11195835021045032,-7.374099325502351,-6.440200570593311
1621786501299.46,0.073,-0.159,0.236,-0.02767111635524716,-7.298247397988835,-6.458466953137383
1621786501303.749,0.077,-0.129,0.244,-0.16720527270485883,-7.222447246535054,-6.476720867160946
1621786501307.339,0.06527285673597266,-0.11559755055539733,0.249025918541726,-0.284,-7.159,-6.492
1621786501308.035,0.063,-0.113,0.25,-0.2953696139520926,-7.147630386047907,-6.492
1621786501312.317,0.035,-0.103,0.258,-0.3653386171470936,-7.077661382852906,-6.492
1621786501316.596,0.014,-0.096,0.262,-0.4352597482833489,-7.007740251716651,-6.492
1621786501320.873,-0.002,-0.072,0.271,-0.5051489647137738,-6.937851035286226,-6.492
1621786501321.17,-0.002208433321906068,-0.07088835561650096,0.2718337332876243,-0.51,-6.933,-6.492
1621786501325.146,-0.005,-0.056,0.283,-0.5382377877249164,-6.899287539144742,-6.506118893862459
1621786501329.415,-0.016,-0.047,0.29,-0.5685562180428513,-6.863091045805984,-6.521278109021426
1621786501333.682,-0.023,-0.03,0.302,-0.5988590435413386,-6.82691318271085,-6.536429521770669
1621786501334.969,-0.027226778146833122,-0.02728278547703585,0.30350956362386894,-0.608,-6.816,-6.541
1621786501337.945,-0.037,-0.021,0.307,-0.6376225411071891,-6.828540929811802,-6.549432694183799
1621786501342.205,-0.044,-0.009,0.314,-0.6800248150841655,-6.846492257480888,-6.561503414513011
1621786501346.462,-0.051,0.0,0.325,-0.722395498164145,-6.864430210901609,-6.573565141813151
1621786501348.733,-0.053650444495099155,-0.0010601777980396626,0.32924071119215864,-0.745,-6.874,-6.58
1621786501350.746,-0.056,-0.002,0.333,-0.7712392412493435,-6.866612252463777,-6.5950302449874885
1621786501355.733,-0.051,-0.005,0.339,-0.8362359356174117,-6.848312212301893,-6.632261361178906
1621786501360.719,-0.037,-0.002,0.344,-0.901223083814761,-6.8300148598968144,-6.669487009175446
1621786501364.538,-0.0216839966710726,-0.002,0.34093679933421456,-0.951,-6.816,-6.698
1621786501365.706,-0.017,-0.002,0.34,-0.9716559910312542,-6.8074476949414455,-6.693723847470723
1621786501370.692,0.005,-0.005,0.33,-1.0598325480630841,-6.770939506415986,-6.675469753207993
1621786501375.679,0.026,-0.012,0.325,-1.148030693714303,-6.734422379444605,-6.657211189722302
1621786501380.653,0.04495441414091955,-0.01698800372129462,0.31402639181315184,-1.236,-6.698,-6.639
1621786501380.665,0.045,-0.017,0.314,-1.2360289514748435,-6.697941354704804,-6.638701577105459
1621786501385.65,0.061,-0.019,0.307,-1.2480928537882345,-6.673504219249474,-6.514350584028967
1621786501390.636,0.072,-0.03,0.297,-1.2601597103337525,-6.649061099580347,-6.3899691396367055
1621786501395.621,0.072,-0.026,0.29,-1.2722242034935687,-6.624622767282258,-6.265612056297059
1621786501396.768,0.07223009109609167,-0.025309726711724947,0.2879291801351748,-1.275,-6.619,-6.237
1621786501400.606,0.073,-0.023,0.281,-1.2585639603600327,-6.605184198563506,-6.1505321392853896
1621786501405.592,0.072,-0.021,0.276,-1.2372107009728157,-6.587235081977149,-6.038195426856987
1621786501410.576,0.061,-0.017,0.269,-1.2158668515319575,-6.569293875200776,-5.925908218928993
1621786501412.88,0.056840491698907876,-0.011453988931877174,0.2639161565208874,-1.206,-6.561,-5.874
1621786501415.561,0.052,-0.005,0.258,-1.1767071215313034,-6.561,-5.851198157101071
1621786501420.545,0.035,0.01,0.257,-1.1222557628480063,-6.561,-5.808812724489641
1621786501425.529,0.026,0.012,0.25,-1.0678017368109969,-6.561,-5.766425215585833
1621786501428.989,0.01905770549622808,0.023107671206035074,0.24583462329773684,-1.03,-6.561,-5.737
1621786501430.513,0.016,0.028,0.244,-1.006819807803074,-6.564689908145633,-5.736053869706248
1621786501435.497,0.012,0.044,0.239,-0.9310069876011763,-6.5767580713614455,-5.732959468881681
1621786501440.48,0.007,0.058,0.241,-0.8552127353199745,-6.588823278867433,-5.7298658259314275
1621786501445.096,0.000517070781288269,0.07189199118295371,0.23451707078128828,-0.785,-6.6,-5.727
1621786501445.464,0.0,0.073,0.234,-0.7818454752160073,-6.601348673639532,-5.727
1621786501450.447,-0.005,0.093,0.234,-0.7391506139154161,-6.6196022737608,-5.727
1621786501455.43,-0.009,0.101,0.227,-0.696455752614825,-6.637855873882067,-5.727
1621786501460.413,-0.01,0.117,0.23,-0.6537587994542975,-6.65611036834925,-5.727
1621786501461.202,-0.01,0.11890002940311674,0.23031667156718613,-0.647,-6.659,-5.727
1621786501465.395,-0.01,0.129,0.232,-0.6214830356872139,-6.679309420575483,-5.727
1621786501470.377,-0.002,0.148,0.232,-0.5911657621054547,-6.703439495467087,-5.727
1621786501475.36,0.005,0.161,0.236,-0.5608410600042449,-6.727575482853764,-5.727
1621786501477.306,0.007733999803979222,0.16763971380966383,0.23717171420170538,-0.549,-6.737,-5.727
1621786501480.342,0.012,0.178,0.239,-0.5454172251705838,-6.740771341925702,-5.701166307808946
1621786501485.323,0.023,0.201,0.244,-0.5395394692949205,-6.746958453373768,-5.658784594389689
1621786501490.305,0.026,0.222,0.244,-0.5336605610310842,-6.753146777862017,-5.616394571645186
1621786501493.407,0.03160503872169396,0.23507842368395254,0.24649112832075287,-0.53,-6.757,-5.59
1621786501495.286,0.035,0.243,0.248,-0.5276663937657298,-6.7501158616089025,-5.5647970526698805
1621786501500.267,0.033,0.264,0.248,-0.5214797295248491,-6.731865202098305,-5.497981078868371
1621786501505.248,0.042,0.284,0.25,-0.5152933685072318,-6.713615437096334,-5.431168379878104
1621786501509.51,0.03772174296637584,0.2994017253210469,0.25598955984707383,-0.51,-6.698,-5.374
1621786501510.229,0.037,0.302,0.257,-0.5108931008339651,-6.697106899166036,-5.363907960576194
1621786501515.209,0.033,0.323,0.264,-0.5170789992418499,-6.69092100075815,-5.294007308567096
1621786501520.189,0.028,0.353,0.271,-0.5232648976497347,-6.684735102350265,-5.224106656557998
1621786501525.17,0.017,0.374,0.278,-0.5294520090978014,-6.6785479909021985,-5.154192297194844
1621786501525.611,0.015493723644209083,0.37444302245758554,0.27888604491517116,-0.53,-6.678,-5.148
1621786501530.149,0.0,0.379,0.288,-0.5409943882426099,-6.678,-5.13700561175739
1621786501535.129,-0.019,0.41,0.284,-0.5530600003033382,-6.678,-5.124939999696662
1621786501540.109,-0.035,0.44,0.297,-0.5651256123640666,-6.678,-5.112874387635934
1621786501541.708,-0.04013876630381485,0.442248210257919,0.3024599391978033,-0.569,-6.678,-5.109
1621786501545.088,-0.051,0.447,0.314,-0.5813905280563098,-6.706981235114759,-5.150161754220961
1621786501550.067,-0.072,0.463,0.323,-0.5996433761623762,-6.7496743374645405,-5.210798334369928
1621786501555.046,-0.087,0.492,0.332,-0.6178962242684425,-6.792367439814323,-5.271434914518894
1621786501557.802,-0.09309019127023051,0.49587557626287393,0.3347682687591957,-0.628,-6.816,-5.305
1621786501560.024,-0.098,0.499,0.337,-0.6252381458159472,-6.847070859570594,-5.357889507624611
1621786501565.003,-0.103,0.52,0.344,-0.6190492375388817,-6.916696077687581,-5.476407101130414
1621786501569.981,-0.106,0.539,0.354,-0.6128615431302632,-6.986307639784538,-5.594901449055459
1621786501573.892,-0.10364296223639038,0.5499995095635115,0.35871407552721923,-0.608,-7.041,-5.688
1621786501574.959,-0.103,0.553,0.36,-0.6131720684632193,-7.047498239864045,-5.706831633891721
1621786501579.937,-0.082,0.571,0.375,-0.6373044428259287,-7.077818402524885,-5.794698227725176
1621786501584.915,-0.068,0.592,0.372,-0.661436817188638,-7.108138565185725,-5.882564821558631
1621786501589.892,-0.051,0.616,0.384,-0.6855644573925711,-7.1384527798009225,-5.970414178198593
1621786501589.982,-0.050675055187637964,0.6160902624478783,0.38396389502084866,-0.686,-7.139,-5.972
1621786501594.869,-0.033,0.621,0.382,-0.7607345080362429,-7.1332278225500465,-5.972
1621786501599.846,-0.019,0.642,0.384,-0.8368466967172062,-7.127349238871435,-5.972
1621786501604.823,-0.007,0.649,0.379,-0.9129588853981697,-7.121470655192825,-5.972
1621786501606.068,-0.004748454821936623,0.6535030903561267,0.3807512018051604,-0.932,-7.12,-5.972
1621786501609.8,0.002,0.667,0.386,-0.9865199429334629,-7.081256040553667,-5.940216033268578
1621786501614.776,0.0,0.684,0.387,-1.0592120112918892,-7.029598272826615,-5.897838104055367
1621786501619.753,-0.005,0.684,0.382,-1.1319219129431763,-6.977927832078679,-5.855449778411851
1621786501622.154,-0.010790403297026789,0.6883428024727701,0.3805523991757433,-1.167,-6.953,-5.835
1621786501624.729,-0.017,0.693,0.379,-1.1356196490375858,-6.973333186592993,-5.780084385815775
1621786501629.705,-0.044,0.693,0.382,-1.0749773513874552,-7.012626920274455,-5.673960364928047
1621786501634.68,-0.063,0.709,0.398,-1.014349930171838,-7.051911014633554,-5.567862377800717
1621786501638.237,-0.08801962515945443,0.709,0.4094375429300363,-0.971,-7.08,-5.492
1621786501639.656,-0.098,0.709,0.414,-0.9726766317963045,-7.104267039157039,-5.492
1621786501644.631,-0.124,0.707,0.431,-0.9785552282768777,-7.189351988217968,-5.492
1621786501649.605,-0.148,0.691,0.445,-0.9844323823694638,-7.274416060610662,-5.492
1621786501654.317,-0.16977902070454323,0.6862654302816211,0.4468938278873516,-0.99,-7.355,-5.492
1621786501654.581,-0.171,0.686,0.447,-0.9880778317643486,-7.359353628909809,-5.497306498633465
1621786501659.555,-0.188,0.675,0.454,-0.9518852869723656,-7.441328196173702,-5.597222669298512
1621786501664.53,-0.211,0.663,0.459,-0.9156838597023991,-7.523322881870635,-5.697163361676283
1621786501669.504,-0.208,0.649,0.463,-0.879491314910416,-7.605297449134528,-5.79707953234133
1621786501670.396,-0.20817934622558162,0.6475652301953471,0.46407607735348977,-0.873,-7.62,-5.815
1621786501674.478,-0.209,0.641,0.469,-0.8356757376501496,-7.746953273298811,-5.879746169382394
1621786501679.451,-0.188,0.635,0.473,-0.7902057675661721,-7.90161303548921,-5.958622648099498
1621786501684.425,-0.166,0.634,0.473,-0.7447246359204871,-8.056310762175213,-6.03751848870936
1621786501686.473,-0.1487043055623742,0.6344118022485149,0.473,-0.726,-8.12,-6.07
1621786501689.398,-0.124,0.635,0.473,-0.726,-8.186043597764684,-6.1040224594545345
1621786501694.372,-0.082,0.639,0.475,-0.726,-8.298352441839276,-6.161878530644476
1621786501699.345,-0.026,0.649,0.473,-0.726,-8.410633724108607,-6.219720403328676
1621786501702.55,0.006231770193960231,0.6548017186349129,0.4742892708077584,-0.726,-8.483,-6.257
1621786501704.317,0.024,0.658,0.475,-0.7302873874010725,-8.478712612598928,-6.234353799881514
1621786501709.29,0.072,0.668,0.466,-0.7423551062569306,-8.46664489374307,-6.170611490027494
1621786501714.262,0.119,0.684,0.464,-0.7544198629824854,-8.454580137017516,-6.106884826297641
1621786501718.622,0.15582268041237113,0.6875069219440353,0.4613698085419735,-0.765,-8.444,-6.051
1621786501719.235,0.161,0.688,0.461,-0.765,-8.438011165631124,-6.031164370243213
1621786501724.207,0.188,0.705,0.468,-0.765,-8.389439834718278,-5.870291172315311
1621786501729.178,0.204,0.724,0.471,-0.765,-8.340878043963723,-5.709449572363924
1621786501734.15,0.197,0.744,0.48,-0.765,-8.292306713050877,-5.5485763744360215
1621786501734.693,0.1931754739220116,0.7473874373833611,0.48262253216776346,-0.765,-8.287,-5.531
1621786501739.121,0.162,0.775,0.504,-0.7757482601428355,-8.159950053183408,-5.830848898343716
1621786501744.092,0.091,0.806,0.552,-0.7878144962771616,-8.01732095426227,-6.167465947424403
1621786501749.063,-0.01,0.822,0.599,-0.7998807324114876,-7.874691855341133,-6.50408299650509
1621786501750.76,-0.04960100191542655,0.8315588625313098,0.6102658022690437,-0.804,-7.826,-6.619
1621786501754.034,-0.126,0.85,0.632,-0.6900865270644014,-7.75997501747561,-7.256630155304987
1621786501759.005,-0.264,0.838,0.651,-0.5171266297905965,-7.659726347141598,-8.224772406771418
1621786501763.975,-0.386,0.799,0.682,-0.34419221651521137,-7.559492447497188,-9.192772011670668
1621786501766.826,-0.43475693864518344,0.75196389448347,0.6940458319005748,-0.245,-7.502,-9.748
1621786501768.945,-0.471,0.717,0.703,-0.43128081587986744,-7.681816396631912,-10.032566373833479
1621786501773.915,-0.459,0.613,0.712,-0.8681608353345289,-8.10353556555309,-10.699953202419673
1621786501778.885,-0.347,0.499,0.705,-1.3050408547891905,-8.525254734474268,-11.367340031005867
1621786501782.889,-0.21082351496093943,0.43695509261533927,0.6751862133346436,-1.657,-8.865,-11.905
1621786501783.854,-0.178,0.422,0.668,-1.7035687988325783,-8.870888699723345,-11.906201775453743
1621786501788.823,0.047,0.354,0.63,-1.9433397987413734,-8.901208129389232,-11.912389414161067
1621786501793.793,0.3,0.279,0.579,-2.183157921138236,-8.931533517769738,-11.9185782689326
1621786501798.761,0.548,0.195,0.531,-2.422881798558964,-8.961846988721003,-11.924764691575716
1621786501798.95,0.5560240750749276,0.1918816390704073,0.5295168771188523,-2.432,-8.963,-11.925
1621786501803.73,0.759,0.113,0.492,-2.5108731719923383,-8.390946277097077,-11.057990377306863
1621786501808.699,0.922,0.03,0.447,-2.592864370192454,-7.796278039585297,-10.156705998601442
1621786501813.667,1.009,-0.03,0.414,-2.674839454562038,-7.2017266729500475,-9.255598750418049
1621786501815.01,1.011703326944813,-0.039461644306845546,0.40778234802693003,-2.697,-7.041,-9.012
1621786501818.635,1.019,-0.065,0.391,-2.1988464625581465,-6.644869751603783,-8.248405338846494
1621786501823.603,0.962,-0.058,0.403,-1.5161332127329665,-6.101978155118421,-7.201908318384969
1621786501828.571,0.838,-0.017,0.44,-0.8334199629077863,-5.5590865586330604,-6.155411297923443
1621786501831.07,0.7590099778815433,0.018721602359302043,0.4681747849594495,-0.49,-5.286,-5.629
1621786501833.538,0.681,0.054,0.496,-0.16001622246210445,-5.172880270019612,-5.452711507761543
1621786501838.506,0.501,0.129,0.571,0.5042275097684461,-4.945174919799918,-5.0978500448512305
1621786501843.473,0.318,0.222,0.639,1.1683080291304946,-4.717525519590105,-4.743075775774254
1621786501847.128,0.19435180177965683,0.2897121085492355,0.6905200825918096,1.657,-4.55,-4.482
1621786501848.439,0.15,0.314,0.709,1.7026503490122724,-4.545181805739313,-4.590858524567727
1621786501853.406,0.0,0.379,0.759,1.875603114497316,-4.526927399364326,-5.0032843499551385
1621786501858.373,-0.113,0.436,0.801,2.0485558799823593,-4.508672992989339,-5.415710175342549
1621786501863.182,-0.19821390295462366,0.4941003883781525,0.8281135145764711,2.216,-4.491,-5.815
1621786501863.339,-0.201,0.496,0.829,2.2189779893825774,-4.4962898495611565,-5.830085867267003
1621786501868.305,-0.262,0.543,0.853,2.3130343621180085,-4.6633636695517255,-6.30655565020307
1621786501873.271,-0.302,0.583,0.859,2.407095359060556,-4.830445703594408,-6.783048858398868
1621786501878.237,-0.312,0.621,0.862,2.501156356003103,-4.997527737637091,-7.259542066594667
1621786501879.232,-0.3105973151062156,0.6246069040125886,0.8638034520062943,2.52,-5.031,-7.355
1621786501883.202,-0.305,0.639,0.871,2.5152997885384814,-5.1400943818173515,-7.629096542071714
1621786501888.167,-0.279,0.656,0.869,2.509421416944305,-5.276534480397974,-7.971898422405793
1621786501893.132,-0.239,0.675,0.855,2.5035430453501286,-5.412974578978596,-8.31470030273987
1621786501895.28,-0.22082946498819828,0.6758652635719906,0.8394252557041699,2.501,-5.472,-8.463
1621786501898.097,-0.197,0.677,0.819,2.282261822165419,-5.522032408252693,-8.556042724119044
1621786501903.062,-0.157,0.682,0.778,1.8967116121964578,-5.610220056600329,-8.720040807011138
1621786501908.026,-0.105,0.679,0.731,1.5112561925628385,-5.698386023370458,-8.883998569776642
1621786501911.326,-0.07840874440564599,0.6849830325087296,0.6884539910490336,1.255,-5.757,-8.993
1621786501912.99,-0.065,0.688,0.667,1.1034480428562732,-5.816956900225239,-8.963436476532538
1621786501917.955,-0.019,0.679,0.593,0.6512602270651975,-5.995851190113837,-8.875227354355633
1621786501922.918,0.033,0.667,0.522,0.19927252389358974,-6.174666311560236,-8.787057268521338
1621786501927.368,0.09395686814537944,0.6436929621797078,0.4547681601337727,-0.206,-6.335,-8.708
1621786501927.882,0.101,0.641,0.447,-0.2254869422292567,-6.341602483715834,-8.68537207037195
1621786501932.845,0.182,0.62,0.382,-0.41358312534242403,-6.405332440494308,-8.466957752480672
1621786501937.809,0.26,0.595,0.311,-0.6017255737505327,-6.469078072685214,-8.248489712059415
1621786501942.772,0.328,0.574,0.246,-0.7898217568637,-6.5328080294636885,-8.030075394168138
1621786501943.41,0.3342997933477662,0.5704001180869908,0.23751456406219248,-0.814,-6.541,-8.002
1621786501947.734,0.377,0.546,0.18,-0.919679371651242,-6.448530549805164,-7.737801570871896
1621786501952.697,0.391,0.517,0.115,-1.0409800292255236,-6.342392474427667,-7.434549926936191
1621786501957.659,0.405,0.497,0.065,-1.1622508524111057,-6.236280504140283,-7.131372868972236
1621786501959.449,0.40824600324659355,0.4901473264794136,0.04155664321904669,-1.206,-6.198,-7.022
1621786501962.622,0.414,0.478,0.0,-1.239040537660598,-6.09709775924009,-6.930792288254278
1621786501967.584,0.408,0.463,-0.063,-1.2907075290750776,-5.939312336357547,-6.788166641295744
1621786501972.546,0.4,0.45,-0.124,-1.3423745204895574,-5.7815269134750045,-6.64554099433721
1621786501975.487,0.391700310024113,0.4387361350327248,-0.16016293489493627,-1.373,-5.688,-6.561
1621786501977.507,0.386,0.431,-0.185,-1.3976898588675912,-5.645926464990941,-6.512754000274043
1621786501982.469,0.367,0.408,-0.243,-1.4583372714400986,-5.5425783231581995,-6.394244005298175
1621786501987.43,0.332,0.386,-0.291,-1.5189727478951935,-5.439250521443904,-6.275757334470106
1621786501991.523,0.2981746469169824,0.3554746813641061,-0.3429755425421977,-1.569,-5.354,-6.178
1621786501992.391,0.291,0.349,-0.354,-1.557304590787971,-5.3492352036543585,-6.179082908260373
1621786501997.352,0.244,0.323,-0.389,-1.4904736810049486,-5.322007795964979,-6.185270955462505
1621786502002.312,0.192,0.3,-0.428,-1.4236559269128284,-5.294785748001523,-6.191457784545109
1621786502007.272,0.15,0.278,-0.457,-1.356838172820708,-5.267563700038067,-6.197644613627713
1621786502007.557,0.14827706692913387,0.2763919291338583,-0.45883779527559054,-1.353,-5.266,-6.198
1621786502012.233,0.12,0.25,-0.489,-1.2587924864469757,-5.308874626911129,-6.295124154839495
1621786502017.193,0.096,0.216,-0.524,-1.158859627215691,-5.354354906499361,-6.398150910641408
1621786502022.152,0.075,0.178,-0.546,-1.0589513613936772,-5.399823993421454,-6.50115231162819
1621786502023.589,0.07355138806851742,0.1664111045481394,-0.5500561134081513,-1.03,-5.413,-6.531
1621786502027.112,0.07,0.138,-0.56,-0.9631883395778124,-5.438933473453349,-6.546164488714246
1621786502032.071,0.07,0.11,-0.571,-0.8691427091900454,-5.475438027353864,-6.567510371927259
1621786502037.031,0.07,0.065,-0.588,-0.7750785585914892,-5.511949770020409,-6.588860458740747
1621786502039.619,0.08095903899172903,0.04360378101614809,-0.5979153209925168,-0.726,-5.531,-6.6
1621786502041.99,0.091,0.024,-0.607,-0.6432899038681271,-5.516499840034125,-6.6
1621786502046.948,0.117,-0.014,-0.613,-0.47034132147046726,-5.4861796949984,-6.6
1621786502051.907,0.136,-0.07,-0.62,-0.2973586739590792,-5.4558535779033805,-6.6
1621786502055.644,0.1518285897183376,-0.10165717943667521,-0.6184925152649202,-0.167,-5.433,-6.6
1621786502056.865,0.157,-0.112,-0.618,-0.10794507085174464,-5.424008410787749,-6.576835227792168
1621786502061.823,0.178,-0.152,-0.625,0.13186446746914518,-5.387495474630504,-6.4827680024379095
1621786502066.781,0.192,-0.18,-0.62,0.37167400579003507,-5.350982538473259,-6.388700777083651
1621786502071.667,0.18313073665550522,-0.20759326373842818,-0.6180290525901123,0.608,-5.315,-6.296
1621786502071.739,0.183,-0.208,-0.618,0.6111735897357754,-5.315089903391948,-6.294368253436138
1621786502076.697,0.166,-0.229,-0.611,0.8296456587328194,-5.321278913845123,-6.182037713711029
1621786502081.654,0.138,-0.229,-0.604,1.0480746960046323,-5.327466705269253,-6.069729299363058
1621786502086.611,0.096,-0.229,-0.599,1.2665037332764455,-5.333654496693383,-5.957420885015085
1621786502087.689,0.08534520291568164,-0.22856511032308904,-0.598130220646178,1.314,-5.335,-5.933
1621786502091.568,0.047,-0.227,-0.595,1.435071961961657,-5.415633926666463,-5.9567301045444845
1621786502096.525,0.009,-0.218,-0.586,1.5897779877472646,-5.518668139839678,-5.987052485598464
1621786502101.481,-0.024,-0.213,-0.576,1.7444611539516597,-5.621687128531805,-6.017370386174525
1621786502103.709,-0.036135638297872336,-0.2058085106382979,-0.5728537234042552,1.814,-5.668,-6.031
1621786502106.438,-0.051,-0.197,-0.569,1.865789435181516,-5.736484713628189,-6.121290791599353
1621786502111.394,-0.068,-0.183,-0.56,1.9598425336056329,-5.860857560886396,-6.285264943457189
1621786502116.35,-0.075,-0.166,-0.552,2.0538956320297497,-5.985230408144604,-6.449239095315024
1621786502119.728,-0.0668190687361419,-0.1578190687361419,-0.5431373244641537,2.118,-6.07,-6.561
1621786502121.305,-0.063,-0.154,-0.539,2.116129424138036,-6.090280980398134,-6.600577447184708
1621786502126.261,-0.044,-0.134,-0.525,2.1102503886839616,-6.154022101637046,-6.724965460476176
1621786502131.216,-0.019,-0.117,-0.513,2.104372511660519,-6.217750663049111,-6.849328963814285
1621786502135.745,0.006593890120719387,-0.10603118994826312,-0.49746085242670607,2.099,-6.276,-6.963
1621786502136.171,0.009,-0.105,-0.496,2.0929925315124454,-6.278099955798747,-6.959092487311192
1621786502141.126,0.037,-0.096,-0.485,2.0230799280586504,-6.302538432227286,-6.913618360285937
1621786502146.081,0.054,-0.094,-0.473,1.9531673246048562,-6.3269769086558245,-6.868144233260681
1621786502151.035,0.07,-0.093,-0.464,1.8832719443978723,-6.351409364568886,-6.822681308966757
1621786502151.763,0.07426083957430037,-0.09241229798975167,-0.46150226645644465,1.873,-6.355,-6.816
1621786502155.99,0.099,-0.089,-0.447,1.7824627252492606,-6.344441717230235,-6.720183583864378
1621786502160.945,0.108,-0.091,-0.44,1.6763321645272433,-6.332064975455072,-6.607864652254779
1621786502165.898,0.096,-0.094,-0.433,1.5702486660365278,-6.319693721986767,-6.495595527029911
1621786502167.777,0.08348270254287404,-0.09931036861817465,-0.42958619160260203,1.53,-6.315,-6.453
1621786502170.852,0.063,-0.108,-0.424,1.448958755813067,-6.315,-6.44166958908287
1621786502175.805,0.031,-0.115,-0.415,1.3184241213692156,-6.315,-6.423419486162995
1621786502180.758,0.007,-0.119,-0.405,1.1878830525272548,-6.315,-6.405168483647175
1621786502183.789,-0.0046273968551289,-0.1349111746438606,-0.4105077142997979,1.108,-6.315,-6.394
1621786502185.711,-0.012,-0.145,-0.414,1.0185631891174722,-6.33156681866012,-6.423412105592241
1621786502190.664,-0.009,-0.164,-0.412,0.7880634407454288,-6.374263416345142,-6.499214036264926
1621786502195.617,-0.007,-0.185,-0.429,0.5575750537568817,-6.416957909505437,-6.57501223064371
1621786502199.798,0.0031297318611987384,-0.20863604100946373,-0.43659729889589904,0.363,-6.453,-6.639
1621786502200.57,0.005,-0.213,-0.438,0.3412440043937267,-6.461972539207909,-6.639
1621786502205.522,0.005,-0.248,-0.454,0.20168775553792642,-6.519527887959969,-6.639
1621786502210.474,0.012,-0.279,-0.475,0.06212462622810766,-6.577086074327211,-6.639
1621786502215.426,0.017,-0.297,-0.489,-0.07743162262769265,-6.6346414230792705,-6.639
1621786502215.801,0.018211655080609377,-0.3001805945865996,-0.49013592663807126,-0.088,-6.639,-6.639
1621786502220.378,0.033,-0.339,-0.504,-0.15549286062972906,-6.661592949109105,-6.608113436660972
1621786502225.329,0.045,-0.368,-0.529,-0.22850482060043936,-6.686033393336587,-6.574701183793019
1621786502230.281,0.056,-0.394,-0.548,-0.3015275811569441,-6.710477453014401,-6.5412839882841105
1621786502231.805,0.0603101356350185,-0.400157336621455,-0.5560045376078915,-0.324,-6.718,-6.531
1621786502235.231,0.07,-0.414,-0.574,-0.31971831759447134,-6.713718317594472,-6.480690231735037
1621786502240.182,0.094,-0.447,-0.592,-0.313530885291919,-6.707530885291919,-6.407987902180048
1621786502245.133,0.087,-0.473,-0.621,-0.30734314787410943,-6.70134314787411,-6.335281987520786
1621786502247.808,0.08645958076448829,-0.48813173859432796,-0.6280254500616523,-0.304,-6.698,-6.296
1621786502250.083,0.086,-0.501,-0.634,-0.27883197265416365,-6.695156155102166,-6.263864552654469
1621786502255.034,0.072,-0.529,-0.653,-0.22405815568204362,-6.688967023240909,-6.19392736262227
1621786502259.984,0.059,-0.553,-0.677,-0.16929514275686317,-6.682779112175917,-6.12400396758786
1621786502263.807,0.056682665745856356,-0.5730835635359116,-0.691676450276243,-0.127,-6.678,-6.07
1621786502264.933,0.056,-0.579,-0.696,-0.11460930346132715,-6.67384630059215,-6.058946935474025
1621786502269.883,0.051,-0.602,-0.714,-0.060149868750381544,-6.65559001281973,-6.010366644283011
1621786502274.833,0.047,-0.635,-0.735,-0.005690434039435949,-6.637333725047311,-5.9617863530919974
1621786502279.782,0.035,-0.667,-0.761,0.04875825651669616,-6.6190810390086074,-5.9132156461754475
1621786502279.804,0.034982240639336984,-0.6671465147254699,-0.7610843569631494,0.049,-6.619,-5.913
1621786502284.731,0.031,-0.7,-0.78,0.10937419866902742,-6.59189321692411,-5.825519018255083
1621786502289.679,0.03,-0.73,-0.803,0.17000567800232003,-6.564670920080591,-5.737665242078271
1621786502294.628,0.024,-0.754,-0.822,0.23064912387813663,-6.537443250503694,-5.649794126625556
1621786502295.799,0.022106478511866583,-0.7618107761385504,-0.8281539448364336,0.245,-6.531,-5.629
1621786502299.576,0.016,-0.787,-0.848,0.28443838063107757,-6.526512998610835,-5.510921016074618
1621786502304.525,0.005,-0.826,-0.864,0.33611617079090783,-6.520633489550734,-5.356197093440395
1621786502309.473,-0.019,-0.857,-0.878,0.3877837635672523,-6.514755140671989,-5.201503701894453
1621786502311.792,-0.02884449489216799,-0.8677820658342792,-0.8836254256526674,0.412,-6.512,-5.129
1621786502314.42,-0.04,-0.88,-0.89,0.45390628864562815,-6.512,-5.09350290844135
1621786502319.368,-0.07,-0.899,-0.895,0.5328095543443412,-6.512,-5.02666720102597
1621786502324.315,-0.106,-0.923,-0.895,0.6116972472862181,-6.512,-4.959844684651674
1621786502327.783,-0.12983036463216066,-0.9342142892386638,-0.895,0.667,-6.512,-4.913
1621786502329.263,-0.14,-0.939,-0.895,0.7151353551086476,-6.513758791821277,-4.945676500679524
1621786502334.209,-0.173,-0.948,-0.888,0.8760020920182632,-6.519636614900667,-5.054880266312398
1621786502339.156,-0.204,-0.96,-0.878,1.036900590956984,-6.525515598515736,-5.164105593476568
1621786502343.771,-0.22731286073701348,-0.9553374278525972,-0.867742341275714,1.187,-6.531,-5.266
1621786502344.105,-0.229,-0.955,-0.867,1.1992786096991346,-6.536533727160324,-5.2786962494848195
1621786502349.113,-0.255,-0.944,-0.848,1.3833949260429546,-6.619511318709835,-5.469075025568225
1621786502354.033,-0.271,-0.925,-0.826,1.56427105371617,-6.701028621147594,-5.656103402482025
1621786502358.952,-0.274,-0.902,-0.801,1.7451112790218435,-6.782529743096579,-5.843094655859321
1621786502359.765,-0.2751566516151442,-0.8977038654294646,-0.7963733935394235,1.775,-6.796,-5.874
1621786502363.872,-0.281,-0.876,-0.773,1.8587029438412752,-6.894686804158541,-6.0284887667193905
1621786502368.79,-0.265,-0.845,-0.744,1.9589295443726102,-7.012855203550423,-6.21347489979883
1621786502373.708,-0.251,-0.81,-0.717,2.0591561449039455,-7.131023602942306,-6.398461032878269
1621786502375.663,-0.24503693407466243,-0.80522954725973,-0.7066640190627482,2.099,-7.178,-6.472
1621786502378.626,-0.236,-0.798,-0.691,2.020326758529579,-7.212862313163433,-6.51786165261072
1621786502383.544,-0.213,-0.785,-0.67,1.8897405871238306,-7.270728697174985,-6.593985344946772
1621786502388.461,-0.187,-0.777,-0.656,1.7591803462525155,-7.328583590641658,-6.670093921378865
1621786502391.556,-0.16055810488676997,-0.7681860349622567,-0.6377425009932459,1.677,-7.365,-6.718
1621786502393.377,-0.145,-0.763,-0.627,1.6859406214463535,-7.352620677997357,-6.74046617696776
1621786502398.293,-0.098,-0.744,-0.597,1.7100763438546884,-7.319201985431969,-6.801114915327166
1621786502403.209,-0.049,-0.731,-0.564,1.7342120662630236,-7.285783292866583,-6.861763653686572
1621786502407.443,-0.01885473778307509,-0.7206644815256257,-0.53988379022646,1.755,-7.257,-6.914
1621786502408.125,-0.014,-0.719,-0.536,1.7672356892523364,-7.253608352803738,-6.897986273364486
1621786502413.039,0.017,-0.693,-0.504,1.8554132593457944,-7.229166149163797,-6.78258194478603
1621786502417.954,0.021,-0.661,-0.478,1.9436083528037382,-7.204719088170192,-6.66715468212002
1621786502422.868,0.026,-0.63,-0.454,2.0317815420560748,-7.1802780988686665,-6.5517560870634535
1621786502423.326,0.024415855354659247,-0.6271112656467316,-0.45269541029207233,2.04,-7.178,-6.541
1621786502427.783,0.009,-0.599,-0.44,1.938124060323756,-7.296434287998278,-6.414426862826485
1621786502432.695,-0.003,-0.56,-0.426,1.8258462389890697,-7.426961121616013,-6.274930175713693
1621786502437.608,-0.019,-0.541,-0.422,1.7135516764285386,-7.55750741748528,-6.1354126888960625
1621786502439.207,-0.025185387673956262,-0.5377445328031809,-0.4249299204771372,1.677,-7.6,-6.09
1621786502442.52,-0.038,-0.531,-0.431,1.5296633243110236,-7.771962352362205,-6.04095733882874
1621786502447.433,-0.052,-0.532,-0.442,1.3111664000984251,-8.026978592519685,-5.968228192667323
1621786502452.344,-0.059,-0.531,-0.454,1.0927671936515746,-8.281880782480314,-5.895531572957678
1621786502455.082,-0.06513298533432763,-0.52876982351479,-0.4595754412130251,0.971,-8.424,-5.855
1621786502457.255,-0.07,-0.527,-0.464,0.9347220820771549,-8.578420722328184,-5.881831969482557
1621786502462.167,-0.072,-0.524,-0.482,0.8527095305482064,-8.927515658647634,-5.942490309481327
1621786502467.077,-0.07,-0.524,-0.506,0.7707336645542361,-9.276454439180458,-6.003121516027811
1621786502470.954,-0.06447260342084328,-0.5129452068416865,-0.5296888424821002,0.706,-9.552,-6.051
1621786502471.987,-0.063,-0.51,-0.536,0.7558055764999153,-9.555841214396725,-6.179322602982135
1621786502476.896,-0.037,-0.503,-0.578,0.9924968378291043,-9.574095834551526,-6.789150676289104
1621786502481.805,0.017,-0.482,-0.621,1.2291880991582933,-9.592350454706326,-7.398978749596074
1621786502486.714,0.103,-0.459,-0.656,1.4658911320725685,-9.61060598273501,-8.008837152045794
1621786502486.82,0.10496458240063672,-0.4582443913843705,-0.6564965428045566,1.471,-9.611,-8.022
1621786502491.622,0.194,-0.424,-0.679,1.7501260273972603,-9.34368082191781,-8.490943835616438
1621786502496.53,0.274,-0.412,-0.702,2.0354110204709865,-9.070463198399262,-8.970235000769586
1621786502501.437,0.33,-0.389,-0.719,2.3206392488841003,-8.797299938433122,-9.449430798830228
1621786502502.682,0.33837190905020154,-0.3816428678043684,-0.7235664958455644,2.393,-8.728,-9.571
1621786502506.344,0.363,-0.36,-0.737,2.5740372696624023,-8.7506296587078,-9.199688865284257
1621786502511.251,0.377,-0.316,-0.74,2.8166151418587106,-8.78095189273234,-8.702156698840808
1621786502516.157,0.408,-0.244,-0.724,3.0591447374497758,-8.811268092181223,-8.204723548699949
1621786502518.541,0.42452530984022696,-0.21094938031954608,-0.7103909213080484,3.177,-8.826,-7.963
1621786502521.062,0.442,-0.176,-0.696,3.1614167051649265,-8.835381779543566,-7.6823416797560755
1621786502525.968,0.482,-0.115,-0.658,3.1310907019002743,-8.853639271304937,-7.136164171979427
1621786502530.873,0.524,-0.079,-0.623,3.100770735162771,-8.871893128830576,-6.590095383288675
1621786502534.395,0.5491361577139444,-0.0639183053716334,-0.605763777567581,3.079,-8.885,-6.198
1621786502535.777,0.559,-0.058,-0.599,2.9900522667406073,-8.736143352280605,-6.186837931512547
1621786502540.681,0.569,-0.047,-0.586,2.67445357918573,-8.207979666343176,-6.14723339032919
1621786502545.585,0.564,-0.051,-0.581,2.3588391792596703,-7.679789685290448,-6.107626877397292
1621786502550.244,0.5468962804361899,-0.05860165313947119,-0.5714979335756609,2.059,-7.178,-6.07
1621786502550.488,0.546,-0.059,-0.571,2.04843086925708,-7.14960509043848,-6.0820944134594646
1621786502555.391,0.515,-0.101,-0.56,1.8361710165470067,-6.579350121714479,-6.32498651896589
1621786502560.293,0.456,-0.161,-0.55,1.623964009490648,-6.009237127538286,-6.5678181524050165
1621786502565.195,0.375,-0.211,-0.55,1.4117464333035468,-5.439095738452531,-6.810661880257603
1621786502566.09,0.35491533021217253,-0.21684281302918618,-0.5534691702360793,1.373,-5.335,-6.855
1621786502570.097,0.265,-0.243,-0.569,1.144844769126441,-5.335,-6.998924973799396
1621786502574.998,0.145,-0.248,-0.588,0.8657674927563035,-5.335,-7.174972612662598
1621786502579.898,0.031,-0.262,-0.607,0.5867597250477775,-5.335,-7.3509764040441405
1621786502581.931,-0.008820273972602738,-0.2628295890410959,-0.614466301369863,0.471,-5.335,-7.424
1621786502584.799,-0.065,-0.264,-0.625,0.3697366310985012,-5.4148875593659405,-7.61221581446987
1621786502589.698,-0.108,-0.25,-0.639,0.19677521125023129,-5.551338339604022,-7.9336950903595875
1621786502594.598,-0.099,-0.241,-0.663,0.023779312897057925,-5.687816320236847,-8.25523845062604
1621786502597.764,-0.05182483679673095,-0.2397075297752529,-0.6778634075845916,-0.088,-5.776,-8.463
1621786502599.497,-0.026,-0.239,-0.686,-0.10091762274858129,-5.727723121761658,-8.500548683074266
1621786502604.396,0.086,-0.246,-0.717,-0.13743051443375276,-5.591263924870466,-8.606683613989636
1621786502609.294,0.208,-0.25,-0.744,-0.17393612755983223,-5.454831930051814,-8.712797387737478
1621786502613.596,0.31164260791546206,-0.2543916359286213,-0.7571749077858638,-0.206,-5.335,-8.806
1621786502614.192,0.326,-0.255,-0.759,-0.20155661483401208,-5.293277366407503,-8.75836540478835
1621786502619.089,0.426,-0.258,-0.764,-0.16504294705664568,-4.950420214735283,-8.36692650870048
1621786502623.987,0.483,-0.279,-0.77,-0.12852381833888682,-4.607511785758361,-7.975429069480439
1621786502628.883,0.504,-0.3,-0.763,-0.09201925212884117,-4.2647400962606445,-7.584087745279526
1621786502629.422,0.5019080482696718,-0.303633389847412,-0.7609080482696718,-0.088,-4.227,-7.541
1621786502633.779,0.485,-0.333,-0.744,-0.09350785469584272,-4.032572729236752,-7.141405141816611
1621786502638.674,0.419,-0.368,-0.719,-0.09969593531063856,-3.8141334835344587,-6.692459893213172
1621786502643.571,0.312,-0.377,-0.688,-0.10588648498503132,-3.595607080028394,-6.243335514335977
1621786502645.243,0.2675901426718547,-0.3804161428713958,-0.6736521999401377,-0.108,-3.521,-6.09
1621786502648.465,0.182,-0.387,-0.646,0.005854874303615809,-3.578843979073751,-6.070039753699903
1621786502653.36,0.03,-0.391,-0.585,0.17881973487245179,-3.666718791956666,-6.039716754888192
1621786502658.254,-0.136,-0.38,-0.529,0.3517414620595997,-3.754571690921156,-6.009401317921573
1621786502661.063,-0.23646652030735457,-0.37253677277716796,-0.48364654226125137,0.451,-3.805,-5.992
1621786502663.147,-0.311,-0.367,-0.45,0.5220344912768257,-4.022057156090783,-6.108238258452987
1621786502668.041,-0.478,-0.367,-0.361,0.6888523699243476,-4.531795646132469,-6.381212968967114
1621786502672.933,-0.613,-0.351,-0.274,0.8556036745406823,-5.041330708661417,-6.65407874015748
1621786502676.876,-0.6742444488797964,-0.3413298238610848,-0.186968414749763,0.99,-5.452,-6.874
1621786502677.826,-0.689,-0.339,-0.166,0.9841109189189189,-5.581079042471043,-6.952420926640927
1621786502682.718,-0.721,-0.316,-0.061,0.9537831351351351,-6.245814548262548,-7.356275598455598
1621786502687.609,-0.712,-0.291,0.031,0.923462918918919,-6.910384185328185,-7.760029498069498
1621786502692.5,-0.646,-0.3,0.106,0.8931411891891892,-7.574986996138996,-8.163803552123552
1621786502692.684,-0.6418600379355096,-0.30094090046920235,0.10780652890086852,0.892,-7.6,-8.179
1621786502697.391,-0.536,-0.325,0.154,0.6585087971330151,-7.827832615042402,-8.468183619877351
1621786502702.281,-0.408,-0.358,0.208,0.41594680012975577,-8.06451619630196,-8.768601603410724
1621786502707.171,-0.274,-0.394,0.243,0.1733848031264964,-8.301199777561518,-9.069019586944098
1621786502708.489,-0.23922166183960852,-0.40073998801557975,0.24704399280934786,0.108,-8.365,-9.15
1621786502712.06,-0.145,-0.419,0.258,-0.022862570885547842,-8.123390175687996,-9.198593182625894
1621786502716.949,-0.033,-0.457,0.265,-0.202019129440487,-7.792615804193643,-9.265119365854412
1621786502721.838,0.065,-0.492,0.25,-0.3811756879954262,-7.461841432699291,-9.33164554908293
1621786502724.289,0.11313904704824693,-0.502530416541804,0.24448406752572172,-0.471,-7.296,-9.365
1621786502726.726,0.161,-0.513,0.239,-0.411913915677547,-7.156846871909001,-9.266728888476756
1621786502731.614,0.243,-0.539,0.23,-0.2934043490356083,-6.877746012611276,-9.069625510014836
1621786502736.501,0.318,-0.534,0.222,-0.17491845944609297,-6.598700914935708,-8.872561510880317
1621786502740.086,0.3715510815806565,-0.530332117699955,0.21393065893990107,-0.088,-6.394,-8.728
1621786502741.388,0.391,-0.529,0.211,-0.045212666955231254,-6.3292831282463515,-8.635005565174374
1621786502746.274,0.442,-0.531,0.199,0.11535416151372746,-6.086421932970566,-8.286027949542419
1621786502751.16,0.457,-0.515,0.19,0.2759209899826861,-5.843560737694781,-7.937050333910462
1621786502755.879,0.465692399940039,-0.5034101334132813,0.18806835556888024,0.431,-5.609,-7.6
1621786502756.046,0.466,-0.503,0.188,0.43224817518248176,-5.602886057156996,-7.5880682914759365
1621786502760.931,0.485,-0.485,0.185,0.4687609489051095,-5.424035351973277,-7.239030929110479
1621786502765.816,0.475,-0.466,0.171,0.5052737226277373,-5.245184646789558,-6.88999356674502
1621786502770.702,0.422,-0.44,0.175,0.541793795620438,-5.066298187554126,-6.540886428306322
1621786502771.666,0.41035103244837756,-0.4362486375681216,0.1755923203839808,0.549,-5.031,-6.472
1621786502775.585,0.363,-0.421,0.178,0.5686170969787913,-5.001698513373451,-6.323506025401049
1621786502780.469,0.321,-0.377,0.185,0.5930651423974754,-4.9651811797101,-6.13844360564949
1621786502785.352,0.293,-0.353,0.187,0.6175082994291725,-4.928671147688072,-5.953418189131074
1621786502787.448,0.29085385730713464,-0.34012314384280784,0.1912922853857307,0.628,-4.913,-5.874
1621786502790.235,0.288,-0.323,0.197,0.6140459531803624,-4.9165326700809215,-5.799460661292568
1621786502795.117,0.293,-0.295,0.215,0.5896043694202473,-4.922720412805001,-5.668899289814485
1621786502799.999,0.298,-0.269,0.241,0.5651615633364795,-4.9289084649781065,-5.538331388961953
1621786502803.227,0.2927104065609841,-0.25379241886282944,0.2476119917987698,0.549,-4.933,-5.452
1621786502804.881,0.29,-0.246,0.251,0.5130308175711235,-4.899023279571557,-5.39033854440764
1621786502809.762,0.253,-0.227,0.267,0.40689120205553664,-4.798763117976659,-5.208384917809491
1621786502814.642,0.218,-0.199,0.278,0.30076751385320244,-4.698518001424016,-5.026458595176918
1621786502819.0,0.18049249549729837,-0.18471142685611366,0.28514428657194313,0.206,-4.609,-4.864
1621786502819.522,0.176,-0.183,0.286,0.19497665128665653,-4.599598705601833,-4.855558696931223
1621786502824.402,0.126,-0.164,0.295,0.09191504350788098,-4.511702319388103,-4.776637645929458
1621786502829.282,0.07,-0.161,0.304,-0.011141408354751775,-4.423810330412164,-4.697720543151767
1621786502834.161,0.005,-0.159,0.312,-0.11417723655281328,-4.33593593038739,-4.618819233270369
1621786502834.768,-0.004584054852109504,-0.15987127771382814,0.3122489364896652,-0.127,-4.325,-4.609
1621786502839.039,-0.072,-0.166,0.314,-0.22020740339193062,-4.33014808332688,-4.54803585533958
1621786502843.917,-0.145,-0.161,0.318,-0.32666012545496786,-4.3360277394873386,-4.478408348176257
1621786502848.795,-0.225,-0.152,0.323,-0.4331128475180051,-4.341907395647797,-4.408780841012933
1621786502850.531,-0.26344361015167445,-0.152,0.3240678780597687,-0.471,-4.344,-4.384
1621786502853.672,-0.333,-0.152,0.326,-0.486545146149914,-4.447634307666093,-4.460131356785476
1621786502858.549,-0.44,-0.136,0.33,-0.5106808401877411,-4.60853893458494,-4.578334371175861
1621786502863.426,-0.546,-0.119,0.332,-0.5348165342255682,-4.769443561503787,-4.696537385566244
1621786502866.292,-0.596548467854997,-0.09842794912878029,0.3308244542359303,-0.549,-4.864,-4.766
1621786502868.302,-0.632,-0.084,0.33,-0.5052488341467194,-4.939001998605624,-4.973658594778836
1621786502873.177,-0.681,-0.065,0.319,-0.3991364474397707,-5.120908947246107,-5.477305724688202
1621786502878.053,-0.703,-0.047,0.307,-0.29300280424510033,-5.302852335579828,-5.981053745448912
1621786502882.05,-0.7087405329593267,-0.025678020436786214,0.29879923862953317,-0.206,-5.452,-6.394
1621786502882.927,-0.71,-0.021,0.297,-0.18418172802776744,-5.501146770794596,-6.46006706334449
1621786502887.802,-0.702,0.0,0.286,-0.06289351679682656,-5.774354654766332,-6.82733519276063
1621786502892.676,-0.672,0.03,0.278,0.05837039791744145,-6.047507809594645,-7.194529750836742
1621786502897.549,-0.618,0.049,0.269,0.1796100161150366,-6.320606235279534,-7.561650737572828
1621786502897.806,-0.6156809619238477,0.049737875751503006,0.2691054108216433,0.186,-6.335,-7.581
1621786502902.422,-0.574,0.063,0.271,0.2636792136921741,-6.622559655215181,-7.756291206746869
1621786502907.295,-0.517,0.079,0.286,0.3456762216296664,-6.926103295919633,-7.941325964281285
1621786502912.167,-0.449,0.096,0.307,0.42766090475009305,-7.2296013115465705,-8.126332909587003
1621786502913.554,-0.42707992583684107,0.10140884946883143,0.3124088494688314,0.451,-7.316,-8.179
1621786502917.039,-0.372,0.115,0.326,0.39233986167969237,-7.4200387358888475,-8.215745596079891
1621786502921.911,-0.293,0.131,0.346,0.31033894678079643,-7.565474320803871,-8.267112206922219
1621786502926.782,-0.208,0.141,0.367,0.228350359756854,-7.710888041185957,-8.318471095397594
1621786502929.298,-0.16460196510928413,0.141,0.3768162221776619,0.186,-7.786,-8.345
1621786502931.652,-0.124,0.141,0.386,0.07609026194574976,-7.734708788908016,-8.308363420648584
1621786502936.522,-0.038,0.138,0.398,-0.15128679104824833,-7.628599497510817,-8.232571069650584
1621786502941.392,0.044,0.122,0.407,-0.37867524310240547,-7.522484886552211,-8.156774918965866
1621786502945.04,0.09867224700516265,0.1182553255475916,0.4025063906571099,-0.549,-7.443,-8.1
1621786502946.263,0.117,0.117,0.401,-0.6000646587840983,-7.394267060795084,-8.022276014027247
1621786502951.132,0.175,0.105,0.391,-0.8033853924215623,-7.200230378921888,-7.712807621884989
1621786502956.0,0.216,0.096,0.375,-1.0066551531514756,-7.0062423424262175,-7.403416814076901
1621786502960.774,0.247382115452129,0.08619308892120968,0.3544054867345403,-1.206,-6.816,-7.1
1621786502960.868,0.248,0.086,0.354,-1.205533941707794,-6.814589874910761,-7.092321988391221
1621786502965.736,0.26,0.077,0.337,-1.1813957537945805,-6.74155638327591,-6.694660815718409
1621786502970.603,0.258,0.086,0.321,-1.1572636185864604,-6.668541204953907,-6.297099357482074
1621786502975.47,0.237,0.093,0.307,-1.1331314833783406,-6.5955260266319025,-5.89953789924574
1621786502976.505,0.23104485474888364,0.09363805127690532,0.3044477948923787,-1.128,-6.58,-5.815
1621786502980.336,0.209,0.096,0.295,-1.0848887716139446,-6.584871325241362,-5.628671809517897
1621786502985.202,0.175,0.106,0.284,-1.030131577313507,-6.591058578834632,-5.392009359575327
1621786502990.068,0.129,0.12,0.271,-0.9753716356750379,-6.597246142861577,-5.155335035544656
1621786502992.234,0.1129737040196718,0.12489692377176695,0.26832895066994533,-0.951,-6.6,-5.05
1621786502994.933,0.093,0.131,0.265,-0.9089430487842747,-6.63364556097258,-5.021504269788529
1621786502999.798,0.051,0.143,0.264,-0.8331408719684501,-6.69428730242524,-4.970144427537807
1621786503004.662,0.01,0.155,0.264,-0.7573539111262926,-6.754916871098966,-4.91879489488557
1621786503007.958,-0.011006927015359902,0.17058578455978315,0.2592565003513704,-0.706,-6.796,-4.884
1621786503009.526,-0.021,0.178,0.257,-0.6717879009085966,-6.812657202764619,-4.886892568144755
1621786503014.39,-0.044,0.195,0.257,-0.5656515492738992,-6.864332919158189,-4.895866195542441
1621786503019.253,-0.059,0.22,0.253,-0.4595365069503766,-6.915998260464394,-4.904838021278248
1621786503023.677,-0.05809008285212152,0.24547768014059754,0.254819834295757,-0.363,-6.963,-4.913
1621786503024.115,-0.058,0.248,0.255,-0.35642213936145417,-6.963,-4.9099897925891405
1621786503028.978,-0.063,0.267,0.26,-0.2833873533752816,-6.963,-4.876567093917502
1621786503033.84,-0.07,0.297,0.269,-0.2103672337450478,-6.963,-4.843151106968072
1621786503038.701,-0.075,0.333,0.279,-0.13736544705973744,-6.963,-4.809743509671405
1621786503039.391,-0.0775556727437095,0.3355556727437095,0.27999387273366483,-0.127,-6.963,-4.805
1621786503043.562,-0.093,0.351,0.286,-0.12195592988562905,-6.908311660865241,-4.784292764793635
1621786503048.423,-0.108,0.386,0.295,-0.11607718485827946,-6.844573688463451,-4.7601589694182
1621786503053.283,-0.131,0.419,0.302,-0.11019991608652412,-6.780851721780208,-4.736031234460468
1621786503055.102,-0.14260533587901322,0.43060533587901323,0.3046205597146159,-0.108,-6.757,-4.727
1621786503058.142,-0.162,0.45,0.309,-0.1498118674895456,-6.730286862437234,-4.793395696985714
1621786503063.002,-0.187,0.482,0.314,-0.21665310056430426,-6.687582741306139,-4.899537099507206
1621786503067.861,-0.23,0.503,0.318,-0.28348426010850813,-6.644885056041787,-5.00566250563527
1621786503070.807,-0.24940456327269073,0.5133086742386169,0.3186063926022716,-0.324,-6.619,-5.07
1621786503072.719,-0.262,0.52,0.319,-0.3633329187138504,-6.596350083960445,-5.179839915417626
1621786503077.577,-0.305,0.531,0.309,-0.46326223645749115,-6.538805647117358,-5.458899496237328
1621786503082.435,-0.349,0.545,0.295,-0.5631965762796194,-6.481258318303377,-5.7379731015610425
1621786503086.509,-0.3867458027545994,0.5575819342515331,0.2908060219161556,-0.647,-6.433,-5.972
1621786503087.292,-0.394,0.56,0.29,-0.6489451779965474,-6.442277002752764,-6.025317827648953
1621786503092.149,-0.429,0.572,0.298,-0.661011710913078,-6.499825082816217,-6.356064588873855
1621786503097.005,-0.452,0.581,0.302,-0.6730758176643494,-6.557361591937666,-6.68674484828691
1621786503101.862,-0.459,0.562,0.3,-0.6851429571221948,-6.6149125647366205,-7.017508234964774
1621786503102.207,-0.45878687782805433,0.5605081447963801,0.2991475113122172,-0.686,-6.619,-7.041
1621786503106.718,-0.456,0.541,0.288,-0.8354856396054392,-6.833454398357034,-7.2948381149453905
1621786503111.573,-0.438,0.501,0.281,-0.9963706008650466,-7.064262438933317,-7.568033154930454
1621786503116.428,-0.419,0.461,0.286,-1.1572555621246539,-7.2950704795096,-7.8412281949155185
1621786503117.899,-0.40990886228749623,0.4525149381349965,0.29296987224625287,-1.206,-7.365,-7.924
1621786503121.282,-0.389,0.433,0.309,-0.9733502263992406,-7.701145502357353,-7.8901482720525316
1621786503126.136,-0.358,0.412,0.347,-0.6395447274651065,-8.183446496646802,-7.841577870446731
1621786503130.99,-0.314,0.41,0.389,-0.30573922853097246,-8.66574749093625,-7.79300746884093
1621786503133.589,-0.28133041553476207,0.4062510312908743,0.41738504879766575,-0.127,-8.924,-7.767
1621786503135.843,-0.253,0.403,0.442,0.02229489953151023,-9.094561160484988,-7.707799327615994
1621786503140.695,-0.183,0.407,0.494,0.34368645426387967,-9.46173322541985,-7.580356285700945
1621786503145.547,-0.101,0.417,0.543,0.665078008996249,-9.828905290354713,-7.452913243785896
1621786503149.275,-0.025703768932722804,0.4254516177728576,0.5806481155336386,0.912,-10.111,-7.355
1621786503150.399,-0.003,0.428,0.592,0.933076515835695,-10.11236208775809,-7.34231107720096
1621786503155.25,0.098,0.447,0.63,1.024038802902432,-10.118240602908662,-7.2875480676403726
1621786503160.102,0.202,0.469,0.675,1.115019401451216,-10.124120301454331,-7.232774033820187
1621786503164.952,0.311,0.515,0.712,1.205958799165395,-10.12999733736103,-7.178024804584099
1621786503164.954,0.3110434913923286,0.5150172153427968,0.7120172153427967,1.206,-10.13,-7.178
1621786503169.802,0.407,0.553,0.75,0.9662782883668765,-9.875431008162503,-7.153873169667892
1621786503174.652,0.478,0.613,0.801,0.7264479251043678,-9.62074663530438,-7.12973540407502
1621786503179.501,0.511,0.667,0.864,0.4866779238581843,-9.366126363013272,-7.105603713627017
1621786503180.627,0.5075169670728024,0.6758236834155674,0.8786287382942302,0.431,-9.307,-7.1
1621786503184.35,0.496,0.705,0.927,0.16081722139117427,-8.850041791323859,-7.386579094988781
1621786503189.198,0.445,0.717,0.965,-0.19098733171278975,-8.255037256918474,-7.759733264771877
1621786503194.047,0.326,0.721,0.976,-0.5428804693343305,-7.659882900149589,-8.132981394913985
1621786503196.295,0.2615375509998489,0.7029134135898857,0.9829563793885056,-0.706,-7.384,-8.306
1621786503198.894,0.187,0.682,0.991,-0.9402624361052238,-7.359611488592445,-8.43623796908116
1621786503203.741,0.066,0.618,1.021,-1.3771224909612267,-7.314131015459419,-8.679109883430993
1621786503208.588,0.002,0.559,1.038,-1.8139825458172296,-7.268650542326394,-8.921981797780825
1621786503211.961,0.007565918017927283,0.5256044918924363,1.0393914795044819,-2.118,-7.237,-9.091
1621786503213.436,0.01,0.511,1.04,-2.2880207345971564,-7.278633886255924,-9.115019549763032
1621786503218.281,0.052,0.482,1.005,-2.8464552725118484,-7.415380737091544,-9.19391196370666
1621786503223.127,0.12,0.445,0.939,-3.4050023696682468,-7.552155150910452,-9.272820279371414
1621786503227.621,0.1997726379440665,0.38377913832199545,0.8564445956160242,-3.923,-7.679,-9.346
1621786503227.972,0.206,0.379,0.85,-3.8902385422676877,-7.66470327631107,-9.336543546400112
1621786503232.817,0.311,0.309,0.763,-3.4378021270291765,-7.467265223696727,-9.205949724764919
1621786503237.661,0.408,0.248,0.684,-2.9854569058274985,-7.269866967112137,-9.075382225895488
1621786503242.505,0.482,0.201,0.644,-2.533111684625821,-7.072468710527548,-8.944814727026056
1621786503243.277,0.4853484397842416,0.19621651459394063,0.6446377980541412,-2.461,-7.041,-8.924
1621786503247.348,0.503,0.171,0.648,-2.025044429190977,-6.8779068359801565,-8.533824966459704
1621786503252.191,0.476,0.152,0.667,-1.506389597828461,-6.6838754641040845,-8.069635081588718
1621786503257.034,0.405,0.127,0.688,-0.987734766465945,-6.489844092228012,-7.6054451967177314
1621786503258.927,0.36942222558362325,0.11957167347350375,0.6938644683103917,-0.785,-6.414,-7.424
1621786503261.876,0.314,0.108,0.703,-0.5724331180380043,-6.2901910980061775,-7.47205368342226
1621786503266.718,0.222,0.105,0.733,-0.22341093325844796,-6.086904240381915,-7.550954975194234
1621786503271.559,0.155,0.106,0.784,0.1255408593091829,-5.883658382476832,-7.629840353833194
1621786503274.576,0.13879655033286262,0.10724641920516441,0.8089283841032883,0.343,-5.757,-7.679
1621786503276.4,0.129,0.108,0.824,0.4322042297487124,-5.6859864367098485,-7.72354381145622
1621786503281.241,0.154,0.105,0.857,0.6689637896051195,-5.497507257686904,-7.84176884657406
1621786503286.081,0.213,0.122,0.887,0.9056755891993133,-5.309066099578586,-7.959970032776651
1621786503290.218,0.2753983555286521,0.131402491928975,0.9049502118644068,1.108,-5.148,-8.061
1621786503290.921,0.286,0.133,0.908,1.1362285749972678,-5.0981954441131005,-8.016904089056816
1621786503295.76,0.363,0.166,0.932,1.3305733422848132,-4.755306905650361,-7.7133177567175135
1621786503300.599,0.428,0.202,0.953,1.5249181095723587,-4.412418367187621,-7.409731424378211
1621786503305.437,0.463,0.244,0.965,1.7192138518946432,-4.069616325001171,-7.10622167403082
1621786503305.855,0.46351836899475174,0.2480605571255551,0.9653455793298344,1.736,-4.04,-7.08
1621786503310.275,0.469,0.291,0.969,1.8717100245186076,-3.779606390454922,-6.755709587244077
1621786503315.113,0.436,0.33,0.955,2.020260927959021,-3.4945743444786284,-6.400734824231256
1621786503319.95,0.361,0.368,0.937,2.1687743507254074,-3.209614214545625,-6.045849624412412
1621786503321.488,0.3311406746331871,0.3807060959007714,0.9338234760248072,2.216,-3.119,-5.933
1621786503324.792,0.267,0.408,0.927,2.2403469789141472,-3.189771303114852,-5.8744021863422216
1621786503329.776,0.147,0.438,0.909,2.2770734421930507,-3.296527039595054,-5.786009681501471
1621786503334.76,0.002,0.463,0.874,2.3138017045541175,-3.403288005610697,-5.697612846666361
1621786503337.501,-0.07882516283853273,0.47784543807238355,0.8492576032126941,2.334,-3.462,-5.649
1621786503339.745,-0.145,0.49,0.829,2.261549640767575,-3.6888253554430532,-5.789720890047595
1621786503344.729,-0.271,0.517,0.773,2.1006486797829447,-4.192569133294935,-6.1022400642677415
1621786503349.713,-0.38,0.55,0.717,1.9397477187983145,-4.696312911146816,-6.414759238487889
1621786503353.608,-0.43392240999265247,0.5836038207200588,0.6763628214548126,1.814,-5.09,-6.659
1621786503354.697,-0.449,0.593,0.665,1.721844268630928,-5.225900968489974,-6.766368526349293
1621786503359.681,-0.487,0.639,0.607,1.3001300565331393,-5.847797935706816,-7.25769807059822
1621786503364.666,-0.499,0.672,0.555,0.8783125539944528,-6.469847224116764,-7.749147956167872
1621786503369.65,-0.475,0.7,0.478,0.45659834189666415,-7.091744191333605,-8.2404775004168
1621786503369.716,-0.47395131031104576,0.7001858437423463,0.4769114866519716,0.451,-7.1,-8.247
1621786503374.634,-0.396,0.714,0.396,-0.006998605511262024,-7.429453663564434,-8.639352138721314
1621786503379.618,-0.26,0.71,0.302,-0.4711359929669264,-7.763323157607543,-9.036963167308333
1621786503384.603,-0.101,0.71,0.209,-0.9353870615697093,-8.097274426289145,-9.434671582744718
1621786503385.823,-0.05963167434113843,0.7065730381111002,0.1886830116586656,-1.049,-8.179,-9.532
1621786503389.587,0.068,0.696,0.126,-1.1109184777666636,-8.11474497590252,-9.497652768936982
1621786503394.571,0.23,0.674,0.044,-1.1929101573156315,-8.029659270710194,-9.45217059197963
1621786503399.555,0.38,0.656,-0.037,-1.2748978206177444,-7.944577733321209,-9.40669064290261
1621786503401.932,0.4367404868015084,0.646940594544297,-0.06942313531514765,-1.314,-7.904,-9.385
1621786503404.54,0.499,0.637,-0.105,-1.345731522875718,-7.705516086501887,-9.151546653128646
1621786503409.524,0.597,0.621,-0.171,-1.4063668601391184,-7.3262358646400045,-8.705443814690772
1621786503414.509,0.651,0.595,-0.223,-1.4670170488126448,-6.946862745692333,-8.259231712306969
1621786503418.042,0.6531266287841677,0.5751514646811011,-0.26198819437640836,-1.51,-6.678,-7.943
1621786503419.493,0.654,0.567,-0.278,-1.5408958895389373,-6.583510821789081,-7.829054518172724
1621786503424.478,0.634,0.541,-0.319,-1.6470481978841431,-6.258864257782897,-7.437559853284428
1621786503429.462,0.604,0.503,-0.353,-1.75317451271636,-5.934297189972415,-7.046161053684561
1621786503434.15,0.5560396689357952,0.4569204662324306,-0.3887351486360743,-1.853,-5.629,-6.678
1621786503434.447,0.553,0.454,-0.391,-1.8558953796729858,-5.6156111742510335,-6.67167442530042
1621786503439.431,0.504,0.4,-0.426,-1.9044625782303646,-5.391026549074874,-6.5655690169871646
1621786503444.416,0.463,0.34,-0.457,-1.9530416723492596,-5.16638691639769,-6.4594376202815535
1621786503449.4,0.422,0.288,-0.501,-2.0016088709066384,-4.94180229122153,-6.353332211968299
1621786503450.261,0.41595558928658866,0.2779835479606326,-0.5046266464280468,-2.01,-4.903,-6.335
1621786503454.386,0.387,0.23,-0.522,-1.8770916972324108,-4.867916305435145,-6.289928976325442
1621786503459.37,0.365,0.164,-0.55,-1.7165020309800236,-4.825525584285671,-6.235470823607869
1621786503464.355,0.346,0.099,-0.56,-1.5558887659522873,-4.78312863378702,-6.181004668222741
1621786503466.369,0.3346883784710319,0.07597277045888634,-0.5684837161467261,-1.491,-4.766,-6.159
1621786503469.34,0.318,0.042,-0.581,-1.3534150211405278,-4.796799854516799,-6.028607801536666
1621786503474.324,0.291,-0.009,-0.586,-1.1226295027808508,-4.848463636776941,-5.8098874778365435
1621786503479.309,0.262,-0.063,-0.59,-0.8917874581356934,-4.900140073044691,-5.5911135829784655
1621786503482.479,0.23529180135174846,-0.08589274169850132,-0.5944513664413752,-0.745,-4.933,-5.452
1621786503484.294,0.22,-0.099,-0.597,-0.6201818884393326,-4.961726189934991,-5.383507751056962
1621786503489.279,0.173,-0.127,-0.599,-0.27734344077222645,-5.040628540255489,-5.195379794214363
1621786503494.263,0.138,-0.15,-0.593,0.06541105605309827,-5.119511569759513,-5.007297904259672
1621786503498.59,0.10935550222831676,-0.1638882413438464,-0.5903959547480288,0.363,-5.188,-4.844
1621786503499.248,0.105,-0.166,-0.59,0.40183838460372784,-5.183997726928323,-4.836812244279437
1621786503504.233,0.075,-0.175,-0.572,0.6960877860281861,-5.153675496287316,-4.782355993332323
1621786503509.218,0.035,-0.178,-0.56,0.9903515987270799,-5.123351780572814,-4.727897075314441
1621786503514.203,-0.026,-0.182,-0.548,1.2846010001515382,-5.093029549931808,-4.673440824367328
1621786503514.701,-0.03209432391400166,-0.1809010235564915,-0.5464014888094423,1.314,-5.09,-4.668
1621786503519.188,-0.087,-0.171,-0.532,1.507841342001182,-5.095291645830492,-4.7061555515146
1621786503524.173,-0.154,-0.147,-0.522,1.7231983452288948,-5.101170644481823,-4.748546226000515
1621786503529.158,-0.211,-0.133,-0.511,1.9385448015638493,-5.107049355215105,-4.790934824445758
1621786503530.812,-0.2265945442969783,-0.12603222488858418,-0.5053594201479015,2.01,-5.109,-4.805
1621786503534.143,-0.258,-0.112,-0.494,2.1398424330590533,-5.196250806928218,-4.918508751193344
1621786503539.128,-0.291,-0.087,-0.466,2.3341492930854204,-5.3268200663726875,-5.088372550802382
1621786503544.113,-0.311,-0.058,-0.429,2.5284656695610006,-5.45739572062857,-5.258244669727691
1621786503546.923,-0.3194557743167793,-0.04277960622979724,-0.41659819766872364,2.638,-5.531,-5.354
1621786503549.098,-0.326,-0.031,-0.407,2.616806546446431,-5.580001424458251,-5.437423912714047
1621786503554.083,-0.342,-0.016,-0.389,2.5682267161691166,-5.692322942870132,-5.628648977117745
1621786503559.068,-0.361,0.003,-0.356,2.5196468858918015,-5.804644461282012,-5.819874041521443
1621786503563.034,-0.3721358339046127,0.021294584271863676,-0.33770541572813634,2.481,-5.894,-5.972
1621786503564.054,-0.375,0.026,-0.333,2.4437727417375097,-5.914449667378885,-6.0229025776242215
1621786503569.039,-0.379,0.037,-0.314,2.26183320452789,-6.014392644451516,-6.271677046870028
1621786503574.024,-0.367,0.04,-0.309,2.0799025776242215,-6.114330726917307,-6.520439332636268
1621786503579.01,-0.34,0.044,-0.302,1.8979273991907988,-6.214293282417299,-6.769262535800336
1621786503579.145,-0.33886252999657185,0.043756256427836815,-0.301891669523483,1.893,-6.217,-6.776
1621786503583.995,-0.298,0.035,-0.298,1.7009590902892469,-6.311515432052,-6.914763102471249
1621786503588.98,-0.255,0.033,-0.297,1.5035820997287836,-6.408657085713419,-7.057381899725754
1621786503593.966,-0.218,0.024,-0.307,1.306156775102653,-6.505822527614054,-7.200035621751844
1621786503595.258,-0.20452248016456068,0.020371436967381723,-0.3075183661475169,1.255,-6.531,-7.237
1621786503598.951,-0.166,0.01,-0.309,1.1718057394809012,-6.5557520113941115,-7.1877251625024625
1621786503603.936,-0.12,0.0,-0.314,1.059499537871786,-6.58916542674889,-7.1212077152684135
1621786503608.921,-0.084,-0.017,-0.319,0.9471988363460053,-6.622577205715238,-7.05469352565948
1621786503611.371,-0.06680076384468492,-0.026828134945894335,-0.32096562698917885,0.892,-6.639,-7.022
1621786503613.907,-0.049,-0.037,-0.323,0.847300360638846,-6.612715352910871,-6.93543379701185
1621786503618.892,-0.021,-0.054,-0.333,0.7594287965572628,-6.561044397975574,-6.7652599933327275
1621786503623.878,-0.003,-0.065,-0.339,0.6715443222111102,-6.50936585144104,-6.595061187380671
1621786503627.483,-0.003,-0.07729355012488369,-0.33393794994857734,0.608,-6.472,-6.472
1621786503628.863,-0.003,-0.082,-0.332,0.5945533233337879,-6.435942351105253,-6.435942351105253
1621786503633.849,-0.012,-0.101,-0.333,0.5459735466569702,-6.305674287532385,-6.305674287532385
1621786503638.834,-0.031,-0.115,-0.326,0.4974056633789373,-6.175438116449253,-6.175438116449253
1621786503643.597,-0.05965739607305489,-0.13697067032267543,-0.327910493071537,0.451,-6.051,-6.051
1621786503643.82,-0.061,-0.138,-0.328,0.4481471688964984,-6.049088880134548,-6.04651302292459
1621786503648.805,-0.094,-0.161,-0.333,0.3844172942014273,-6.006396051455325,-5.946277686025546
1621786503653.791,-0.147,-0.18,-0.342,0.32067181320929106,-5.963692768072244,-5.84601780330005
1621786503658.778,-0.185,-0.22,-0.356,0.2569138471795027,-5.920981120926075,-5.745738283913393
1621786503659.71,-0.1932254873151141,-0.2271038299539622,-0.35637388578705065,0.245,-5.913,-5.727
1621786503663.763,-0.229,-0.258,-0.358,0.19569931362596402,-5.9524908559220595,-5.744355853876574
1621786503668.749,-0.267,-0.3,-0.368,0.13504827345868875,-6.001073576872377,-5.765707495568115
1621786503673.734,-0.302,-0.342,-0.382,0.07441208200124244,-6.049644403703087,-5.787053909907726
1621786503675.823,-0.3099607795132938,-0.35750257063115115,-0.3857708955589287,0.049,-6.07,-5.796
1621786503678.72,-0.321,-0.379,-0.391,0.0401902604584918,-6.089417385111896,-5.838250791678662
1621786503683.706,-0.349,-0.415,-0.407,0.025027500416672982,-6.122837346020394,-5.9109701510628945
1621786503688.692,-0.365,-0.449,-0.422,0.009865482810345612,-6.156255670540463,-5.983685949787118
1621786503691.936,-0.37476149664528136,-0.47047529261961896,-0.43501532886037514,0.0,-6.178,-6.031
1621786503693.677,-0.38,-0.482,-0.442,-0.00950814406278883,-6.203499113622933,-6.039535720238185
1621786503698.663,-0.393,-0.511,-0.459,-0.03673922332156548,-6.276527917089653,-6.063981802754587
1621786503703.649,-0.401,-0.534,-0.48,-0.06396896922680646,-6.349553144744617,-6.088426688283156
1621786503708.049,-0.401,-0.5569446212603438,-0.498532194094893,-0.088,-6.414,-6.11
1621786503708.635,-0.401,-0.56,-0.501,-0.0851637652833962,-6.432871869460479,-6.104291168583247
