time,gyro_x,gyro_y,gyro_z,acc_x,acc_y,acc_z
1621786432442.54,,,,3.099,-5.247,-7.983
1621786432461.188,,,,2.942,-5.354,-7.963
1621786432478.215,0.405,1.199,1.141,2.7039539541473467,-5.495031053580629,-7.786935754765585
1621786432480.143,0.40793205445544556,1.2025836221122113,1.1462125412541255,2.677,-5.511,-7.767
1621786432484.133,0.414,1.21,1.157,2.5572528490841098,-5.49877667490651,-7.728465449705268
1621786432490.08,0.414,1.218,1.169,2.3787714901438806,-5.4805579894783545,-7.671030271914813
1621786432496.056,0.412,1.227,1.176,2.1994255308360273,-5.462251048995373,-7.613316866324396
1621786432499.402,0.4136716672764971,1.227,1.1810150018294914,2.099,-5.452,-7.581
1621786432502.061,0.415,1.227,1.185,2.036354939734984,-5.424142652159809,-7.578282209966811
1621786432508.096,0.417,1.225,1.196,1.8941711875826617,-5.360915604022659,-7.5721137174656254
1621786432514.159,0.412,1.222,1.201,1.7513259551318843,-5.297394405210491,-7.565916527337609
1621786432518.969,0.40331757541765156,1.205424462160971,1.203367933977004,1.638,-5.247,-7.561
1621786432520.253,0.401,1.201,1.204,1.630099319784668,-5.2383677753202855,-7.550977840837959
1621786432525.176,0.386,1.194,1.208,1.5998051162208404,-5.205268552907955,-7.512549082613473
1621786432530.785,0.372,1.178,1.21,1.5652909068146725,-5.167558583371586,-7.468767168829724
1621786432536.401,0.353,1.175,1.211,1.5307331302424572,-5.1298010126723135,-7.424929989289043
1621786432536.52,0.35272450929303456,1.174872850442939,1.2112331075212786,1.53,-5.129,-7.424
1621786432542.023,0.34,1.169,1.222,1.5805137013875843,-5.117203387101103,-7.435796612898897
1621786432547.652,0.33,1.168,1.227,1.6321860355887168,-5.105136195281677,-7.447863804718323
1621786432553.287,0.321,1.162,1.236,1.683912155452374,-5.093056442738667,-7.459943557261333
1621786432554.713,0.31872516771261633,1.1617472408569574,1.2349889634278295,1.697,-5.09,-7.463
1621786432558.928,0.312,1.161,1.232,1.7013863742729158,-5.04244246840944,-7.467386374272916
1621786432564.575,0.305,1.155,1.237,1.7072628200842415,-4.978729424349803,-7.4732628200842415
1621786432570.229,0.3,1.147,1.236,1.7131466336832253,-4.914936497960821,-7.479146633683225
1621786432572.971,0.29660885131346243,1.14506220075055,1.2326088513134625,1.716,-4.884,-7.482
1621786432575.889,0.293,1.143,1.229,1.7066046499233896,-4.858998814202918,-7.455565625208181
1621786432581.555,0.284,1.138,1.223,1.6883610685497301,-4.810452334954367,-7.404236226767037
1621786432587.228,0.272,1.134,1.225,1.6700946905602558,-4.761845193524749,-7.352842688694957
1621786432591.295,0.25982571686513906,1.1289870598856455,1.2235677313958988,1.657,-4.727,-7.316
1621786432592.907,0.255,1.127,1.223,1.6475328306295303,-4.725246820486951,-7.285056381594669
1621786432598.592,0.232,1.133,1.216,1.6141461115683828,-4.719064094734886,-7.1759312720707324
1621786432604.285,0.209,1.134,1.213,1.5807135119347901,-4.712872872580516,-7.066656201046119
1621786432609.685,0.18625065352474823,1.1292605528176558,1.2101563316905934,1.549,-4.707,-6.963
1621786432609.982,0.185,1.129,1.21,1.5480670899470899,-4.70889798941799,-6.959364867724868
1621786432615.687,0.152,1.134,1.21,1.5301392592592593,-4.745371851851852,-6.889508148148148
1621786432621.397,0.113,1.141,1.203,1.5121960846560847,-4.781876931216932,-6.81959164021164
1621786432627.114,0.072,1.14,1.204,1.4942306613756615,-4.818427275132275,-6.749588439153439
1621786432628.142,0.06337715967748815,1.139281429973124,1.204359285013438,1.491,-4.825,-6.737
1621786432632.837,0.024,1.136,1.206,1.5432154851975852,-4.86226056467983,-6.771725832388685
1621786432638.566,-0.014,1.138,1.211,1.6069330398333905,-4.907728916774313,-6.814101099306672
1621786432644.302,-0.061,1.138,1.218,1.6707293385706379,-4.953253460047979,-6.856528734874647
1621786432646.664,-0.07457519452357668,1.137177260937965,1.2208795867171223,1.697,-4.972,-6.874
1621786432650.044,-0.094,1.136,1.225,1.7360960437135502,-5.007641044501655,-6.950737350916828
1621786432655.792,-0.115,1.143,1.237,1.8025852992171492,-5.068254505332844,-7.08124184311459
1621786432661.547,-0.127,1.143,1.243,1.869156451951873,-5.128942625965428,-7.211907082435769
1621786432665.251,-0.12828584142051955,1.1410712378692207,1.2475004449718186,1.912,-5.168,-7.296
1621786432667.308,-0.129,1.14,1.25,1.9142057880338748,-5.170205788033875,-7.333829264780953
1621786432673.075,-0.124,1.129,1.257,1.9203893768243039,-5.176389376824304,-7.439877812536814
1621786432678.848,-0.115,1.131,1.257,1.926579510203013,-5.182579510203013,-7.546038599981675
1621786432683.903,-0.10450487856388595,1.1248778458289335,1.257,1.932,-5.188,-7.639
1621786432684.628,-0.103,1.124,1.257,1.932,-5.185715468784641,-7.638264303506919
1621786432690.414,-0.098,1.121,1.258,1.932,-5.167479231060161,-7.632391616782086
1621786432696.207,-0.086,1.107,1.257,1.932,-5.149221448413474,-7.626511991861967
1621786432702.005,-0.077,1.094,1.257,1.932,-5.13094827653664,-7.620627411088071
1621786432702.623,-0.07721323003073814,1.094,1.257,1.932,-5.129,-7.62
1621786432707.803,-0.079,1.094,1.257,1.9264761780786253,-5.1019332725852635,-7.576637997917209
1621786432713.605,-0.086,1.096,1.255,1.9202889872429054,-5.071616037490236,-7.528068549856808
1621786432719.414,-0.098,1.1,1.255,1.9140942462900286,-5.04126180682114,-7.479439833376725
1621786432721.378,-0.10070182215131414,1.0979736333865144,1.2566886388445713,1.912,-5.031,-7.463
1621786432725.229,-0.106,1.094,1.26,1.912,-5.018926442925158,-7.47098082586303
1621786432731.051,-0.122,1.086,1.264,1.912,-5.0006737412918545,-7.483046171010469
1621786432736.877,-0.136,1.087,1.271,1.912,-4.982408793119106,-7.4951196113280485
1621786432740.197,-0.143968608739327,1.087,1.2715691863385232,1.912,-4.972,-7.502
1621786432742.71,-0.15,1.087,1.272,1.8989582519878465,-4.977190083392592,-7.517703329239123
1621786432748.549,-0.162,1.087,1.276,1.8686542116491047,-4.989249854547806,-7.55419186760618
1621786432754.394,-0.178,1.086,1.272,1.8383197621048548,-5.001321727325619,-7.590717021139052
1621786432759.08,-0.1836073619631902,1.0884031551270814,1.27760736196319,1.814,-5.011,-7.62
1621786432760.244,-0.185,1.089,1.279,1.8128327319122612,-5.015853377838493,-7.630198236977086
1621786432766.101,-0.185,1.072,1.288,1.8069581926437612,-5.040279093744362,-7.681523159007139
1621786432771.964,-0.188,1.063,1.29,1.801077776632214,-5.064729244529216,-7.732899425213289
1621786432777.833,-0.188,1.061,1.292,1.7951914838776193,-5.089203830193056,-7.784327035595536
1621786432778.024,-0.18806499335106383,1.0604800531914893,1.292,1.795,-5.09,-7.786
1621786432783.708,-0.19,1.045,1.292,1.7597138214932504,-5.09,-7.803643089253375
1621786432789.589,-0.192,1.031,1.297,1.7232045545037697,-5.09,-7.821897722748115
1621786432795.476,-0.195,1.025,1.304,1.6866589131356204,-5.09,-7.8401705434321896
1621786432797.032,-0.19605613787960394,1.0213035174213863,1.3029438621203961,1.677,-5.09,-7.845
1621786432801.369,-0.199,1.011,1.3,1.6569880688728158,-5.094320757857005,-7.824988068872815
1621786432807.268,-0.204,0.993,1.302,1.6297673814248224,-5.100197951737822,-7.797767381424822
1621786432813.173,-0.211,0.977,1.293,1.6025196569160853,-5.106080983165845,-7.770519656916085
1621786432816.103,-0.21000863243980009,0.9755129486597001,1.2925043162199,1.589,-5.109,-7.757
1621786432819.084,-0.209,0.974,1.292,1.573732241971087,-5.127383627014406,-7.747808186492797
1621786432825.002,-0.22,0.962,1.286,1.5434218034272007,-5.163879869342758,-7.729560065328621
1621786432830.924,-0.22,0.951,1.286,1.5130901075625536,-5.200401707220599,-7.711299146389701
1621786432835.237,-0.2163633743669974,0.9473633743669974,1.280181398987196,1.491,-5.227,-7.698
1621786432836.854,-0.215,0.946,1.278,1.4793750858538324,-5.233570603647834,-7.698
1621786432842.79,-0.216,0.937,1.267,1.4366983287120654,-5.257692248988833,-7.698
1621786432848.731,-0.218,0.932,1.264,1.3939864668922184,-5.2818337361043985,-7.698
1621786432854.432,-0.21512414302721786,0.9224138100907263,1.2582482860544357,1.353,-5.305,-7.698
1621786432854.678,-0.215,0.922,1.258,1.3532555197850389,-5.305127759892519,-7.697757256204214
1621786432860.631,-0.209,0.899,1.248,1.3594366650612182,-5.308218332530609,-7.691885168191843
1621786432866.591,-0.201,0.887,1.243,1.3656249081092042,-5.311312454054602,-7.686006337296257
1621786432872.556,-0.194,0.873,1.236,1.371818220994195,-5.314409110497098,-7.680122690055515
1621786432873.694,-0.19285632512879222,0.8712844876931883,1.23352203777905,1.373,-5.315,-7.679
1621786432878.527,-0.188,0.864,1.223,1.3877585736308726,-5.3124985468422254,-7.654485759053805
1621786432884.505,-0.185,0.859,1.218,1.4060129520584295,-5.3094045843968765,-7.624164927089389
1621786432890.488,-0.182,0.845,1.211,1.4242837322146125,-5.306307841997523,-7.5938168515757285
1621786432893.015,-0.18113316582914574,0.8371984924623115,1.207532663316583,1.432,-5.305,-7.581
1621786432896.318,-0.18,0.827,1.203,1.432,-5.324319116305512,-7.556314462498513
1621786432902.033,-0.171,0.813,1.199,1.432,-5.357742758173909,-7.513606475666671
1621786432907.748,-0.164,0.803,1.19,1.432,-5.391167827914909,-7.470896664330949
1621786432911.481,-0.164,0.7892828947368421,1.1913063909774435,1.432,-5.413,-7.443
1621786432913.463,-0.164,0.782,1.192,1.421483482927732,-5.425662745046201,-7.427225224391598
1621786432919.179,-0.155,0.77,1.189,1.391152956417137,-5.462183174926304,-7.381729434625705
1621786432924.894,-0.15,0.754,1.183,1.360827611733136,-5.498697365464183,-7.336241417599704
1621786432929.95,-0.15,0.7416142344497607,1.183,1.334,-5.531,-7.296
1621786432930.609,-0.15,0.74,1.183,1.3294340091459387,-5.536600473156934,-7.293895363590706
1621786432936.324,-0.145,0.721,1.176,1.289832201104914,-5.585174565832253,-7.275641405196796
1621786432942.039,-0.141,0.7,1.175,1.2502303930638894,-5.633748658507573,-7.257387446802887
1621786432947.754,-0.136,0.677,1.171,1.2106302767571568,-5.68232067616505,-7.239134268192752
1621786432948.422,-0.13576615831517794,0.6751292665214235,1.1704153957879448,1.206,-5.688,-7.237
1621786432953.469,-0.134,0.661,1.166,1.1953439073714263,-5.7494774574725405,-7.247929325772896
1621786432959.185,-0.127,0.641,1.159,1.1832748721202269,-5.819106506998692,-7.260307823466434
1621786432964.9,-0.127,0.634,1.14,1.1712084142908126,-5.888720686783774,-7.272683677650448
1621786432966.893,-0.12420996198043488,0.6374875475244565,1.1368612072279891,1.167,-5.913,-7.277
1621786432970.615,-0.119,0.644,1.131,1.1393928330667653,-5.9408086791006305,-7.353977647945223
1621786432976.33,-0.112,0.653,1.152,1.0970014804436043,-5.983509457655348,-7.472178353799585
1621786432982.045,-0.096,0.635,1.147,1.0546119387202093,-6.026208412092052,-7.590374010283796
1621786432985.363,-0.0838076380879149,0.6199046947755137,1.132485283437994,1.03,-6.051,-7.659
1621786432987.76,-0.075,0.609,1.122,1.024808655765443,-6.0484043278827215,-7.664061560628693
1621786432993.477,-0.049,0.585,1.1,1.0124267339951618,-6.042213366997581,-7.676133934354717
1621786432999.192,-0.016,0.562,1.093,1.000049571045222,-6.036024785522611,-7.688201668230909
1621786433003.832,0.009981118373275234,0.5490094408133624,1.0897523602033405,0.99,-6.031,-7.698
1621786433004.907,0.016,0.546,1.089,0.9718099884487328,-6.031,-7.6774764014405115
1621786433010.46,0.04,0.527,1.082,0.877844098661412,-6.031,-7.571455677108107
1621786433016.01,0.054,0.515,1.065,0.7839277841951485,-6.031,-7.465490888088605
1621786433021.556,0.063,0.508,1.04,0.6900817014337162,-6.031,-7.359605340762384
1621786433021.797,0.063,0.5068688185300982,1.0388688185300983,0.686,-6.031,-7.355
1621786433027.1,0.063,0.482,1.014,0.49138012437607403,-6.036924501541063,-7.23591751902463
1621786433032.64,0.038,0.473,0.983,0.2880690614515997,-6.043113574993863,-7.111517142623353
1621786433038.177,0.016,0.461,0.946,0.08485655838311101,-6.049299648146633,-6.98717707225268
1621786433039.699,0.010225486304088923,0.45715032420272594,0.9377506947201271,0.029,-6.051,-6.953
1621786433043.712,-0.005,0.447,0.916,-0.16032858294505856,-6.075255619167338,-7.016783294847446
1621786433049.243,-0.007,0.422,0.881,-0.42127882000901795,-6.108686966264501,-7.104695355732575
1621786433054.771,0.007,0.401,0.867,-0.6820908358041728,-6.142100605298755,-7.192560850970801
1621786433057.567,0.02369977905435263,0.37569730446310207,0.8573849756959788,-0.814,-6.159,-7.237
1621786433060.296,0.04,0.351,0.848,-0.9850301769560278,-6.167872764099687,-7.2310338310364175
1621786433065.818,0.08,0.284,0.829,-1.3311145903187396,-6.185827053880578,-7.21896111894237
1621786433071.337,0.106,0.182,0.801,-1.676984795193584,-6.203770230877663,-7.206895879237433
1621786433075.406,0.13181858015402317,0.10159356466318491,0.7685423563777994,-1.932,-6.217,-7.198
1621786433076.853,0.141,0.073,0.757,-1.9742585112363402,-6.192295024200293,-7.134287167674441
1621786433082.365,0.159,-0.005,0.719,-2.135228716767444,-6.098189365582109,-6.891593627027546
1621786433087.875,0.157,-0.061,0.688,-2.2961418836466345,-6.004117052637352,-6.648986083117381
1621786433093.212,0.12986037334279255,-0.11334070855318584,0.6657067352458653,-2.452,-5.913,-6.414
1621786433093.381,0.129,-0.115,0.665,-2.4508767153394966,-5.912067102570091,-6.418198038434594
1621786433098.885,0.096,-0.185,0.628,-2.414335114493331,-5.8817189933927665,-6.554764529732552
1621786433104.385,0.054,-0.237,0.579,-2.3778194480693418,-5.851392422972843,-6.691234096622207
1621786433109.882,0.014,-0.265,0.527,-2.3413232324619844,-5.82108200662097,-6.827630970205635
1621786433110.985,0.008778967954131295,-0.26640566247388775,0.5179635983821503,-2.334,-5.815,-6.855
1621786433115.375,-0.012,-0.272,0.482,-2.2139502942646163,-5.993701848870135,-7.141272375215147
1621786433120.805,-0.04,-0.269,0.424,-2.0654588029537506,-6.214741158181112,-7.495367469879518
1621786433126.23,-0.061,-0.246,0.368,-1.917100841152629,-6.435581700072178,-7.849144148020654
1621786433128.574,-0.061,-0.2447030933405376,0.3394680534918276,-1.853,-6.531,-8.002
1621786433131.652,-0.061,-0.243,0.302,-1.97385862588603,-6.601720767985712,-8.17633900764637
1621786433137.068,-0.037,-0.223,0.236,-2.18651152536697,-6.726155215716917,-8.483091588993693
1621786433142.481,0.026,-0.239,0.166,-2.3990398085617013,-6.8505167438745325,-8.789664410894682
1621786433146.071,0.07114198004604759,-0.2635625479662318,0.11488334612432846,-2.54,-6.933,-8.993
1621786433147.889,0.094,-0.276,0.089,-2.573743674382824,-6.8849881670046855,-8.929678536960626
1621786433153.294,0.169,-0.332,0.023,-2.674072872228827,-6.742235820686761,-8.74140646199035
1621786433158.694,0.23,-0.407,-0.037,-2.7743114343660396,-6.599612434435975,-8.553304468843976
1621786433163.526,0.28193548095195003,-0.47863514614062075,-0.0790856483576147,-2.864,-6.472,-8.385
1621786433164.09,0.288,-0.487,-0.084,-2.8410883301548124,-6.450708674556878,-8.342709011106125
1621786433169.482,0.333,-0.557,-0.115,-2.6221336661431454,-6.247238781691721,-7.938556484182185
1621786433174.869,0.368,-0.621,-0.14,-2.4033772857303117,-6.04395314954005,-7.534769954565851
1621786433180.253,0.375,-0.658,-0.155,-2.184739875476778,-5.840778073816469,-7.1312030233340815
1621786433180.936,0.3728411473698543,-0.6606668179548859,-0.1552539826623701,-2.157,-5.815,-7.08
1621786433185.632,0.358,-0.679,-0.157,-1.9184791851195748,-5.716833270066219,-6.841479185119575
1621786433191.008,0.314,-0.681,-0.155,-1.6454233835252436,-5.604453161246784,-6.568423383525244
1621786433196.379,0.255,-0.663,-0.147,-1.3726279893711248,-5.492180226918048,-6.295627989371125
1621786433198.301,0.22993131368267833,-0.647958788209607,-0.14735812409024746,-1.275,-5.452,-6.198
1621786433201.746,0.185,-0.621,-0.148,-1.161841533366218,-5.5281681770136,-6.168765738848566
1621786433207.109,0.101,-0.565,-0.145,-0.9856925093369036,-5.646735973504334,-6.123257994503559
1621786433212.468,0.012,-0.52,-0.141,-0.8096637728137552,-5.765222803185117,-6.077781326192658
1621786433215.624,-0.029255129023433944,-0.4728512811160755,-0.15455525667912828,-0.706,-5.835,-6.051
1621786433217.823,-0.058,-0.44,-0.164,-0.6222133603296189,-5.970053350701573,-6.155956475568834
1621786433223.173,-0.106,-0.38,-0.169,-0.4183607543857165,-6.298637688136266,-6.4113152193920175
1621786433228.498,-0.119,-0.358,-0.161,-0.21546629475979445,-6.6256776162090985,-6.665473728177609
1621786433232.867,-0.12146317962835512,-0.3374735030970406,-0.15607364074328975,-0.049,-6.894,-6.874
1621786433233.819,-0.122,-0.333,-0.155,-0.01910835561117115,-6.951121324156761,-6.89956595187987
1621786433239.135,-0.106,-0.309,-0.15,0.147778994368921,-7.270034070871964,-7.042302627836869
1621786433244.447,-0.073,-0.29,-0.126,0.314543711961777,-7.5887124736931915,-7.184934417837438
1621786433249.754,-0.033,-0.278,-0.094,0.48114747454638546,-7.907083300153575,-7.327428545020192
1621786433250.036,-0.030128585240090235,-0.27693651305188527,-0.09261746696745085,0.49,-7.924,-7.335
1621786433255.057,0.021,-0.258,-0.068,0.5187431260695949,-7.964181717056475,-7.3725420422133485
1621786433260.355,0.082,-0.248,-0.031,0.5490725328009127,-8.006580989731889,-7.412155961209355
1621786433265.65,0.126,-0.25,0.003,0.5793837706788363,-8.048954863091842,-7.451746149458072
1621786433267.155,0.13823665989660266,-0.25199201440177255,0.010968057607090104,0.588,-8.061,-7.463
1621786433270.939,0.169,-0.257,0.031,0.44235395837803043,-7.9326452692555245,-7.3825288993778155
1621786433276.224,0.208,-0.265,0.059,0.2389249946363441,-7.753367689337052,-7.270132074662089
1621786433281.505,0.241,-0.269,0.072,0.035665179146105896,-7.574239176142459,-7.157828706286204
1621786433284.224,0.25336925639720514,-0.2741538568321688,0.08179232798112072,-0.069,-7.482,-7.1
1621786433286.781,0.265,-0.279,0.091,-0.14995899664400653,-7.381965321400912,-7.008677050167799
1621786433292.052,0.283,-0.272,0.101,-0.31685527636749555,-7.1757446863436884,-6.820415569514958
1621786433297.319,0.29,-0.278,0.117,-0.48362787195594176,-6.969676878065571,-6.632293606402203
1621786433301.247,0.2855210875516169,-0.278,0.12894376652902148,-0.608,-6.816,-6.492
1621786433302.581,0.284,-0.278,0.133,-0.6395856317045814,-6.781271519369589,-6.449650110724455
1621786433307.839,0.265,-0.272,0.145,-0.7640841218256593,-6.644385119783728,-6.282723030686491
1621786433313.093,0.243,-0.271,0.152,-0.888484340398608,-6.50760677000949,-6.11592771274913
1621786433318.225,0.21855697674418606,-0.271,0.15884404651162792,-1.01,-6.374,-5.953
1621786433318.342,0.218,-0.271,0.159,-1.011830168548236,-6.372176737748172,-5.953538691119858
1621786433323.587,0.19,-0.265,0.157,-1.093912654814943,-6.29040399671266,-5.977698819153078
1621786433328.827,0.168,-0.26,0.155,-1.1759187248583416,-6.20870738353735,-6.001836454863964
1621786433334.064,0.15,-0.26,0.138,-1.2578789451677552,-6.127056447078161,-6.025960595181452
1621786433335.158,0.1466544097060196,-0.25811810545963604,0.1354908072795147,-1.275,-6.11,-6.031
1621786433339.296,0.134,-0.251,0.126,-1.200526898505478,-6.146011664209523,-6.055007776139681
1621786433344.524,0.12,-0.243,0.115,-1.1064347989477639,-6.191510146561443,-6.085340097707628
1621786433349.747,0.101,-0.232,0.113,-1.012430578440725,-6.236966134767149,-6.115644089844766
1621786433352.049,0.09747134771015578,-0.22361945081161996,0.11167675539130842,-0.971,-6.257,-6.129
1621786433354.966,0.093,-0.213,0.11,-0.9540254566541027,-6.294240069585387,-6.16468118295158
1621786433360.18,0.084,-0.19,0.105,-0.9236849521600464,-6.360803421281531,-6.228458161786024
1621786433365.39,0.086,-0.159,0.096,-0.8933671788924326,-6.427316903450276,-6.292187358654682
1621786433368.89,0.08936210131332083,-0.1435343339587242,0.09465515947467167,-0.873,-6.472,-6.335
1621786433370.595,0.091,-0.136,0.094,-0.8709695608564825,-6.486923727704854,-6.3370304391435175
1621786433375.796,0.098,-0.105,0.093,-0.8647761981596964,-6.532444943526231,-6.3432238018403035
1621786433380.993,0.112,-0.084,0.091,-0.858587487098978,-6.577931969822511,-6.349412512901022
1621786433385.685,0.12284440682747919,-0.060503785207128416,0.086481497155217,-0.853,-6.619,-6.355
1621786433386.185,0.124,-0.058,0.086,-0.8600455976676384,-6.616671370262391,-6.349148571428572
1621786433391.372,0.138,-0.035,0.079,-0.9331367930029154,-6.592514110787172,-6.288445714285714
1621786433396.554,0.148,-0.012,0.07,-1.0061557434402333,-6.568380728862974,-6.227802857142857
1621786433401.733,0.155,0.009,0.061,-1.0791334110787172,-6.544260991253645,-6.167194285714285
1621786433402.433,0.155,0.010894945490584737,0.059781820756052664,-1.089,-6.541,-6.159
1621786433406.906,0.155,0.023,0.052,-1.1283677478768035,-6.501632252123197,-6.103831591410738
1621786433412.075,0.141,0.037,0.045,-1.1738616596746136,-6.456138340325387,-6.040078218415167
1621786433417.24,0.126,0.047,0.033,-1.2193211910365291,-6.410678808963471,-5.976373024805953
1621786433419.135,0.11755306363851431,0.05214161343742607,0.029327418973267093,-1.236,-6.394,-5.953
1621786433422.4,0.103,0.061,0.023,-1.236,-6.390079161474749,-5.925946214175768
1621786433427.556,0.073,0.07,0.01,-1.236,-6.383887268196144,-5.883222150553397
1621786433432.707,0.038,0.077,0.003,-1.236,-6.377701238730484,-5.840538547240343
1621786433435.789,0.021233469310312114,0.08238924200739967,0.002401195332511147,-1.236,-6.374,-5.815
1621786433437.854,0.01,0.086,0.002,-1.2626547938378552,-6.388629142664497,-5.855168154434722
1621786433443.013,-0.016,0.084,-0.005,-1.3292476584143178,-6.42517778461809,-5.955522052680181
1621786433448.168,-0.037,0.091,-0.019,-1.3957901001128652,-6.461698752620084,-6.055799964821248
1621786433452.445,-0.0469638845442912,0.0934909711360728,-0.03394582681643679,-1.451,-6.492,-6.139
1621786433453.319,-0.049,0.094,-0.037,-1.4448459956217035,-6.49768061942612,-6.165299164009815
1621786433458.465,-0.047,0.096,-0.056,-1.408613005597755,-6.531126456371303,-6.320141001718996
1621786433463.607,-0.038,0.099,-0.073,-1.3724092384996254,-6.564545318308038,-6.474857955129806
1621786433468.744,-0.024,0.096,-0.087,-1.3362398513142237,-6.597932444940716,-6.629427985836651
1621786433469.062,-0.02307039239001189,0.09618592152199762,-0.0881775029726516,-1.334,-6.6,-6.639
1621786433473.877,-0.009,0.099,-0.106,-1.2683365105555475,-6.5799522974704985,-6.6218577616052094
1621786433479.006,0.01,0.103,-0.127,-1.198388013966028,-6.55859634054715,-6.603596870902636
1621786433484.13,0.024,0.091,-0.15,-1.128512765361894,-6.537262746946773,-6.585355102461733
1621786433485.634,0.028112817089452603,0.09041245470150677,-0.15734431623116535,-1.108,-6.531,-6.58
1621786433489.25,0.038,0.089,-0.175,-1.0200398581769834,-6.449604047865268,-6.51348287782538
1621786433494.366,0.047,0.099,-0.194,-0.8955914906189983,-6.334442871916088,-6.419372669522825
1621786433499.477,0.045,0.103,-0.208,-0.7712618998374945,-6.2193916088048455,-6.325352282464174
1621786433502.16,0.03712145110410094,0.10562618296529969,-0.21587854889589905,-0.706,-6.159,-6.276
1621786433504.585,0.03,0.108,-0.223,-0.6180309524162138,-6.128696281267124,-6.25584655598833
1621786433509.688,0.003,0.117,-0.232,-0.43291779097492705,-6.064928202242199,-6.213437687898939
1621786433514.786,-0.028,0.14,-0.236,-0.24799061060675626,-6.001224190275906,-6.1710714275135885
1621786433518.645,-0.050727534148094895,0.14378792235801582,-0.23069690869877785,-0.108,-5.953,-6.139
1621786433519.88,-0.058,0.145,-0.229,-0.0962057626615179,-5.958859557403832,-6.159658695975049
1621786433524.97,-0.103,0.157,-0.225,-0.04759009356898856,-5.9830125649784645,-6.244813530372791
1621786433530.055,-0.141,0.161,-0.213,0.0009766077528590572,-6.00714124461607,-6.3298825931976825
1621786433535.083,-0.17959335960023062,0.15209384009225446,-0.20112512012300598,0.049,-6.031,-6.414
1621786433535.136,-0.18,0.152,-0.201,0.049064439495174465,-6.032169576837417,-6.416400371195248
1621786433540.213,-0.199,0.138,-0.188,0.05523964365256125,-6.144249532293986,-6.646426726057906
1621786433545.308,-0.225,0.12,-0.171,0.06143711952487009,-6.256733719376392,-6.87728270230141
1621786433550.4,-0.236,0.103,-0.152,0.06763043801039348,-6.369142449888642,-7.107983815887156
1621786433551.526,-0.23777035650880474,0.09923799241878987,-0.14845928698239047,0.069,-6.394,-7.159
1621786433555.488,-0.244,0.086,-0.136,0.05476593973449881,-6.448282433215894,-7.376612243381052
1621786433560.571,-0.241,0.051,-0.12,0.03650522528950929,-6.517920751014583,-7.6557845218451295
1621786433565.65,-0.23,0.037,-0.108,0.018259421130089645,-6.587502207554743,-7.93472884984168
1621786433567.949,-0.21912795843756014,0.023409948046950162,-0.10029897055993843,0.01,-6.619,-8.061
1621786433570.725,-0.206,0.007,-0.091,-7.304275237030727e-07,-6.6223900781110245,-8.125919995826129
1621786433575.796,-0.169,-0.01,-0.079,-0.018267828394251985,-6.628582314709916,-8.244501326694891
1621786433580.863,-0.126,-0.035,-0.07,-0.036521733945501164,-6.63477007930356,-8.362997018663169
1621786433584.327,-0.09726550294146012,-0.04320985630243997,-0.06863169061626001,-0.049,-6.639,-8.444
1621786433585.926,-0.084,-0.047,-0.068,-0.05095814648729447,-6.6246076233183855,-8.394948430493274
1621786433590.984,-0.031,-0.054,-0.063,-0.057151569506726466,-6.579085964125561,-8.239803183856502
1621786433596.038,0.0,-0.054,-0.059,-0.06334050822122572,-6.5335972645739915,-8.084770269058296
1621786433600.66,0.028365846585141862,-0.04759480883561313,-0.05259480883561313,-0.069,-6.492,-7.943
1621786433601.089,0.031,-0.047,-0.052,-0.06278361127343013,-6.486310423877376,-7.922348945925293
1621786433606.136,0.051,-0.045,-0.04,0.010313765151855683,-6.419407740369488,-7.679516983563326
1621786433611.178,0.054,-0.031,-0.033,0.0833404204312192,-6.35256978469007,-7.436919959245441
1621786433616.216,0.058,-0.012,-0.024,0.15631049879384487,-6.2857836112734295,-7.194510885362821
1621786433616.954,0.05697371356515835,-0.010240651825985742,-0.0219474271303167,0.167,-6.276,-7.159
1621786433621.25,0.051,0.0,-0.01,0.21353417679674236,-6.237133386425448,-7.057735285720725
1621786433626.279,0.04,0.028,0.005,0.26801005244098514,-6.191633649381677,-6.939188351790356
1621786433631.304,0.033,0.052,0.014,0.3224409700830942,-6.146171462487415,-6.820739252603267
1621786433633.202,0.02922070977151191,0.0606923675255226,0.018535148274185707,0.343,-6.129,-6.776
1621786433636.326,0.023,0.075,0.026,0.3543403932525198,-6.142262493803794,-6.7458230213449895
1621786433641.343,0.017,0.105,0.035,0.372552731587881,-6.163561669145149,-6.697359680350893
1621786433646.385,0.01,0.127,0.049,0.3908554669310381,-6.184966563021045,-6.648655791386898
1621786433649.455,0.008172592520829297,0.14101012400697538,0.05630962991668281,0.402,-6.198,-6.619
1621786433651.425,0.007,0.15,0.061,0.402,-6.219326045170591,-6.619
1621786433656.46,0.002,0.171,0.072,0.402,-6.273831811629025,-6.619
1621786433661.491,0.005,0.192,0.08,0.402,-6.328295290725612,-6.619
1621786433665.713,0.008359331746879705,0.20543732698751882,0.09175766111407896,0.402,-6.374,-6.619
1621786433666.518,0.009,0.208,0.094,0.402,-6.378865991177489,-6.621929525300733
1621786433671.541,0.007,0.223,0.101,0.402,-6.409221631712862,-6.6402048599087635
1621786433676.56,0.007,0.243,0.113,0.402,-6.43955366525647,-6.658465982144201
1621786433681.575,0.012,0.251,0.122,0.402,-6.469860616371329,-6.676712003733758
1621786433681.929,0.012353158945881437,0.25227137220517315,0.12249442252423401,0.402,-6.472,-6.678
1621786433686.587,0.017,0.269,0.129,0.38501068566340163,-6.472,-6.73443907813514
1621786433691.594,0.024,0.286,0.133,0.36674799643811223,-6.472,-6.795108350815763
1621786433696.598,0.033,0.286,0.138,0.3484968833481746,-6.472,-6.855739167182335
1621786433698.105,0.03450671222845985,0.2887120820112277,0.13950671222845984,0.343,-6.472,-6.874
1621786433701.599,0.038,0.295,0.143,0.33022471519130975,-6.4678859252311005,-6.897385267107433
1621786433706.595,0.037,0.295,0.138,0.311958878617789,-6.462003706673525,-6.930821035750488
1621786433711.587,0.042,0.304,0.147,0.29370732408430034,-6.456126087416979,-6.96423066099823
1621786433714.242,0.04359652556887693,0.30932175189625644,0.14487129924149741,0.284,-6.453,-6.982
1621786433716.576,0.045,0.314,0.143,0.26703576303576304,-6.4473452543452545,-6.996209360876028
1621786433721.56,0.051,0.314,0.148,0.2308093093093093,-6.43526976976977,-7.026552886219553
1621786433726.541,0.058,0.321,0.148,0.1946059241059241,-6.423201974701975,-7.056877089210422
1621786433730.339,0.06563271514081052,0.31565709940143266,0.148,0.167,-6.414,-7.08
1621786433731.517,0.068,0.314,0.148,0.1598251699441612,-6.409680459456179,-7.0786089615197865
1621786433736.49,0.072,0.314,0.148,0.12953623452294247,-6.391445284049526,-7.072736616897306
1621786433741.459,0.079,0.305,0.148,0.09927109128429232,-6.37322443250789,-7.066868885044914
1621786433746.429,0.07701162336393827,0.305,0.1450174350459074,0.069,-6.355,-7.061
1621786433746.458,0.077,0.305,0.145,0.06907025856848735,-6.355,-7.061
1621786433751.453,0.073,0.302,0.145,0.08114941867506359,-6.355,-7.061
1621786433756.444,0.08,0.307,0.15,0.09321972265956158,-6.355,-7.061
1621786433761.432,0.08,0.295,0.147,0.1052817609301199,-6.355,-7.061
1621786433762.556,0.08045104090129807,0.2922937545922116,0.147,0.108,-6.355,-7.061
1621786433766.416,0.082,0.283,0.147,0.08448921933085501,-6.364356331082619,-7.065558212578712
1621786433771.396,0.091,0.278,0.147,0.054157620817843866,-6.376427069266368,-7.071438828616949
1621786433776.373,0.087,0.271,0.143,0.023843866171003716,-6.388490706319703,-7.077315985130111
1621786433778.646,0.08791413422357504,0.2678005302174874,0.14391413422357502,0.01,-6.394,-7.08
1621786433781.346,0.089,0.264,0.145,0.02968062970568104,-6.400560209901894,-7.093288630314093
1621786433786.315,0.094,0.262,0.143,0.06590088980150582,-6.412633629933835,-7.117745045250589
1621786433791.281,0.106,0.258,0.143,0.10209979466119097,-6.4246999315537305,-7.142187040839607
1621786433794.697,0.11357142857142857,0.25455844155844154,0.14093506493506494,0.127,-6.433,-7.159
1621786433796.244,0.117,0.253,0.14,0.1289321491194633,-6.427300160097583,-7.162767690782953
1621786433801.203,0.131,0.257,0.14,0.13512624837996492,-6.409027567279103,-7.1748461843409315
1621786433806.158,0.141,0.255,0.133,0.14131546847602347,-6.3907693679957305,-7.186915163528246
1621786433810.709,0.1511090021691974,0.2632710017747979,0.133,0.147,-6.374,-7.198
1621786433811.11,0.152,0.264,0.133,0.147,-6.372518553045817,-7.19604147690803
1621786433816.058,0.161,0.253,0.129,0.147,-6.354244368371183,-7.171882385304277
1621786433821.002,0.173,0.248,0.131,0.147,-6.335985512119082,-7.147743558394718
1621786433825.943,0.173,0.246,0.129,0.147,-6.317736574258031,-7.123617843934346
1621786433826.684,0.17330018297809208,0.2456998170219079,0.1282495425547698,0.147,-6.315,-7.12
1621786433830.88,0.175,0.244,0.124,0.1625303109205085,-6.315,-7.076041323326696
1621786433835.813,0.176,0.248,0.127,0.18078967682646652,-6.315,-7.024358033389493
1621786433840.743,0.182,0.25,0.126,0.19903729514473883,-6.315,-6.972707995098791
1621786433842.624,0.182,0.2484731236066386,0.126,0.206,-6.315,-6.953
1621786433845.671,0.182,0.246,0.126,0.22094312512472558,-6.326303133107165,-6.930393733785672
1621786433850.594,0.182,0.246,0.119,0.2450880063859509,-6.344566568932963,-6.893866862134074
1621786433855.513,0.194,0.251,0.12,0.26921253242865695,-6.362814607862702,-6.857370784274596
1621786433858.528,0.19461345122193524,0.24793274389032385,0.12368070733161136,0.284,-6.374,-6.835
1621786433860.428,0.195,0.246,0.126,0.2910659443820311,-6.376395235383739,-6.818592637621386
1621786433865.34,0.197,0.251,0.124,0.30933461579895044,-6.382588005355577,-6.7761721633143015
1621786433870.249,0.192,0.239,0.127,0.32759148340233,-6.388776774034688,-6.733779097862387
1621786433874.392,0.19368931362301528,0.239,0.127,0.343,-6.394,-6.698
1621786433875.154,0.194,0.239,0.127,0.343,-6.393037070175709,-6.6941964271940515
1621786433880.055,0.19,0.241,0.129,0.343,-6.386843589466702,-6.669732178393471
1621786433884.952,0.182,0.232,0.127,0.343,-6.380655045277139,-6.6452874288447
1621786433889.846,0.171,0.22,0.127,0.343,-6.374470203477161,-6.620857303734785
1621786433890.218,0.17061972252719834,0.22,0.12730422197824134,0.343,-6.374,-6.619
1621786433894.738,0.166,0.22,0.131,0.3261087090987815,-6.357108709098782,-6.596669140842457
1621786433899.625,0.155,0.208,0.126,0.3078461526566463,-6.338846152656647,-6.572525422156244
1621786433904.508,0.145,0.204,0.124,0.2895981938516731,-6.320598193851674,-6.548401002041195
1621786433906.006,0.13916613290632504,0.20092954363490792,0.12338590872698159,0.284,-6.315,-6.541
1621786433909.387,0.126,0.194,0.122,0.28829315476190476,-6.327664806547619,-6.530481770833334
1621786433914.264,0.122,0.188,0.113,0.2944861111111111,-6.345934027777778,-6.515309027777778
1621786433919.136,0.106,0.18,0.115,0.30067286706349206,-6.364184957837302,-6.5001514756944445
1621786433921.756,0.10330933159504588,0.18107626736198165,0.11392373263801836,0.304,-6.374,-6.492
1621786433924.005,0.101,0.182,0.113,0.304,-6.385306230577998,-6.49758155686762
1621786433928.87,0.091,0.176,0.112,0.304,-6.409767262274705,-6.509657256059664
1621786433933.733,0.079,0.169,0.106,0.304,-6.434216019266626,-6.521726895587321
1621786433937.469,0.07592386552088044,0.17053806723955978,0.10753806723955978,0.304,-6.453,-6.531
1621786433938.591,0.075,0.171,0.108,0.3054315750128487,-6.454359996262206,-6.535938933794328
1621786433943.446,0.072,0.169,0.101,0.31162572225077484,-6.460244436138236,-6.557308741765173
1621786433948.296,0.068,0.168,0.103,0.3178133283496083,-6.466122661932128,-6.578655982806148
1621786433953.144,0.066,0.168,0.099,0.3239987540687443,-6.471998816365307,-6.599995701537168
1621786433953.145,0.06599941346106848,0.1679992179480913,0.09899980448702284,0.324,-6.472,-6.6
1621786433958.139,0.063,0.164,0.098,0.33607149882726794,-6.484381024438224,-6.605880986608156
1621786433963.132,0.065,0.159,0.099,0.34814122720738444,-6.496760233033215,-6.611761110690777
1621786433968.122,0.058,0.157,0.098,0.3602032836498449,-6.5091315729742,-6.617637497162745
1621786433969.279,0.05753609710733689,0.15630414566100534,0.09823195144633155,0.363,-6.512,-6.619
1621786433973.11,0.056,0.154,0.099,0.3675183523777771,-6.5072438396023395,-6.62851232079532
1621786433978.097,0.056,0.148,0.098,0.3733998120813506,-6.501052829388052,-6.640894341223896
1621786433983.081,0.052,0.145,0.094,0.3792781044463977,-6.4948651532143185,-6.653269693571364
1621786433985.389,0.048293304577982546,0.14639001078325653,0.09492667385550436,0.382,-6.492,-6.659
1621786433988.062,0.044,0.148,0.096,0.382,-6.492,-6.668803636198079
1621786433993.04,0.044,0.143,0.094,0.382,-6.492,-6.687060658947081
1621786433998.016,0.04,0.141,0.094,0.382,-6.492,-6.705310518567981
1621786434001.476,0.03652186717714623,0.14517375938742452,0.094,0.382,-6.492,-6.718
1621786434002.99,0.035,0.147,0.094,0.3783233501071803,-6.493885461483497,-6.7272387612691364
1621786434007.961,0.037,0.141,0.084,0.36625106040105204,-6.500076379281512,-6.757574258479408
1621786434012.93,0.045,0.138,0.086,0.35418351399425335,-6.506264864618331,-6.787897836629825
1621786434017.535,0.04221867780781519,0.13614578520521015,0.07765603342344557,0.343,-6.512,-6.816
1621786434017.897,0.042,0.136,0.077,0.34433233341454506,-6.512654875746132,-6.816429056523328
1621786434022.861,0.052,0.138,0.073,0.362599585820441,-6.521633694725302,-6.822311731026922
1621786434027.824,0.052,0.134,0.072,0.38086234620538434,-6.530610305761969,-6.828192958947497
1621786434032.784,0.059,0.126,0.065,0.39911432574004146,-6.539581617736631,-6.834070715068827
1621786434033.568,0.059949172576832147,0.12505082742316784,0.06515819542947203,0.402,-6.541,-6.835
1621786434037.741,0.065,0.12,0.066,0.40460644138099305,-6.53344131999512,-6.804504635842381
1621786434042.695,0.065,0.122,0.059,0.4077008661705502,-6.5244674881054046,-6.768299865804563
1621786434047.648,0.059,0.124,0.065,0.4107945284860315,-6.515495867390508,-6.732104016713432
1621786434049.578,0.05977977805178791,0.11971122071516646,0.06266066584463625,0.412,-6.512,-6.718
1621786434052.598,0.061,0.113,0.059,0.4101106138595714,-6.504442455438285,-6.710442455438286
1621786434057.545,0.049,0.11,0.063,0.4070156557865314,-6.492062623146126,-6.698062623146126
1621786434062.49,0.042,0.106,0.059,0.40392191962853785,-6.479687678514152,-6.685687678514151
1621786434065.562,0.03640783171201423,0.10972811219199052,0.05837864796800158,0.402,-6.472,-6.678
1621786434067.434,0.033,0.112,0.058,0.40774724669603524,-6.472,-6.68949449339207
1621786434072.375,0.024,0.106,0.058,0.4229158406754773,-6.472,-6.719831681350954
1621786434077.312,0.014,0.099,0.054,0.4380724424865394,-6.472,-6.7501448849730785
1621786434081.523,0.00973449401523395,0.10241240478781284,0.05826550598476605,0.451,-6.472,-6.776
1621786434082.248,0.009,0.103,0.059,0.4434009499004137,-6.472910065880191,-6.77782013176038
1621786434087.181,0.016,0.099,0.075,0.3917043817986824,-6.479101271640877,-6.790202543281753
1621786434092.112,0.0,0.079,0.045,0.340025723916041,-6.485290332465145,-6.802580664930289
1621786434097.041,-0.009,0.113,0.03,0.2883700934579439,-6.491476635514019,-6.814953271028037
1621786434097.458,-0.007222332358626158,0.11156093571888785,0.03177766764137384,0.284,-6.492,-6.816
1621786434101.967,0.012,0.096,0.051,0.32566131631040246,-6.505887105436801,-6.838106004572866
1621786434106.89,0.021,0.052,0.066,0.3711461168996578,-6.52104870563322,-6.862240796722268
1621786434111.813,0.012,0.089,0.051,0.41663317323185045,-6.536211057743951,-6.886376785796492
1621786434113.368,0.012622976475766616,0.09055744118941654,0.046639164669633686,0.431,-6.541,-6.894
1621786434116.805,0.014,0.094,0.037,0.4436431137359961,-6.553643113735997,-6.894
1621786434121.753,0.03,0.075,0.044,0.461844419751583,-6.571844419751583,-6.894
1621786434126.698,0.038,0.072,0.045,0.48003494885533365,-6.590034948855333,-6.894
1621786434129.407,0.04293131203397363,0.072,0.045,0.49,-6.6,-6.894
1621786434131.642,0.047,0.072,0.045,0.49,-6.602660319645178,-6.872017358721419
1621786434136.583,0.049,0.065,0.047,0.49,-6.60854120975759,-6.82342263516097
1621786434141.522,0.059,0.056,0.038,0.49,-6.614419775177793,-6.774847120899289
1621786434145.37,0.06211779250321432,0.06301503313223222,0.038,0.49,-6.619,-6.737
1621786434146.459,0.063,0.065,0.038,0.4940305731703581,-6.619,-6.728938853659284
1621786434151.394,0.066,0.075,0.047,0.5122982875348467,-6.619,-6.692403424930307
1621786434156.327,0.072,0.07,0.049,0.530557868455718,-6.619,-6.655884263088564
1621786434161.257,0.07,0.068,0.052,0.548807508501057,-6.619,-6.619384982997886
1621786434161.309,0.07002110478077782,0.068,0.05198944760961109,0.549,-6.619,-6.619
1621786434166.185,0.072,0.068,0.051,0.5251027182917102,-6.625127508130331,-6.58621783150273
1621786434171.11,0.065,0.059,0.054,0.5009649321961097,-6.63131668405228,-6.553105740320304
1621786434176.034,0.061,0.063,0.054,0.476833128796711,-6.637504325949561,-6.520001856169847
1621786434177.224,0.06051629706801607,0.06372555439797589,0.05327444560202411,0.471,-6.639,-6.512
1621786434180.955,0.059,0.066,0.051,0.45714761326798686,-6.639,-6.518808800258108
1621786434185.874,0.056,0.068,0.051,0.4388844351580144,-6.639,-6.527785616617247
1621786434190.79,0.056,0.066,0.051,0.4206321344620443,-6.639,-6.5367570864508595
1621786434193.115,0.055053943969799325,0.06931119610570237,0.049107887939598645,0.412,-6.639,-6.541
1621786434195.705,0.054,0.073,0.047,0.412,-6.642264558812217,-6.541
1621786434200.618,0.056,0.061,0.051,0.412,-6.648456727440572,-6.541
1621786434205.528,0.058,0.066,0.047,0.412,-6.654645511193169,-6.541
1621786434208.983,0.05518430085061931,0.066,0.05051962393672586,0.412,-6.659,-6.541
1621786434210.436,0.054,0.066,0.052,0.412,-6.653589174280827,-6.541
1621786434215.341,0.054,0.063,0.052,0.412,-6.635324910247916,-6.541
1621786434220.244,0.049,0.058,0.044,0.412,-6.6170688279071195,-6.541
1621786434224.828,0.050870212659993023,0.06267553164998257,0.044,0.412,-6.6,-6.541
1621786434225.146,0.051,0.063,0.044,0.412,-6.5992158233415115,-6.541402141876148
1621786434230.044,0.047,0.054,0.049,0.412,-6.5871420304615524,-6.547593830532537
1621786434234.941,0.038,0.045,0.044,0.412,-6.5750706448775516,-6.553784284678178
1621786434239.835,0.035,0.04,0.044,0.412,-6.563006481181427,-6.559971035291576
1621786434240.649,0.0343345973455743,0.040665402654425704,0.043334597345574294,0.412,-6.561,-6.561
1621786434244.728,0.031,0.044,0.04,0.41690583999134584,-6.555835957903846,-6.561
1621786434249.618,0.028,0.04,0.037,0.4227867993633034,-6.549645474354418,-6.561
1621786434254.506,0.017,0.031,0.037,0.42866570337974624,-6.543457154337109,-6.561
1621786434256.447,0.017,0.03338392723274526,0.03620535758908491,0.431,-6.541,-6.561
1621786434259.391,0.017,0.037,0.035,0.431,-6.555557247655307,-6.571824620051382
1621786434264.274,0.017,0.037,0.037,0.431,-6.57970062215619,-6.589777385705884
1621786434269.155,0.01,0.031,0.033,0.431,-6.603835546475996,-6.607723867892407
1621786434272.222,0.01251441152922338,0.025971176941553244,0.033,0.431,-6.619,-6.619
1621786434274.034,0.014,0.023,0.033,0.4377864858581945,-6.619,-6.623601007361487
1621786434278.91,0.012,0.024,0.035,0.45604836884928324,-6.619,-6.635981944982564
1621786434283.785,0.016,0.021,0.033,0.4743065943432778,-6.619,-6.648360402944595
1621786434287.975,0.014279915814792543,0.013259621166566447,0.033,0.49,-6.619,-6.659
1621786434288.657,0.014,0.012,0.033,0.4934250787786591,-6.615618276648918,-6.657265782896881
1621786434293.527,0.01,0.012,0.026,0.51788747458127,-6.5914655314260875,-6.6448797597056855
1621786434298.395,0.012,0.016,0.024,0.5423388336101581,-6.567323683270983,-6.63249932475435
1621786434303.26,0.005,0.012,0.024,0.566775476940749,-6.543196364539514,-6.6201263407894935
1621786434303.703,0.004726793513730609,0.01172679351373061,0.02418213765751293,0.569,-6.541,-6.619
1621786434308.123,0.002,0.009,0.026,0.5799771624898948,-6.551977162489895,-6.594231017971519
1621786434312.984,-0.003,0.01,0.028,0.5920487065481002,-6.564048706548101,-6.566992662147876
1621786434317.843,-0.009,0.01,0.024,0.6041160064672595,-6.5761160064672595,-6.539763882843107
1621786434319.407,-0.012220066351663818,0.009677993364833617,0.026254046446164674,0.608,-6.58,-6.531
1621786434322.7,-0.019,0.009,0.031,0.603800354952206,-6.584199645047794,-6.545488775414889
1621786434327.553,-0.016,0.007,0.031,0.5976111093813246,-6.590388890618676,-6.56684167263443
1621786434332.406,-0.014,0.009,0.031,0.591421863810443,-6.596578136189557,-6.588194569853971
1621786434335.089,-0.017873420270882637,0.009,0.029339962741050298,0.588,-6.6,-6.6
1621786434337.255,-0.021,0.009,0.028,0.579978078859976,-6.602627870718283,-6.60539405042174
1621786434342.103,-0.021,0.005,0.031,0.5620207673958122,-6.608510438266888,-6.617468794337299
1621786434346.948,-0.012,0.005,0.024,0.5440752116496983,-6.6143891548044085,-6.629535633545893
1621786434350.748,-0.009646065433281241,0.002646065433281242,0.02321535514442708,0.53,-6.619,-6.639
1621786434351.791,-0.009,0.002,0.023,0.5326014208759466,-6.6203340619876645,-6.639
1621786434356.631,-0.01,-0.002,0.028,0.5446737918650949,-6.62652502146928,-6.639
1621786434361.47,-0.012,-0.002,0.026,0.5567431181200718,-6.632714419548755,-6.639
1621786434366.307,-0.01,0.002,0.024,0.5688075728003746,-6.638901319384808,-6.639
1621786434366.384,-0.009920206050199484,0.002015958789960103,0.024,0.569,-6.639,-6.639
1621786434371.141,-0.005,0.003,0.024,0.569,-6.639,-6.6271164870908725
1621786434375.973,-0.007,0.0,0.026,0.569,-6.639,-6.615046350884326
1621786434380.802,-0.007,0.0,0.024,0.569,-6.639,-6.602982923358406
1621786434381.996,-0.006505335018963338,-0.0004946649810366624,0.023258002528445006,0.569,-6.639,-6.6
1621786434385.63,-0.005,-0.002,0.021,0.578092099492513,-6.639,-6.5862452853831215
1621786434390.455,-0.007,0.005,0.024,0.5901652152120794,-6.639,-6.567980828268905
1621786434395.278,-0.012,0.0,0.014,0.6022328331558173,-6.639,-6.549724688302738
1621786434397.583,-0.011043804122145137,0.0,0.018302881450346888,0.608,-6.639,-6.541
1621786434400.099,-0.01,0.0,0.023,0.6112332549019608,-6.6357667450980395,-6.541
1621786434404.917,-0.017,0.0,0.019,0.6174243137254902,-6.62957568627451,-6.541
1621786434409.734,-0.016,0.0,0.023,0.6236141176470589,-6.623385882352941,-6.541
1621786434413.147,-0.01954480450327096,-0.0014179218013083829,0.020164156397383233,0.628,-6.619,-6.541
1621786434414.548,-0.021,-0.002,0.019,0.624393741359809,-6.6208031293200955,-6.541
1621786434419.359,-0.019,0.0,0.021,0.6120115621465376,-6.626994218926731,-6.541
1621786434424.169,-0.024,0.0,0.019,0.599631268065854,-6.6331843659670735,-6.541
1621786434428.688,-0.02964042661249365,0.0,0.019,0.588,-6.639,-6.541
1621786434428.976,-0.03,0.0,0.019,0.5872760280653179,-6.639,-6.541
1621786434433.781,-0.031,-0.002,0.017,0.5752010351445741,-6.639,-6.541
1621786434438.583,-0.033,-0.005,0.021,0.5631334046502847,-6.639,-6.541
1621786434443.385,-0.033,-0.009,0.019,0.5510657741559953,-6.639,-6.541
1621786434444.207,-0.03334264488882105,-0.008657355111178953,0.019,0.549,-6.639,-6.541
1621786434448.183,-0.035,-0.007,0.019,0.5389911123717677,-6.639,-6.551008887628233
1621786434452.979,-0.035,-0.009,0.017,0.5269184985581241,-6.639,-6.563081501441876
1621786434457.773,-0.037,-0.01,0.017,0.5148508013047794,-6.639,-6.575149198695221
1621786434459.7,-0.035391481556959446,-0.008793611167719585,0.015793611167719584,0.51,-6.639,-6.58
1621786434462.565,-0.033,-0.007,0.014,0.5137037037037037,-6.639,-6.5872222222222225
1621786434467.354,-0.038,-0.005,0.017,0.5198947434865628,-6.639,-6.599294749798798
1621786434472.141,-0.038,-0.012,0.014,0.5260832583755464,-6.639,-6.611362353832315
1621786434475.171,-0.03736680442879738,-0.012,0.01589958671360784,0.53,-6.639,-6.619
1621786434476.926,-0.037,-0.012,0.017,0.5344309917028842,-6.641272303437376,-6.619
1621786434481.708,-0.037,-0.012,0.012,0.5465035796128013,-6.647463374160411,-6.619
1621786434486.49,-0.038,-0.01,0.016,0.5585761675227182,-6.653654444883445,-6.619
1621786434490.619,-0.03540759286699709,-0.01,0.016,0.569,-6.659,-6.619
1621786434491.268,-0.035,-0.01,0.016,0.5681583445437999,-6.659,-6.619
1621786434496.044,-0.037,-0.005,0.017,0.5619663686001424,-6.659,-6.619
1621786434500.818,-0.038,-0.003,0.016,0.5557766083722403,-6.659,-6.619
1621786434505.589,-0.033,-0.002,0.017,0.5495909630450265,-6.659,-6.619
1621786434506.045,-0.032330927148927456,-0.0020955818358675063,0.01671325449239748,0.549,-6.659,-6.619
1621786434510.358,-0.026,-0.003,0.014,0.549,-6.653399124962351,-6.624600875037649
1621786434515.125,-0.03,-0.005,0.017,0.549,-6.6472085506396335,-6.630791449360366
1621786434519.891,-0.024,0.0,0.019,0.549,-6.641019244487421,-6.636980755512579
1621786434521.446,-0.026285721609843632,0.00163265829274545,0.01834693668290182,0.549,-6.639,-6.639
1621786434524.653,-0.031,0.005,0.017,0.5531706883413767,-6.639,-6.626696469392939
1621786434529.414,-0.024,0.002,0.017,0.5593622682245365,-6.639,-6.608431308737617
1621786434534.172,-0.026,0.0,0.019,0.5655500381000762,-6.639,-6.590177387604776
1621786434536.825,-0.027115834873690695,0.0,0.02178958718422674,0.569,-6.639,-6.58
1621786434538.927,-0.028,0.0,0.024,0.5636606773731913,-6.644339322626809,-6.574660677373191
1621786434543.681,-0.026,0.005,0.019,0.551585498489426,-6.656414501510574,-6.562585498489426
1621786434548.432,-0.031,0.007,0.023,0.5395177611702974,-6.668482238829703,-6.550517761170298
1621786434552.179,-0.023111430921052632,0.009366570723684211,0.023,0.53,-6.678,-6.541
1621786434553.182,-0.021,0.01,0.023,0.5261405732484077,-6.678,-6.5435511464968155
1621786434557.929,-0.028,0.012,0.024,0.5078731210191083,-6.678,-6.555626242038217
1621786434562.674,-0.024,0.007,0.021,0.4896131847133758,-6.678,-6.567696369426752
1621786434567.417,-0.017,0.012,0.024,0.47136170382165604,-6.678,-6.579760907643312
1621786434567.511,-0.01703966822935449,0.011940497655968265,0.023980165885322757,0.471,-6.678,-6.58
1621786434572.156,-0.019,0.009,0.023,0.471,-6.690136637642331,-6.574235097119893
1621786434576.895,-0.016,0.009,0.021,0.471,-6.702518865818263,-6.568353538736325
1621786434581.63,-0.016,0.009,0.017,0.471,-6.714890249736867,-6.562477131374988
1621786434582.82,-0.01373735237997009,0.010257026455572173,0.01800562116445774,0.471,-6.718,-6.561
1621786434586.364,-0.007,0.014,0.021,0.46172623021513787,-6.718,-6.549639632013544
1621786434591.095,-0.007,0.007,0.016,0.4493462969765696,-6.718,-6.5344742137962974
1621786434595.824,-0.007,0.012,0.017,0.43697147466100206,-6.718,-6.519315056459727
1621786434598.106,-0.009413250025818446,0.012,0.017,0.431,-6.718,-6.512
1621786434600.552,-0.012,0.012,0.017,0.42635215075264343,-6.714794586725961,-6.505589173451922
1621786434605.276,-0.017,0.005,0.021,0.4173760817749908,-6.70860419432758,-6.49320838865516
1621786434609.999,-0.014,0.005,0.016,0.4084014045078624,-6.70241476172956,-6.4808295234591204
1621786434613.368,-0.017568768427041845,0.009996275797858584,0.016,0.402,-6.698,-6.472
1621786434614.719,-0.019,0.012,0.016,0.40022670832331975,-6.698,-6.473773291676681
1621786434619.436,-0.021,0.007,0.012,0.39403556837298725,-6.698,-6.479964431627013
1621786434624.152,-0.021,0.003,0.009,0.38784571016582553,-6.698,-6.486154289834174
1621786434628.606,-0.021,-0.0017251864898466633,0.007109925404061334,0.382,-6.698,-6.492
1621786434628.865,-0.021,-0.002,0.007,0.382,-6.698340407783499,-6.492340407783499
1621786434633.577,-0.026,-0.003,0.009,0.382,-6.7045325569084175,-6.498532556908417
1621786434638.286,-0.033,-0.002,0.005,0.382,-6.710720855992428,-6.504720855992428
1621786434642.993,-0.028,-0.003,0.005,0.382,-6.716906588382502,-6.510906588382501
1621786434643.825,-0.027646252854473738,-0.0024693792817106082,0.004469379281710609,0.382,-6.718,-6.512
1621786434647.697,-0.026,0.0,0.002,0.382,-6.718,-6.5168422811781905
1621786434652.4,-0.026,0.0,0.0,0.382,-6.718,-6.522723546142597
1621786434657.1,-0.026,-0.003,0.0,0.382,-6.718,-6.5286014526522145
1621786434659.018,-0.025183325536670305,-0.0025916627683351527,-0.0012250116949945424,0.382,-6.718,-6.531
1621786434661.797,-0.024,-0.002,-0.003,0.3785192963821295,-6.714336101454873,-6.53649584781769
1621786434666.493,-0.021,-0.005,0.0,0.372637907171366,-6.708145165443543,-6.545782251834685
1621786434671.186,-0.024,-0.009,-0.009,0.36675988155014805,-6.701957770052788,-6.555063344920819
1621786434674.188,-0.019521282131335208,-0.012199084191903423,-0.0077203663232386305,0.363,-6.698,-6.561
1621786434675.878,-0.017,-0.014,-0.007,0.36076846448950645,-6.695768464489507,-6.558768464489506
1621786434680.567,-0.017,-0.012,-0.009,0.3545767755246784,-6.689576775524679,-6.552576775524678
1621786434685.253,-0.016,-0.012,-0.01,0.34838895515651697,-6.683388955156517,-6.546388955156517
1621786434689.334,-0.018613236060448148,-0.012,-0.0117421573736321,0.343,-6.678,-6.541
1621786434689.938,-0.019,-0.012,-0.012,0.3437988375847595,-6.678,-6.54060058120762
1621786434694.62,-0.014,-0.017,-0.016,0.34999128188569584,-6.678,-6.537504359057152
1621786434699.3,-0.016,-0.017,-0.017,0.35618082014853086,-6.678,-6.534409589925734
1621786434703.977,-0.017,-0.023,-0.019,0.3623664836938973,-6.678,-6.531316758153051
1621786434704.456,-0.017204833742235217,-0.02330725061335282,-0.019409667484470428,0.363,-6.678,-6.531
1621786434708.654,-0.019,-0.026,-0.023,0.363,-6.672716674482914,-6.531
1621786434713.327,-0.023,-0.021,-0.023,0.363,-6.666835729417662,-6.531
1621786434717.998,-0.026,-0.019,-0.023,0.363,-6.660956935168265,-6.531
1621786434719.553,-0.02533378661087866,-0.019666213389121338,-0.02333310669456067,0.363,-6.659,-6.531
1621786434722.666,-0.024,-0.021,-0.024,0.363,-6.659,-6.533065039597065
1621786434727.333,-0.024,-0.03,-0.023,0.363,-6.659,-6.536160898505191
1621786434731.997,-0.03,-0.024,-0.03,0.363,-6.659,-6.539254813999061
1621786434734.628,-0.0305643362136685,-0.027386017282010996,-0.028871327572663,0.363,-6.659,-6.541
1621786434736.659,-0.031,-0.03,-0.028,0.36030134786628387,-6.66156371952703,-6.548961023794463
1621786434741.319,-0.028,-0.03,-0.028,0.3541092728658784,-6.667446190777415,-6.567227645045659
1621786434745.977,-0.035,-0.033,-0.031,0.34792011743143075,-6.67332588844014,-6.585485653577279
1621786434749.68,-0.03181816751455394,-0.034590916242723035,-0.030204541878638483,0.343,-6.678,-6.6
1621786434750.632,-0.031,-0.035,-0.03,0.3442669947858292,-6.678,-6.601203645046537
1621786434755.285,-0.03,-0.035,-0.035,0.35045837597258095,-6.678,-6.607085457173952
1621786434759.936,-0.024,-0.04,-0.035,0.35664748306612737,-6.678,-6.612965108912821
1621786434764.585,-0.019,-0.04,-0.031,0.3628336663255527,-6.678,-6.618841983009275
1621786434764.71,-0.019134524435102468,-0.039946190225959015,-0.031161429322122965,0.363,-6.678,-6.619
1621786434769.231,-0.024,-0.038,-0.037,0.363,-6.666250191165704,-6.61327573415765
1621786434773.875,-0.023,-0.038,-0.038,0.363,-6.654180590580005,-6.6073956723338485
1621786434778.518,-0.017,-0.042,-0.042,0.363,-6.642113528024079,-6.601516846986089
1621786434779.716,-0.017,-0.042,-0.042,0.363,-6.639,-6.6
1621786434783.158,-0.017,-0.042,-0.042,0.3719597171071929,-6.639,-6.6
1621786434787.795,-0.016,-0.044,-0.042,0.3840303588306228,-6.639,-6.6
1621786434792.43,-0.012,-0.049,-0.044,0.39609591630544605,-6.639,-6.6
1621786434794.698,-0.012,-0.044594140275069825,-0.04204184012225325,0.402,-6.639,-6.6
1621786434797.063,-0.012,-0.04,-0.04,0.39883824009400093,-6.635838240094001,-6.6
1621786434801.694,-0.016,-0.047,-0.04,0.3926469090671715,-6.629646909067172,-6.6
1621786434806.322,-0.019,-0.044,-0.037,0.38645982113714994,-6.62345982113715,-6.6
1621786434809.658,-0.017557736964323414,-0.04472113151783829,-0.03772113151783829,0.382,-6.619,-6.6
1621786434810.948,-0.017,-0.045,-0.038,0.3837271924950152,-6.61563197463472,-6.6
1621786434815.573,-0.017,-0.058,-0.04,0.38991945869970257,-6.60355705553558,-6.6
1621786434820.195,-0.019,-0.049,-0.04,0.3961078024384663,-6.591489785244991,-6.6
1621786434824.596,-0.023762986841409924,-0.05185779210484595,-0.04190519473656397,0.402,-6.58,-6.6
1621786434824.815,-0.024,-0.052,-0.042,0.4021468373493976,-6.58,-6.6
1621786434829.432,-0.024,-0.047,-0.038,0.4052425353588266,-6.58,-6.6
1621786434834.047,-0.03,-0.044,-0.035,0.4083370874803562,-6.58,-6.6
1621786434838.66,-0.037,-0.044,-0.042,0.41143000261917234,-6.58,-6.6
1621786434839.51,-0.03663128077513634,-0.04326256155027267,-0.04107820193784084,0.412,-6.58,-6.6
1621786434843.271,-0.035,-0.04,-0.037,0.412,-6.594901628055679,-6.6098502287147705
1621786434847.879,-0.033,-0.037,-0.031,0.412,-6.613158903480728,-6.621918597216074
1621786434852.485,-0.038,-0.04,-0.031,0.412,-6.6314094076369425,-6.633982489793911
1621786434854.401,-0.0367519351076238,-0.03791989184603966,-0.031,0.412,-6.639,-6.639
1621786434857.09,-0.035,-0.035,-0.031,0.412,-6.639,-6.649672748472706
1621786434861.691,-0.028,-0.031,-0.031,0.412,-6.639,-6.667932207843395
1621786434866.291,-0.03,-0.028,-0.031,0.412,-6.639,-6.6861887604282995
1621786434869.267,-0.026115566413511072,-0.029294811195496307,-0.027762972011259227,0.412,-6.639,-6.698
1621786434870.888,-0.024,-0.03,-0.026,0.4109080053292103,-6.63681601065842,-6.69374122078392
1621786434875.483,-0.019,-0.026,-0.03,0.4078122933697386,-6.6306245867394775,-6.681667944141981
1621786434880.076,-0.014,-0.028,-0.028,0.40471789726466767,-6.624435794529335,-6.669599799332204
1621786434884.11,-0.010484442316898037,-0.028,-0.030636668262326472,0.402,-6.619,-6.659
1621786434884.666,-0.01,-0.028,-0.031,0.401249777602056,-6.618287288721953,-6.657499555204112
1621786434889.254,-0.01,-0.033,-0.028,0.395058218839577,-6.612405307897598,-6.645116437679154
1621786434893.842,-0.009,-0.031,-0.031,0.3888663305986623,-6.6065230140687285,-6.632732661197324
1621786434898.425,-0.012,-0.03,-0.035,0.38268136140489606,-6.600647293334651,-6.620362722809792
1621786434898.93,-0.012771312872975277,-0.03088150042625746,-0.03477962489343564,0.382,-6.6,-6.619
1621786434903.007,-0.019,-0.038,-0.033,0.3767651493903948,-6.589254780327652,-6.613765149390394
1621786434907.586,-0.019,-0.038,-0.031,0.3708861300381106,-6.5771873195519115,-6.607886130038111
1621786434912.163,-0.019,-0.037,-0.035,0.365009304934585,-6.565124362760463,-6.602009304934585
1621786434913.728,-0.021394471423234963,-0.039736538769411384,-0.03431586530764716,0.363,-6.561,-6.6
1621786434916.738,-0.026,-0.045,-0.033,0.36687127747479753,-6.572817583870434,-6.603871277474798
1621786434921.312,-0.03,-0.045,-0.035,0.37275402412824327,-6.59077544207569,-6.609754024128243
1621786434925.882,-0.026,-0.04,-0.037,0.37863174681870765,-6.608717963972897,-6.615631746818708
1621786434928.501,-0.028293319080705502,-0.04,-0.03757332977017638,0.382,-6.619,-6.619
1621786434930.45,-0.03,-0.04,-0.038,0.37948945643538134,-6.619,-6.6267958984375
1621786434935.016,-0.03,-0.045,-0.037,0.3736076204978814,-6.619,-6.6450605468749995
1621786434939.58,-0.028,-0.037,-0.038,0.36772861493644066,-6.619,-6.66331640625
1621786434943.251,-0.024780644470613424,-0.04343871105877315,-0.03960967776469329,0.363,-6.619,-6.678
1621786434944.141,-0.024,-0.045,-0.04,0.363,-6.615494579451646,-6.675642906872659
1621786434948.7,-0.024,-0.049,-0.038,0.363,-6.59754155753738,-6.663571047309618
1621786434953.257,-0.024,-0.051,-0.044,0.363,-6.579595265722905,-6.6515037131585055
1621786434957.813,-0.024,-0.049,-0.045,0.363,-6.561653781122567,-6.639439611444486
1621786434957.979,-0.024145883614910164,-0.049109412711182625,-0.04507294180745508,0.363,-6.561,-6.639
1621786434962.365,-0.028,-0.052,-0.047,0.3746355559246035,-6.572635555924603,-6.627364444075397
1621786434966.916,-0.035,-0.045,-0.042,0.3867089429544134,-6.584708942954413,-6.615291057045587
1621786434971.464,-0.038,-0.047,-0.045,0.39877455783442667,-6.596774557834427,-6.603225442165573
1621786434972.68,-0.0396047261009667,-0.048337271750805585,-0.04312781954887218,0.402,-6.6,-6.6
1621786434976.01,-0.044,-0.052,-0.038,0.39746248399061895,-6.6,-6.6
1621786434980.553,-0.044,-0.045,-0.042,0.3912723008599325,-6.6,-6.6
1621786434985.094,-0.044,-0.037,-0.044,0.38508477902895827,-6.6,-6.6
1621786434987.358,-0.045495966874596686,-0.03600268875026887,-0.04449865562486556,0.382,-6.6,-6.6
1621786434989.634,-0.047,-0.035,-0.045,0.3790490445965982,-6.596893731154314,-6.606057224249088
1621786434994.171,-0.038,-0.038,-0.044,0.37316707481633266,-6.590702184017192,-6.618130741166475
1621786434998.706,-0.037,-0.037,-0.044,0.36728732070568243,-6.584512969163876,-6.630199710130442
1621786435002.013,-0.034081919534658264,-0.0391885603490063,-0.0461885603490063,0.363,-6.58,-6.639
1621786435003.239,-0.033,-0.04,-0.047,0.3597320507900489,-6.581675871389718,-6.639
1621786435007.769,-0.035,-0.037,-0.045,0.34765781789665123,-6.587867785694025,-6.639
1621786435012.297,-0.035,-0.044,-0.047,0.3355887908164117,-6.594057030350558,-6.639
1621786435016.645,-0.036921765404122155,-0.044,-0.04892176540412216,0.324,-6.6,-6.639
1621786435016.822,-0.037,-0.044,-0.049,0.3242302202760972,-6.599757662867265,-6.639472557408832
1621786435021.346,-0.04,-0.042,-0.045,0.3301143329879333,-6.593563860012702,-6.651550472975232
1621786435025.868,-0.044,-0.045,-0.047,0.3359959053381021,-6.58737273122305,-6.663623174115052
1621786435030.387,-0.042,-0.049,-0.044,0.34187366714577,-6.581185613530769,-6.675688053615001
1621786435031.253,-0.04238341800886391,-0.048616581991136096,-0.044,0.343,-6.58,-6.678
1621786435034.904,-0.044,-0.047,-0.044,0.3527643641599143,-6.575243002075939,-6.678
1621786435039.418,-0.047,-0.049,-0.042,0.36483613473515036,-6.569361883077748,-6.678
1621786435043.93,-0.045,-0.051,-0.042,0.3769026819795085,-6.5634833087792135,-6.678
1621786435045.836,-0.04457738320792508,-0.051,-0.042,0.382,-6.561,-6.678
1621786435048.44,-0.044,-0.051,-0.042,0.382,-6.564148708068551,-6.681314429545843
1621786435053.171,-0.044,-0.044,-0.04,0.382,-6.569869284193844,-6.687336088625099
1621786435058.239,-0.047,-0.045,-0.045,0.382,-6.575997545097186,-6.6937868895759856
1621786435061.549,-0.04109151656013946,-0.04303050552004649,-0.041717509200077475,0.382,-6.58,-6.698
1621786435063.281,-0.038,-0.042,-0.04,0.37996090830698476,-6.582146412308437,-6.698
1621786435068.276,-0.038,-0.054,-0.044,0.37408019545846505,-6.58833663635951,-6.698
1621786435073.271,-0.033,-0.047,-0.038,0.3681991951710262,-6.594527162977867,-6.698
1621786435077.687,-0.034768565142996824,-0.044347152285504766,-0.04772710828648252,0.363,-6.6,-6.698
1621786435078.265,-0.035,-0.044,-0.049,0.3622837365530389,-6.599283736553039,-6.6972837365530395
1621786435083.259,-0.03,-0.045,-0.044,0.3560936710392931,-6.593093671039293,-6.691093671039293
1621786435088.253,-0.03,-0.038,-0.042,0.349903908129454,-6.586903908129454,-6.684903908129454
1621786435093.246,-0.031,-0.04,-0.044,0.34371505303133465,-6.5807150530313345,-6.678715053031334
1621786435093.823,-0.030191188694929344,-0.04,-0.044,0.343,-6.58,-6.678
1621786435098.239,-0.024,-0.04,-0.044,0.343,-6.5693234452802205,-6.6727986015467735
1621786435103.232,-0.026,-0.042,-0.044,0.343,-6.557252115084831,-6.666917697092609
1621786435108.224,-0.024,-0.04,-0.044,0.343,-6.545182555658136,-6.66103765532063
1621786435109.954,-0.02469310901354722,-0.040693109013547224,-0.04503966352032083,0.343,-6.541,-6.659
1621786435113.216,-0.026,-0.042,-0.047,0.343,-6.541,-6.650910758612339
1621786435118.208,-0.03,-0.038,-0.044,0.343,-6.541,-6.638531391899255
1621786435123.199,-0.028,-0.047,-0.045,0.343,-6.541,-6.626154446933462
1621786435126.084,-0.033202416475077046,-0.04526586117497432,-0.045,0.343,-6.541,-6.619
1621786435128.19,-0.037,-0.044,-0.045,0.343,-6.5372130010899845,-6.621611723386217
1621786435133.18,-0.035,-0.049,-0.044,0.343,-6.528239841952283,-6.627800108998426
1621786435138.171,-0.04,-0.044,-0.042,0.343,-6.519264926728836,-6.633989705704251
1621786435142.211,-0.0432385146044327,-0.044,-0.04604814325554088,0.343,-6.512,-6.639
1621786435143.161,-0.044,-0.044,-0.047,0.3441784481192077,-6.513119525713247,-6.642476421951663
1621786435148.15,-0.052,-0.042,-0.044,0.35036749651705135,-6.518999121691198,-6.660734114725302
1621786435153.139,-0.052,-0.044,-0.038,0.3565565449148949,-6.52487871766915,-6.6789918074989405
1621786435158.128,-0.056,-0.04,-0.04,0.3627455933127385,-6.530758313647102,-6.697249500272579
1621786435158.333,-0.05583554402623465,-0.039876658019675985,-0.039876658019675985,0.363,-6.531,-6.698
1621786435163.116,-0.052,-0.037,-0.037,0.363,-6.525361789787788,-6.7211463366606585
1621786435168.105,-0.056,-0.035,-0.038,0.363,-6.519480679804299,-6.745289840803405
1621786435173.093,-0.054,-0.037,-0.037,0.363,-6.513600721004559,-6.769428619033914
1621786435174.451,-0.052638566603025405,-0.037,-0.037,0.363,-6.512,-6.776
1621786435178.08,-0.049,-0.037,-0.037,0.3672788643628706,-6.512,-6.776
1621786435183.067,-0.049,-0.031,-0.038,0.37315845289136,-6.512,-6.776
1621786435188.053,-0.049,-0.033,-0.037,0.37903717787507385,-6.512,-6.776
1621786435190.566,-0.049,-0.03148832427669261,-0.035992216184461745,0.382,-6.512,-6.776
1621786435193.04,-0.049,-0.03,-0.035,0.37601018444144707,-6.512,-6.764020368882894
1621786435198.025,-0.047,-0.042,-0.033,0.36394189412424416,-6.512,-6.7398837882484885
1621786435203.012,-0.049,-0.035,-0.035,0.3518682842550354,-6.512,-6.715736568510071
1621786435206.675,-0.050469611636221164,-0.033530388363778835,-0.032060776727557666,0.343,-6.512,-6.698
1621786435207.997,-0.051,-0.033,-0.031,0.33979896625943556,-6.508716888471215,-6.6996415557643925
1621786435212.982,-0.047,-0.03,-0.03,0.3277290296177282,-6.496337466274593,-6.705831266862703
1621786435217.966,-0.047,-0.03,-0.031,0.31566086640191593,-6.483959862976324,-6.712020068511838
1621786435222.782,-0.04893259527775057,-0.032898892916625844,-0.028101107083374155,0.304,-6.472,-6.718
1621786435222.95,-0.049,-0.033,-0.028,0.3033845034116755,-6.471801789234269,-6.718198210765731
1621786435227.934,-0.059,-0.033,-0.031,0.2851208946171342,-6.465920288097044,-6.724079711902957
1621786435232.917,-0.061,-0.035,-0.031,0.2668617589082638,-6.460040227445035,-6.729959772554966
1621786435237.901,-0.056,-0.033,-0.031,0.2485990447308567,-6.454159014404852,-6.735840985595148
1621786435238.883,-0.057379697222086135,-0.03398549801577581,-0.03080290039684484,0.245,-6.453,-6.737
1621786435242.884,-0.063,-0.038,-0.03,0.22561150631740207,-6.453,-6.732277161795265
1621786435247.867,-0.068,-0.037,-0.031,0.20146462103171595,-6.453,-6.726395228200033
1621786435252.849,-0.072,-0.04,-0.03,0.1773212850187323,-6.453,-6.72051415917123
1621786435254.979,-0.0724276051367513,-0.043848446230761694,-0.0312828154102539,0.167,-6.453,-6.718
1621786435257.83,-0.073,-0.049,-0.033,0.1530024882792942,-6.45991016401402,-6.718
1621786435262.812,-0.079,-0.051,-0.033,0.12854340074951828,-6.471984903427453,-6.718
1621786435267.792,-0.08,-0.052,-0.033,0.10409390219848579,-6.484054909041254,-6.718
1621786435271.07,-0.08,-0.05002563474169199,-0.03431624350553868,0.088,-6.492,-6.718
1621786435272.773,-0.08,-0.049,-0.035,0.09212784522003034,-6.48988315629742,-6.71588315629742
1621786435277.754,-0.075,-0.056,-0.037,0.1042018664643399,-6.483691350531108,-6.7096913505311075
1621786435282.734,-0.075,-0.052,-0.037,0.11627352048558422,-6.477500758725342,-6.703500758725342
1621786435287.159,-0.07855409578900927,-0.05377704789450463,-0.037,0.127,-6.472,-6.698
1621786435287.714,-0.079,-0.054,-0.037,0.127,-6.472,-6.698690251787097
1621786435292.693,-0.082,-0.058,-0.037,0.127,-6.472,-6.704880662933115
1621786435297.672,-0.082,-0.059,-0.033,0.127,-6.472,-6.7110710740791335
1621786435302.65,-0.08,-0.059,-0.044,0.127,-6.472,-6.717259967521134
1621786435303.245,-0.08071741049534085,-0.06007611574301128,-0.04292388425698872,0.127,-6.472,-6.718
1621786435307.628,-0.086,-0.068,-0.035,0.11637122557726465,-6.472,-6.728628774422735
1621786435312.607,-0.084,-0.059,-0.042,0.10429662522202486,-6.472,-6.740703374777975
1621786435317.584,-0.087,-0.065,-0.038,0.09222676139727648,-6.472,-6.752773238602723
1621786435319.327,-0.08664980869223976,-0.06289885215343863,-0.040101147846561366,0.088,-6.472,-6.757
1621786435322.561,-0.086,-0.059,-0.044,0.08417859528725859,-6.47602253127657,-6.757
1621786435327.538,-0.082,-0.07,-0.04,0.07829778027450504,-6.482212862868942,-6.757
1621786435332.514,-0.084,-0.065,-0.042,0.07241840762783919,-6.488401676181222,-6.757
1621786435335.407,-0.08516279069767442,-0.06674418604651162,-0.04490697674418605,0.069,-6.492,-6.757
1621786435337.49,-0.086,-0.068,-0.047,0.0664085379743952,-6.492,-6.757
1621786435342.466,-0.079,-0.072,-0.044,0.06021782313545036,-6.492,-6.757
1621786435347.442,-0.077,-0.072,-0.045,0.054027412030920166,-6.492,-6.757
1621786435351.483,-0.077,-0.07037550299342428,-0.04418775149671214,0.049,-6.492,-6.757
1621786435352.417,-0.077,-0.07,-0.044,0.0467336533057914,-6.4908377709260465,-6.753571424231838
1621786435357.392,-0.075,-0.075,-0.045,0.03466266194808548,-6.484647518947736,-6.735310180895822
1621786435362.366,-0.072,-0.077,-0.047,0.022594632360758822,-6.478458785826031,-6.717053418186789
1621786435367.34,-0.077,-0.079,-0.049,0.010526010419356309,-6.472269748933003,-6.69879575935236
1621786435367.557,-0.07721797830035838,-0.07873842603956993,-0.04908719132014336,0.01,-6.472,-6.698
1621786435372.313,-0.082,-0.073,-0.051,0.015623588933286742,-6.472,-6.692080432701804
1621786435377.287,-0.077,-0.07,-0.052,0.021504960573694526,-6.472,-6.685889515185584
1621786435382.26,-0.086,-0.077,-0.054,0.027384888861878794,-6.472,-6.679700116987496
1621786435383.626,-0.08407722519514949,-0.07754936422995728,-0.054,0.029,-6.472,-6.678
1621786435387.233,-0.079,-0.079,-0.054,0.024734081030971702,-6.472,-6.678
1621786435392.205,-0.084,-0.082,-0.054,0.018853499893620257,-6.472,-6.678
1621786435397.177,-0.087,-0.087,-0.056,0.012973207501291755,-6.472,-6.678
1621786435399.691,-0.087,-0.08194278277098374,-0.05701144344580325,0.01,-6.472,-6.678
1621786435402.148,-0.087,-0.077,-0.058,0.012906459948320414,-6.472,-6.678
1621786435407.119,-0.089,-0.084,-0.061,0.018786669706642348,-6.472,-6.678
1621786435412.09,-0.093,-0.077,-0.058,0.024667168262653902,-6.472,-6.678
1621786435415.753,-0.09521011539405844,-0.07921011539405844,-0.06021011539405843,0.029,-6.472,-6.678
1621786435417.062,-0.096,-0.08,-0.061,0.026635586777362164,-6.472,-6.679630629808716
1621786435422.031,-0.093,-0.084,-0.063,0.017660782167077213,-6.472,-6.685820150229602
1621786435427.001,-0.094,-0.079,-0.063,0.008684213727457958,-6.472,-6.692010887084512
1621786435431.809,-0.09109713555741168,-0.09351432221294158,-0.063,0.0,-6.472,-6.698
1621786435431.97,-0.091,-0.094,-0.063,-0.0010823486472923034,-6.471809586812051,-6.698200434934684
1621786435436.939,-0.094,-0.082,-0.065,-0.03451033350061591,-6.465928737624892,-6.704390802500114
1621786435441.908,-0.098,-0.082,-0.065,-0.0679383183539395,-6.4600478884377335,-6.710581170065544
1621786435446.876,-0.098,-0.086,-0.066,-0.10135973356448744,-6.4541681950210625,-6.71677032103046
1621786435447.863,-0.09899341490982358,-0.087390780873753,-0.06739078087375301,-0.108,-6.453,-6.718
1621786435451.844,-0.103,-0.093,-0.073,-0.11271207166648922,-6.443327852895101,-6.727672147104899
1621786435456.813,-0.11,-0.098,-0.073,-0.11859363640511643,-6.431255167378971,-6.739744832621028
1621786435461.78,-0.113,-0.096,-0.075,-0.1244728893215106,-6.419187227182162,-6.751812772817837
1621786435463.915,-0.11385967068075695,-0.09385082329810765,-0.07585967068075694,-0.127,-6.414,-6.757
1621786435466.747,-0.115,-0.091,-0.077,-0.11676262933657944,-6.4173536214242235,-6.739702373706634
1621786435471.713,-0.112,-0.099,-0.075,-0.09881192939744371,-6.4232340231284235,-6.709371880706025
1621786435476.68,-0.122,-0.101,-0.073,-0.08085681679853926,-6.429115870359099,-6.679033931832015
1621786435479.96,-0.12794439801386362,-0.09769755665896465,-0.073,-0.069,-6.433,-6.659
1621786435481.646,-0.131,-0.096,-0.073,-0.06279977478848378,-6.433,-6.656898228741858
1621786435486.612,-0.134,-0.098,-0.077,-0.04453757075902368,-6.433,-6.650707651104754
1621786435491.577,-0.143,-0.096,-0.075,-0.026279855742893668,-6.433,-6.644518595167082
1621786435496.004,-0.14924138270148005,-0.10669951320253725,-0.075,-0.01,-6.433,-6.639
1621786435496.542,-0.15,-0.108,-0.075,-0.009664494915667052,-6.4316915301711015,-6.6416504901662305
1621786435501.506,-0.162,-0.105,-0.07,-0.006569293064604518,-6.419620242951957,-6.666102584789624
1621786435506.47,-0.168,-0.091,-0.07,-0.00347424343907934,-6.407549549412409,-6.6905534768312735
1621786435511.434,-0.178,-0.087,-0.075,-0.0003790415880168055,-6.395478262193266,-6.715005571454667
1621786435512.042,-0.17824498229043684,-0.08687750885478157,-0.075,0.0,-6.394,-6.718
1621786435516.397,-0.18,-0.086,-0.075,0.03449029429228263,-6.404591507696056,-6.744614557800344
1621786435521.361,-0.182,-0.086,-0.08,0.07380474399768586,-6.4166644489441715,-6.7749516922186865
1621786435526.324,-0.185,-0.084,-0.077,0.11310952605697061,-6.428734421387573,-6.805281366563646
1621786435528.078,-0.1832326313717772,-0.08470694745128912,-0.07806042117693368,0.127,-6.433,-6.816
1621786435531.286,-0.18,-0.086,-0.08,0.15461344947310715,-6.4526095510751045,-6.831607601876104
1621786435536.248,-0.175,-0.08,-0.08,0.1973260339891576,-6.482941676311141,-6.855749497472132
1621786435541.21,-0.162,-0.07,-0.082,0.24003651702503503,-6.5132723091916915,-6.87989020527502
1621786435544.11,-0.15206186023622048,-0.06473863188976378,-0.08316919291338583,0.265,-6.531,-6.894
1621786435546.171,-0.145,-0.061,-0.084,0.265,-6.53228575780655,-6.902871728865194
1621786435551.132,-0.138,-0.058,-0.087,0.265,-6.535381111957349,-6.924229672505712
1621786435556.092,-0.115,-0.047,-0.084,0.265,-6.538475704493527,-6.945582361005331
1621786435560.138,-0.10766003937007874,-0.04455334645669291,-0.08970885826771653,0.265,-6.541,-6.963
1621786435561.053,-0.106,-0.044,-0.091,0.2694538155669648,-6.538202090220754,-6.9685958195584945
1621786435566.013,-0.093,-0.038,-0.094,0.293595682444888,-6.523036045643596,-6.998927908712808
1621786435570.973,-0.077,-0.033,-0.099,0.3177375493228112,-6.507870001066439,-7.029259997867122
1621786435575.932,-0.056,-0.037,-0.099,0.34187466292905133,-6.49270694251893,-7.0595861149621415
1621786435576.163,-0.0556736572638212,-0.03658041648205582,-0.09941958351794418,0.343,-6.492,-7.061
1621786435580.891,-0.049,-0.028,-0.108,0.3489026486634765,-6.480489835106221,-7.072510164893779
1621786435585.849,-0.037,-0.024,-0.106,0.35509241366698163,-6.468419793349386,-7.084580206650614
1621786435590.807,-0.021,-0.016,-0.113,0.3612818738760706,-6.4563503459416625,-7.0966496540583375
1621786435592.183,-0.01988997193915227,-0.0143349579087284,-0.11355501403042387,0.363,-6.453,-7.1
1621786435595.766,-0.017,-0.01,-0.115,0.3717233322664716,-6.448526496273605,-7.078079831740661
1621786435600.723,-0.014,-0.016,-0.117,0.3837913218417082,-6.442337783670919,-7.047755139987502
1621786435605.68,0.0,-0.017,-0.12,0.3958599058113484,-6.43614876625059,-7.017428954627894
1621786435608.202,0.002543833727344366,-0.014456166272655635,-0.12101753349093775,0.402,-6.433,-7.002
1621786435610.637,0.005,-0.012,-0.122,0.41537934819060396,-6.433,-6.988620651809396
1621786435615.593,0.005,-0.019,-0.122,0.4426102252980092,-6.433,-6.96138977470199
1621786435620.549,0.01,-0.005,-0.117,0.46984110240541443,-6.433,-6.934158897594585
1621786435624.218,0.0062992513790386135,-0.010181048069345942,-0.11329925137903861,0.49,-6.433,-6.914
1621786435625.506,0.005,-0.012,-0.112,0.4932178089502173,-6.4235074635968585,-6.917941815964016
1621786435630.461,0.005,-0.01,-0.108,0.505595639246779,-6.386992864222002,-6.933104658077304
1621786435635.416,0.005,-0.012,-0.108,0.5179740794388961,-6.350476465655257,-6.948268247312647
1621786435640.23,0.008886851961364083,-0.007141435048294895,-0.11188685196136408,0.53,-6.315,-6.963
1621786435640.37,0.009,-0.007,-0.112,0.5306827810226771,-6.315350144114194,-6.963341390511339
1621786435645.325,0.005,-0.003,-0.11,0.5548239671816144,-6.327730239580315,-6.975411983590807
1621786435650.279,0.007,-0.012,-0.101,0.5789615847986214,-6.340108505024935,-6.98748079239931
1621786435655.233,0.002,-0.003,-0.099,0.6030980129016515,-6.3524861604623855,-6.999549006450826
1621786435656.239,0.002,-0.00340625,-0.09839062500000001,0.608,-6.355,-7.002
1621786435660.186,0.002,-0.005,-0.096,0.6733525993044115,-6.350067728354384,-6.997067728354384
1621786435665.139,-0.005,-0.005,-0.101,0.7553596619683934,-6.343878516077857,-6.990878516077857
1621786435670.091,0.002,0.0,-0.098,0.8373545975959484,-6.337690219049362,-6.984690219049362
1621786435672.244,0.002,0.0008694966227875561,-0.09713050337721245,0.873,-6.335,-6.982
1621786435675.043,0.002,0.002,-0.096,0.903789794921875,-6.362465896606445,-6.956283523559571
1621786435679.995,0.002,0.003,-0.093,0.958263427734375,-6.411058853149414,-6.910785659790039
1621786435684.947,0.002,0.007,-0.091,1.012734375,-6.4596494140625,-6.8652900390625
1621786435688.244,0.0006681789042852213,0.016322747670003454,-0.08833635780857044,1.049,-6.492,-6.835
1621786435689.898,0.0,0.021,-0.087,1.055100808913309,-6.507200320512821,-6.835
1621786435694.849,0.005,0.026,-0.082,1.0733627136752137,-6.5527003205128205,-6.835
1621786435699.8,0.005,0.04,-0.082,1.091623717948718,-6.598198076923077,-6.835
1621786435704.24,0.009484833538840939,0.04807270036991369,-0.07751516646115907,1.108,-6.639,-6.835
1621786435704.75,0.01,0.049,-0.077,1.1073940582874067,-6.6433691586644885,-6.838125383570218
1621786435709.699,0.012,0.058,-0.079,1.1015141901897623,-6.685766102315925,-6.868453124284384
1621786435714.648,0.024,0.079,-0.079,1.0956343220921179,-6.72816304596736,-6.89878086499855
1621786435719.597,0.037,0.091,-0.079,1.0897544539944735,-6.770559989618796,-6.929108605712715
1621786435720.232,0.03943791623501554,0.09382285037738641,-0.0791283113807903,1.089,-6.776,-6.933
1621786435724.546,0.056,0.113,-0.08,1.0941266663612625,-6.791919648174447,-6.946221402721151
1621786435729.495,0.072,0.122,-0.08,1.1000082611816087,-6.810183547879732,-6.961389726205201
1621786435734.443,0.084,0.138,-0.08,1.105888405332356,-6.828442942874158,-6.976554308488708
1621786435736.22,0.08651374155030345,0.14554122465091035,-0.08251374155030344,1.108,-6.835,-6.982
1621786435739.391,0.091,0.159,-0.087,1.1333927758686522,-6.82726313860252,-6.982
1621786435744.338,0.093,0.173,-0.086,1.1730038640702558,-6.815194135166094,-6.982
1621786435749.285,0.112,0.194,-0.084,1.212616907216495,-6.803124536082475,-6.982
1621786435752.205,0.11377121279431364,0.20521768103065305,-0.07986717014660151,1.236,-6.796,-6.982
1621786435754.231,0.115,0.213,-0.077,1.2384085978795563,-6.781041339484861,-6.9757883528369335
1621786435759.178,0.115,0.232,-0.075,1.2442901860735127,-6.7445135812276575,-6.960620046441993
1621786435764.124,0.119,0.246,-0.073,1.2501706132176356,-6.707993033700999,-6.945454734333466
1621786435768.186,0.12146428042458651,0.25585712169834607,-0.07053571957541348,1.255,-6.678,-6.933
1621786435769.069,0.122,0.258,-0.07,1.2593663549402523,-6.674739051373735,-6.922167018122918
1621786435774.014,0.126,0.265,-0.075,1.2838164939946823,-6.65647882094068,-6.861505913633446
1621786435778.959,0.127,0.278,-0.077,1.308267840224932,-6.638217688945937,-6.800841814125485
1621786435783.903,0.133,0.274,-0.068,1.3327143577519025,-6.619960163197946,-6.740189694691483
1621786435784.163,0.13289481481481483,0.2743681481481482,-0.068,1.334,-6.619,-6.737
1621786435788.847,0.131,0.281,-0.068,1.351299897598924,-6.601993321004447,-6.653725916642467
1621786435793.791,0.127,0.284,-0.059,1.369561050910147,-6.5840416787662965,-6.56582477189014
1621786435798.735,0.126,0.286,-0.051,1.3878222042213697,-6.566090036528145,-6.477923627137814
1621786435800.137,0.12344749580163983,0.286,-0.04929833053442655,1.393,-6.561,-6.453
1621786435803.678,0.117,0.286,-0.045,1.3581863199253925,-6.565213120518583,-6.422399440443976
1621786435808.621,0.117,0.278,-0.04,1.3095878243055237,-6.571094467122261,-6.379682291427786
1621786435813.563,0.11,0.26,-0.031,1.2610013300921892,-6.576974361326423,-6.336975691418613
1621786435816.106,0.10639798438889438,0.2584562790238119,-0.03202914731745875,1.236,-6.58,-6.315
1621786435818.505,0.103,0.257,-0.033,1.2139116725031731,-6.600735980915388,-6.300274448335449
1621786435823.448,0.094,0.255,-0.033,1.1683974890278777,-6.643463581728931,-6.2699316593519185
1621786435828.389,0.084,0.244,-0.03,1.1229035370758338,-6.686172189683911,-6.239602358050556
1621786435832.071,0.07878363555511636,0.23654805079302338,-0.028509610158604676,1.089,-6.718,-6.217
1621786435833.33,0.077,0.234,-0.028,1.0781162598641951,-6.736533905303726,-6.224729032850064
1621786435838.27,0.068,0.222,-0.026,1.0354128280418424,-6.809253517464978,-6.255054658347097
1621786435843.21,0.07,0.213,-0.03,0.9927093962194897,-6.881973129626231,-6.28538028384413
1621786435848.035,0.07683705643965602,0.20127933181773255,-0.032930167045566866,0.951,-6.953,-6.315
1621786435848.15,0.077,0.201,-0.033,0.9500130618987167,-6.953778024196632,-6.3164191737660795
1621786435853.089,0.082,0.185,-0.038,0.9076208225631299,-6.987196723818847,-6.377377357336229
1621786435858.03,0.091,0.176,-0.044,0.8652139153576727,-7.020626986433368,-6.438356632660865
1621786435862.968,0.105,0.168,-0.056,0.8228321530719933,-7.054037426775363,-6.499299750692097
1621786435863.997,0.10520839513497478,0.16612444378522695,-0.05933432215959656,0.814,-7.061,-6.512
1621786435867.906,0.106,0.159,-0.072,0.8331062052505966,-7.056100973012668,-6.519103589131632
1621786435872.844,0.117,0.15,-0.08,0.8572422434367541,-7.049912245272627,-6.528077244354691
1621786435877.782,0.124,0.145,-0.084,0.8813782816229117,-7.043723517532587,-6.53705089957775
1621786435879.955,0.12796147759865492,0.145,-0.08796147759865493,0.892,-7.041,-6.541
1621786435882.719,0.133,0.145,-0.093,0.9328856718747609,-7.018997964711463,-6.512068189817437
1621786435887.656,0.131,0.15,-0.099,1.0059172111956172,-6.97969709397524,-6.460389092077678
1621786435892.593,0.12,0.157,-0.098,1.0789487505164734,-6.940396223239016,-6.408709994337919
1621786435895.909,0.11798546425393058,0.15364244042321765,-0.09665697616928706,1.128,-6.914,-6.374
1621786435897.531,0.117,0.152,-0.096,1.1649207170521867,-6.898031535600018,-6.3679991121044655
1621786435902.466,0.108,0.159,-0.091,1.277249942592961,-6.8494483719363775,-6.349741744867811
1621786435907.402,0.099,0.176,-0.091,1.3896013961391853,-6.800855594507294,-6.3314807648148435
1621786435911.857,0.09358358482164944,0.18683283035670112,-0.08016716964329887,1.491,-6.757,-6.315
1621786435912.337,0.093,0.188,-0.079,1.4954241997458784,-6.751672902346799,-6.311478698161444
1621786435917.272,0.087,0.194,-0.063,1.540912894386357,-6.696900800636835,-6.275273410590451
1621786435922.207,0.082,0.204,-0.056,1.586401589026836,-6.642128698926871,-6.239068123019457
1621786435927.142,0.07,0.213,-0.049,1.6318902836673146,-6.587356597216907,-6.202862835448464
1621786435927.805,0.06758129175946548,0.2136718634001485,-0.04805939123979213,1.638,-6.58,-6.198
1621786435932.075,0.052,0.218,-0.042,1.7009473926028025,-6.5958038134619805,-6.198
1621786435937.009,0.03,0.223,-0.023,1.7736842024657324,-6.614065395512673,-6.198
1621786435941.942,0.012,0.234,-0.009,1.8464030170763457,-6.632322459606402,-6.198
1621786435943.746,0.00761120459269524,0.24168039196278335,-0.005708403444521429,1.873,-6.639,-6.198
1621786435946.875,0.0,0.255,0.0,1.8806563830764988,-6.665895499525138,-6.248060966269416
1621786435951.807,-0.012,0.272,0.014,1.8927246254710333,-6.708289068962348,-6.326968705002911
1621786435956.739,-0.017,0.284,0.024,1.9047934652737355,-6.750684736987225,-6.405880349866733
1621786435959.684,-0.018194001781649014,0.2989250222706127,0.0317610115807186,1.912,-6.776,-6.453
1621786435961.672,-0.019,0.309,0.037,1.8997727112541178,-6.801702260016854,-6.490929548762737
1621786435966.603,-0.016,0.304,0.052,1.8694454914579024,-6.865451313874205,-6.585005822416303
1621786435971.534,-0.014,0.318,0.063,1.839118271661687,-6.929200367731556,-6.679082096069869
1621786435975.618,-0.0024051886325378753,0.31882820081196156,0.07045380730765421,1.814,-6.982,-6.757
1621786435976.465,0.0,0.319,0.072,1.8056507279693488,-6.987211647509579,-6.763222068965517
1621786435981.395,0.014,0.325,0.073,1.7570637394636015,-7.017539831417625,-6.7994302068965515
1621786435986.325,0.03,0.321,0.084,1.7084767509578545,-7.047868015325671,-6.8356383448275855
1621786435991.256,0.051,0.328,0.087,1.6598777318007663,-7.078203708812261,-6.871855448275862
1621786435991.548,0.05212556342562782,0.3272891178364456,0.0871184803605924,1.657,-7.08,-6.874
1621786435996.185,0.07,0.316,0.089,1.5970291534464525,-7.043027681979123,-6.7942329516714945
1621786436001.114,0.098,0.309,0.094,1.5332819086157479,-7.00372719608835,-6.709442926993761
1621786436006.042,0.113,0.298,0.094,1.4695472938796157,-6.96443449671219,-6.624669701568032
1621786436007.476,0.11416403269754768,0.2950899182561308,0.09458201634877385,1.451,-6.953,-6.6
1621786436010.97,0.117,0.288,0.096,1.4253255182777234,-6.884095835377821,-6.48808559249264
1621786436015.898,0.113,0.284,0.101,1.3891128557409225,-6.786909715407262,-6.330235525024533
1621786436020.827,0.108,0.274,0.098,1.3528930170510305,-6.689704336359176,-6.172354176889106
1621786436023.398,0.10069441553936871,0.26930355284673707,0.098,1.334,-6.639,-6.09
1621786436025.754,0.094,0.265,0.098,1.3122461009983286,-6.599783787513994,-6.040720759404376
1621786436030.681,0.066,0.25,0.096,1.2667522734591852,-6.517771105215537,-5.937663313346317
1621786436035.607,0.044,0.241,0.091,1.2212674630802498,-6.4357746783419465,-5.834626293916483
1621786436039.318,0.019891757942211426,0.2319594092283293,0.08723308717847053,1.187,-6.374,-5.757
1621786436040.533,0.012,0.229,0.086,1.1750162599131782,-6.363542851007041,-5.747229816999279
1621786436045.459,-0.014,0.225,0.082,1.1264238315104846,-6.321140540872206,-5.707613060084981
1621786436050.384,-0.054,0.208,0.07,1.077841036339372,-6.278746636805694,-5.668004157015538
1621786436055.234,-0.08353025122640108,0.19421921609434617,0.06310960804717308,1.03,-6.237,-5.629
1621786436055.311,-0.084,0.194,0.063,1.0291418313489629,-6.237475144224868,-5.6298096845464585
1621786436060.236,-0.119,0.187,0.052,0.9743575395851234,-6.26780768994722,-5.681498818583528
1621786436065.16,-0.147,0.178,0.04,0.9195868264391801,-6.298132717564748,-5.733175141156254
1621786436070.084,-0.171,0.168,0.024,0.8648133975696575,-6.328459248803241,-5.784854026021849
1621786436071.146,-0.1735881302989737,0.16519619217611187,0.021411869701026327,0.853,-6.335,-5.796
1621786436075.008,-0.183,0.155,0.012,0.8267802605933179,-6.363647493055449,-5.838728464218297
1621786436079.931,-0.195,0.138,0.002,0.7933587532037017,-6.400163584462622,-5.893193142927301
1621786436084.853,-0.204,0.124,-0.014,0.7599422182660875,-6.436674243005571,-5.947649718381191
1621786436087.054,-0.20623541955961117,0.11774082523308867,-0.01936500694306685,0.745,-6.453,-5.972
1621786436089.776,-0.209,0.11,-0.026,0.7634883688792666,-6.4848410797365155,-5.978676355428624
1621786436094.698,-0.204,0.094,-0.042,0.7969213229536137,-6.542420056197891,-5.990749366622139
1621786436099.619,-0.209,0.068,-0.042,0.8303459855359528,-6.599984752867474,-6.002819383665761
1621786436102.954,-0.209,0.059867242149129335,-0.050132757850870666,0.853,-6.639,-6.011
1621786436104.54,-0.209,0.056,-0.054,0.8627762216284284,-6.6468808317208765,-6.018880831720876
1621786436109.46,-0.197,0.035,-0.065,0.8931041801038115,-6.671328879879603,-6.043328879879603
1621786436114.38,-0.195,0.019,-0.07,0.9234321385791947,-6.69577692803833,-6.06777692803833
1621786436118.852,-0.18409047595414163,0.001726586927390937,-0.07818214303439378,0.951,-6.718,-6.09
1621786436119.299,-0.183,0.0,-0.079,0.9548817998863165,-6.718,-6.088340389903676
1621786436124.219,-0.171,-0.019,-0.087,0.9976049191157267,-6.718,-6.070074708494
1621786436129.137,-0.159,-0.038,-0.096,1.0403110779960978,-6.718,-6.051816278248045
1621786436134.055,-0.157,-0.056,-0.096,1.083017236876469,-6.718,-6.033557848002089
1621786436134.744,-0.15657972597299444,-0.05796127879269262,-0.09670045671167593,1.089,-6.718,-6.031
1621786436138.973,-0.154,-0.07,-0.101,1.133181985802526,-6.718,-6.010239789803633
1621786436143.89,-0.148,-0.086,-0.106,1.184551642543253,-6.718,-5.98610224025076
1621786436148.806,-0.143,-0.101,-0.11,1.2359110967702283,-6.718,-5.961969484650134
1621786436150.633,-0.143,-0.10434438927507449,-0.10851360476663356,1.255,-6.718,-5.953
1621786436153.723,-0.143,-0.11,-0.106,1.2779553775919577,-6.72558694683124,-5.926153880443304
1621786436158.639,-0.145,-0.131,-0.113,1.3144779347341562,-6.737657961479933,-5.883441059378699
1621786436163.554,-0.145,-0.129,-0.113,1.3509932367001245,-6.749726578231397,-5.840736723181211
1621786436166.516,-0.14379465527518379,-0.13141068944963244,-0.11420534472481622,1.373,-6.757,-5.815
1621786436168.469,-0.143,-0.133,-0.115,1.3802566117227382,-6.776309966787625,-5.8054065133157025
1621786436173.383,-0.138,-0.148,-0.113,1.3985165293068453,-6.824899916969063,-5.781266283289256
1621786436178.298,-0.136,-0.164,-0.117,1.416780075650409,-6.873499523340919,-5.757121255919799
1621786436182.394,-0.136,-0.1731709486657059,-0.10699532872832082,1.432,-6.914,-5.737
1621786436183.211,-0.136,-0.175,-0.105,1.4289636089577948,-6.9160071059431525,-5.738029285099053
1621786436188.124,-0.131,-0.185,-0.108,1.4107017041958902,-6.928078534514581,-5.7442197612895285
1621786436193.036,-0.126,-0.209,-0.105,1.392444336778639,-6.940146963824289,-5.750408699397071
1621786436197.948,-0.122,-0.222,-0.11,1.3741860618924573,-6.952215992986342,-5.756597945121201
1621786436198.267,-0.12109055666003976,-0.22297440357852882,-0.1094153578528827,1.373,-6.953,-5.757
1621786436202.86,-0.108,-0.237,-0.101,1.373,-6.947210939303023,-5.773788276021232
1621786436207.771,-0.11,-0.257,-0.105,1.373,-6.941021232402493,-5.791738426032772
1621786436212.682,-0.099,-0.269,-0.105,1.373,-6.934831525501962,-5.809688576044311
1621786436214.135,-0.09959176774706702,-0.27195883873533505,-0.105,1.373,-6.933,-5.815
1621786436217.593,-0.101,-0.279,-0.105,1.4113665101962294,-6.924498330126972,-5.819359830704117
1621786436222.502,-0.105,-0.284,-0.103,1.4658310273181994,-6.912429488264717,-5.825548980377068
1621786436227.411,-0.11,-0.286,-0.098,1.5202955444401693,-6.900360646402462,-5.831738130050019
1621786436229.998,-0.1136890292420927,-0.2907430375969763,-0.09589198329023274,1.549,-6.894,-5.835
1621786436232.32,-0.117,-0.295,-0.094,1.511665789230627,-6.894,-5.823580123764662
1621786436237.228,-0.133,-0.295,-0.093,1.4327540408238661,-6.894,-5.7994424124873
1621786436242.137,-0.147,-0.309,-0.099,1.3538265909300822,-6.894,-5.775299898402142
1621786436245.858,-0.1614076322205085,-0.3218910393551918,-0.099,1.294,-6.894,-5.757
1621786436247.044,-0.166,-0.326,-0.099,1.2712592159157403,-6.907913769209449,-5.754755843675895
1621786436251.951,-0.183,-0.335,-0.112,1.1771737858396722,-6.9654791968217795,-5.74547109728681
1621786436256.858,-0.192,-0.346,-0.119,1.0830883557636044,-7.02304462443411,-5.736186350897724
1621786436261.713,-0.1989285749838236,-0.35787755711512614,-0.1269183714100841,0.99,-7.08,-5.727
1621786436261.763,-0.199,-0.358,-0.127,0.9899400049289917,-7.0804357536736395,-5.727959921136133
1621786436266.669,-0.206,-0.372,-0.14,0.9840590246757648,-7.123150241828656,-5.822055605187764
1621786436271.574,-0.197,-0.377,-0.148,0.9781792150580697,-7.165856227472967,-5.916132559070885
1621786436276.479,-0.182,-0.382,-0.159,0.9722994054403746,-7.208562213117279,-6.010209512954006
1621786436277.563,-0.17956906077348067,-0.3866408839779006,-0.1620939226519337,0.971,-7.218,-6.031
1621786436281.384,-0.171,-0.403,-0.173,0.9946343436522489,-7.251039847758756,-6.050052174984976
1621786436286.287,-0.159,-0.403,-0.188,1.0249613849638657,-7.293435813673976,-6.0744994837974025
1621786436291.19,-0.147,-0.408,-0.194,1.0552869161902707,-7.335829668551705,-6.098945575296239
1621786436293.407,-0.13976522431907584,-0.41387825524075084,-0.1962608674002888,1.069,-7.355,-6.11
1621786436296.093,-0.131,-0.421,-0.199,1.095624443177089,-7.363309539590302,-6.086597623194661
1621786436300.996,-0.108,-0.436,-0.208,1.1442245788183794,-7.37847773479045,-6.043879032630979
1621786436305.898,-0.094,-0.449,-0.209,1.192812614640011,-7.3936421536137615,-6.00117107757757
1621786436309.246,-0.08238896359380447,-0.4544640171323273,-0.2137810149907864,1.226,-7.404,-5.972
1621786436310.8,-0.077,-0.457,-0.216,1.2288460743801652,-7.389573347107438,-5.942165289256199
1621786436315.7,-0.061,-0.463,-0.218,1.237820263352658,-7.344083492660664,-5.848091032441101
1621786436320.601,-0.056,-0.478,-0.227,1.2467966880473664,-7.298582305415073,-5.753993339089676
1621786436325.08,-0.045944892874937714,-0.4907974090682611,-0.22882820129546588,1.255,-7.257,-5.668
1621786436325.501,-0.045,-0.492,-0.229,1.2521283949474853,-7.254899474081957,-5.660182852912599
1621786436330.4,-0.051,-0.503,-0.236,1.218705177439504,-7.230451009423341,-5.569197427474205
1621786436335.299,-0.056,-0.517,-0.236,1.185280294267339,-7.2060013263622205,-5.478207467727756
1621786436340.199,-0.065,-0.534,-0.236,1.1518504141026233,-7.181547988093586,-5.387203905057142
1621786436340.91,-0.0670321004884857,-0.5366127006280531,-0.23643545010467548,1.147,-7.178,-5.374
1621786436345.097,-0.079,-0.552,-0.239,1.1366826988338372,-7.209216449682236,-5.3454290121552415
1621786436349.995,-0.096,-0.572,-0.244,1.1246129604491888,-7.245735145307584,-5.312005121243907
1621786436354.892,-0.113,-0.581,-0.246,1.1125462300240638,-7.282244739927192,-5.278589560066638
1621786436356.737,-0.11978163326353575,-0.588911905474125,-0.24788378701764882,1.108,-7.296,-5.266
1621786436359.789,-0.131,-0.602,-0.251,1.1307631128188511,-7.331880838850053,-5.328502106383963
1621786436364.685,-0.145,-0.623,-0.253,1.1672795086647223,-7.389440581454562,-5.428767464469238
1621786436369.582,-0.162,-0.639,-0.26,1.2038031881240066,-7.447011805009027,-5.529052821628628
1621786436372.558,-0.17051172069825435,-0.6432558603491272,-0.26851172069825435,1.226,-7.482,-5.59
1621786436374.477,-0.176,-0.646,-0.274,1.324756521470688,-7.516576914765536,-5.77077053684438
1621786436379.372,-0.188,-0.637,-0.286,1.5766736023214891,-7.604778841107647,-6.231896397369802
1621786436384.266,-0.218,-0.625,-0.295,1.8285404254005495,-7.692963171055475,-6.69293026271108
1621786436388.375,-0.2373110501371913,-0.5922551758543277,-0.3025564978797705,2.04,-7.767,-7.08
1621786436389.16,-0.241,-0.586,-0.304,2.019548219744928,-7.771864743847081,-7.206582620510762
1621786436394.054,-0.262,-0.545,-0.298,1.8920283482073927,-7.802197140474941,-7.995843961337739
1621786436398.947,-0.286,-0.49,-0.309,1.7645339221196306,-7.83252348454436,-8.784947812123646
1621786436403.84,-0.309,-0.424,-0.33,1.6370394960318686,-7.862849828613779,-9.574051662909552
1621786436404.187,-0.3102056196037331,-0.4173336327793582,-0.33170205120527024,1.628,-7.865,-9.63
1621786436408.732,-0.326,-0.33,-0.354,1.8140536014952808,-8.07089548480776,-10.010734108778598
1621786436413.624,-0.291,-0.232,-0.363,2.014319075644531,-8.292518482475245,-10.420550936867635
1621786436418.515,-0.209,-0.129,-0.363,2.214534578370947,-8.514086179464602,-10.830265505043485
1621786436419.992,-0.17064769891184983,-0.10906888289907157,-0.36420794649096533,2.275,-8.581,-10.954
1621786436423.406,-0.082,-0.063,-0.367,2.3089223435979047,-8.595692480029665,-10.945573430571221
1621786436428.297,0.072,-0.009,-0.375,2.357520758331917,-8.616741474946307,-10.933501212898442
1621786436433.187,0.236,0.028,-0.375,2.406107044081519,-8.637785216544861,-10.921432008158094
1621786436435.793,0.3223514606741573,0.033330337078651684,-0.3734008988764045,2.432,-8.649,-10.915
1621786436438.076,0.398,0.038,-0.372,2.398036305466685,-8.384083182640143,-10.648493392683266
1621786436442.965,0.52,0.023,-0.375,2.32530002627471,-7.816740204942736,-10.07774573808751
1621786436447.854,0.609,-0.005,-0.372,2.252567379174974,-7.2494255575647975,-9.507026583824052
1621786436451.589,0.6426224963788023,-0.0516130063433395,-0.3666509664851905,2.197,-6.816,-9.071
1621786436452.742,0.653,-0.066,-0.365,2.177657113708032,-6.706438972361343,-8.92282619180115
1621786436457.629,0.641,-0.134,-0.346,2.0956608081370187,-6.241999520806282,-8.294703549125085
1621786436462.517,0.592,-0.192,-0.323,2.0136440208990294,-5.777444057997898,-7.666424009151054
1621786436467.383,0.5103523005445372,-0.24775940450616976,-0.29810740870260277,1.932,-5.315,-7.041
1621786436467.404,0.51,-0.248,-0.298,1.930160648284181,-5.314166107356603,-7.040217976277006
1621786436472.29,0.41,-0.309,-0.274,1.5021263937645948,-5.120111532097181,-6.858233781296878
1621786436477.176,0.297,-0.368,-0.255,1.0740921392450087,-4.926056956837759,-6.67624958631675
1621786436482.061,0.178,-0.417,-0.244,0.6461434359680187,-4.732041167282681,-6.4943017645330405
1621786436483.17,0.15303023639362287,-0.42698790544255083,-0.24445399570193413,0.549,-4.688,-6.453
1621786436486.946,0.068,-0.461,-0.246,0.24873726545702046,-4.673884062678856,-6.603011740684023
1621786436491.831,-0.016,-0.513,-0.251,-0.139699862329265,-4.655622874998066,-6.797075548749362
1621786436496.715,-0.075,-0.548,-0.269,-0.5280593376336101,-4.637365337912045,-6.991100561510975
1621786436498.953,-0.0855409,-0.5631239,-0.2777077,-0.706,-4.629,-7.08
1621786436501.598,-0.098,-0.581,-0.288,-0.786634316926362,-4.648613752765872,-7.170525012765562
1621786436506.481,-0.094,-0.618,-0.305,-0.9354959537035604,-4.684823340090055,-7.337646185031025
1621786436511.363,-0.075,-0.635,-0.326,-1.0843278196419455,-4.7210256858588515,-7.504733934733161
1621786436514.731,-0.04878556783517528,-0.6522463369505426,-0.33565794869230386,-1.187,-4.746,-7.62
1621786436516.245,-0.037,-0.66,-0.34,-1.146489149614587,-4.759247624059685,-7.6067523759403155
1621786436521.128,-0.005,-0.675,-0.351,-1.0158511283781693,-4.801968114416618,-7.564031885583383
1621786436526.009,0.035,-0.689,-0.354,-0.8852588304491844,-4.844673652601926,-7.521326347398075
1621786436530.504,0.06263307984790875,-0.6972899239543726,-0.3622899239543726,-0.765,-4.884,-7.482
1621786436530.889,0.065,-0.698,-0.363,-0.7503995045672704,-4.8777740362285185,-7.478410915002322
1621786436535.77,0.096,-0.703,-0.368,-0.565296330701347,-4.798842080817464,-7.43290896423595
1621786436540.649,0.103,-0.698,-0.368,-0.3802764824276204,-4.71994565722248,-7.387427496516489
1621786436545.529,0.091,-0.691,-0.363,-0.19521034215822886,-4.641029493729679,-7.341934649326521
1621786436546.273,0.08642584067253803,-0.688865392313851,-0.36086539231385106,-0.167,-4.629,-7.335
1621786436550.408,0.061,-0.677,-0.349,0.0567179999380594,-4.685388475951562,-7.252908869893772
1621786436555.286,0.026,-0.663,-0.323,0.32063047787172105,-4.751908033695686,-7.156068769550002
1621786436560.164,-0.014,-0.628,-0.279,0.5845561646381121,-4.818430920747004,-7.059223822354363
1621786436562.039,-0.030912912912912913,-0.6064744744744744,-0.2601651651651652,0.686,-4.844,-7.022
1621786436565.042,-0.058,-0.572,-0.23,0.7515461403807724,-4.9636598144160615,-7.008852663702694
1621786436569.918,-0.103,-0.518,-0.171,0.8579760197047388,-5.157956222019116,-6.987504810001084
1621786436574.795,-0.14,-0.48,-0.108,0.9644272148467152,-5.352291543382957,-6.9661526807429555
1621786436577.799,-0.16033171440016022,-0.43995268375726015,-0.07596214700580814,1.03,-5.472,-6.953
1621786436579.671,-0.173,-0.415,-0.056,0.9938797421274486,-5.545428682122489,-7.032250697371684
1621786436584.547,-0.175,-0.358,-0.007,0.8997842796925366,-5.736714852467146,-7.23870357054302
1621786436589.423,-0.143,-0.325,0.042,0.805693528390776,-5.927991445574015,-7.44514610711629
1621786436593.553,-0.11080164295732317,-0.30720617110799436,0.06826708074534162,0.726,-6.09,-7.62
1621786436594.297,-0.105,-0.304,0.073,0.7194807191568505,-6.116880223186609,-7.627842033477991
1621786436599.171,-0.056,-0.281,0.106,0.6767824240545567,-6.29293333849969,-7.6792037507749535
1621786436604.045,-0.003,-0.269,0.129,0.6340819900805952,-6.468995272783633,-7.730568040917545
1621786436608.919,0.047,-0.26,0.161,0.5913815561066336,-6.645057207067576,-7.781932331060136
1621786436609.305,0.0511188376753507,-0.259049498997996,0.16274258517034068,0.588,-6.659,-7.786
1621786436613.792,0.099,-0.248,0.183,0.6581009985115356,-6.642187158893575,-7.791699268171669
1621786436618.664,0.136,-0.239,0.216,0.7342169746961051,-6.623931701190771,-7.797887558918382
1621786436623.536,0.175,-0.232,0.232,0.8103291366906474,-6.605677158273381,-7.804075539568346
1621786436625.051,0.1840203488372093,-0.2310668604651163,0.2407093023255814,0.834,-6.6,-7.806
1621786436628.407,0.204,-0.229,0.26,0.9092592167506786,-6.556081023652578,-7.831157471888329
1621786436633.278,0.237,-0.209,0.288,1.0184962233423809,-6.492333648701047,-7.867672958511051
1621786436638.15,0.272,-0.197,0.318,1.127749654905002,-6.428576688639008,-7.904193935633967
1621786436640.792,0.2937004210948466,-0.18560727892520554,0.32993523160216565,1.187,-6.394,-7.924
1621786436643.02,0.312,-0.176,0.34,1.2021507656979722,-6.350954833904827,-7.878122915082776
1621786436647.889,0.354,-0.162,0.356,1.2352596546213404,-6.256888457898248,-7.777867961707344
1621786436652.758,0.403,-0.141,0.374,1.2683702037206561,-6.162817365130099,-7.677607981257079
1621786436656.527,0.43396424810710527,-0.12629198214912501,0.39412676126961843,1.294,-6.09,-7.6
1621786436657.627,0.443,-0.122,0.4,1.28784610608342,-6.053636081402027,-7.549230375188214
1621786436662.495,0.469,-0.098,0.415,1.2606077831762934,-5.892682355132643,-7.324514211204421
1621786436667.364,0.478,-0.068,0.429,1.2333653622266032,-5.731704413157201,-7.099764238369476
1621786436672.231,0.469,-0.04,0.436,1.2061338693904162,-5.570791046397914,-6.875104422470933
1621786436672.255,0.46897050413844993,-0.03982794080762478,0.43611306746927514,1.206,-5.57,-6.874
1621786436677.098,0.463,-0.005,0.459,1.1394762925011643,-5.470522418879057,-6.726169538891476
1621786436681.964,0.457,0.002,0.482,1.0726340009315323,-5.370568436578171,-6.577631113181183
1621786436686.83,0.44,0.023,0.497,1.005795062878435,-5.270619469026548,-6.429100139729855
1621786436687.98,0.4395272745521152,0.02961815627038691,0.5000727154112511,0.99,-5.247,-6.394
1621786436691.695,0.438,0.051,0.51,0.8578837772773161,-5.214384546089928,-6.2989897646967465
1621786436696.56,0.422,0.068,0.522,0.6848746447153841,-5.171673883668556,-6.174571748077969
1621786436701.426,0.391,0.075,0.529,0.5118307835676013,-5.128954647821698,-6.050128756697989
1621786436703.699,0.37324263414144454,0.08387868292927772,0.5322710937107865,0.431,-5.109,-5.992
1621786436706.29,0.353,0.094,0.536,0.3615822574380486,-5.11543062223258,-5.966112623320128
1621786436711.153,0.304,0.105,0.553,0.23129562650508817,-5.127499930086227,-5.917525922473394
1621786436716.016,0.25,0.103,0.562,0.10100899557212772,-5.139569237939874,-5.86893922162666
1621786436719.413,0.22904307661411788,0.10788994879003916,0.5654928205643137,0.01,-5.148,-5.835
1621786436720.879,0.22,0.11,0.567,-0.04038478274383042,-5.163581960589296,-5.863364766581712
1621786436725.741,0.185,0.115,0.565,-0.20750885808416733,-5.215266628333437,-5.9574494312177535
1621786436730.603,0.155,0.127,0.56,-0.37463293342450427,-5.266951296077578,-6.051534095853795
1621786436735.123,0.13082907356264123,0.127,0.56,-0.53,-5.315,-6.139
1621786436735.465,0.129,0.127,0.56,-0.5366209212305875,-5.32183871469212,-6.149889673076625
1621786436740.326,0.105,0.126,0.557,-0.6307126711956099,-5.419025588011255,-6.304645840782253
1621786436745.186,0.093,0.14,0.552,-0.7247902435991108,-5.5161978174017126,-6.459378690130117
1621786436750.046,0.079,0.124,0.552,-0.8188630901487711,-5.6133651654826116,-6.614103766692058
1621786436750.828,0.07755162538310807,0.124,0.5510344169220721,-0.834,-5.629,-6.639
1621786436754.905,0.07,0.124,0.546,-0.8695772221185544,-5.718072899172731,-6.743394476581452
1621786436759.765,0.079,0.113,0.539,-0.9119844187348386,-5.824245661504012,-6.867830192200038
1621786436764.624,0.072,0.103,0.525,-0.9543852242333768,-5.930402422715681,-6.992247154319836
1621786436766.528,0.07513622197647532,0.10378405549411883,0.5238239167588218,-0.971,-5.972,-7.041
1621786436769.481,0.08,0.105,0.522,-0.9967756743303363,-6.014520455464643,-7.096314220825685
1621786436774.339,0.099,0.089,0.511,-1.0391824658557074,-6.084476184550291,-7.187318576361883
1621786436779.196,0.119,0.093,0.51,-1.0815786018728806,-6.154414335936285,-7.278300065333043
1621786436782.223,0.12959445058811703,0.09486960892731477,0.5031447672665125,-1.108,-6.198,-7.335
1621786436784.053,0.136,0.096,0.499,-1.0989022048640826,-6.220861126238972,-7.340715281559743
1621786436788.909,0.157,0.094,0.482,-1.074761977375636,-6.281521185056095,-7.355880296264024
1621786436793.766,0.188,0.103,0.464,-1.0506156814539345,-6.342196492756781,-7.371049123189195
1621786436797.913,0.20935421904857687,0.10470833752388614,0.46741667504777235,-1.03,-6.394,-7.384
1621786436798.621,0.213,0.105,0.468,-1.0197984278932213,-6.394902793991751,-7.369419877033232
1621786436803.476,0.239,0.122,0.464,-0.9498437855085999,-6.4010934703089735,-7.269440454510079
1621786436808.33,0.251,0.134,0.457,-0.879903214257919,-6.4072829013931045,-7.169481142501362
1621786436813.184,0.271,0.145,0.457,-0.809962643007238,-6.413472332477236,-7.069521830492645
1621786436813.598,0.271,0.14696121340175067,0.45717054029580445,-0.804,-6.414,-7.061
1621786436818.037,0.271,0.168,0.459,-0.7485174206806364,-6.352855932994987,-6.947204097518448
1621786436822.891,0.26,0.183,0.461,-0.6878506087118972,-6.28599863000903,-6.82277522807236
1621786436827.744,0.239,0.197,0.464,-0.627199053460784,-6.219158140548619,-6.698377650465486
1621786436829.28,0.2323501761449421,0.20206653246099648,0.4646333165576246,-0.608,-6.198,-6.659
1621786436832.595,0.218,0.213,0.466,-0.591505676774284,-6.162685231042378,-6.638276363126664
1621786436837.447,0.187,0.229,0.466,-0.5673630799420641,-6.11099531218365,-6.607943356850286
1621786436842.298,0.162,0.243,0.464,-0.5432253422417418,-6.059315796850909,-6.57761645563706
1621786436844.956,0.15049559704121168,0.2545044029587883,0.46509565742464654,-0.53,-6.031,-6.561
1621786436847.15,0.141,0.264,0.466,-0.5120795213760438,-6.065300916116166,-6.57738043749221
1621786436852.0,0.094,0.284,0.466,-0.47246142340770286,-6.1411324317586935,-6.613593855166396
1621786436856.85,0.061,0.305,0.471,-0.4328433254393619,-6.216963947401221,-6.649807272840583
1621786436860.626,0.042310910830270373,0.3213529530235134,0.47489356024369367,-0.402,-6.276,-6.678
1621786436861.699,0.037,0.326,0.476,-0.4093966839119866,-6.293464392569968,-6.7069018575079475
1621786436866.548,0.021,0.339,0.48,-0.44282397307236804,-6.372389936420869,-6.837515894782771
1621786436871.396,0.01,0.363,0.478,-0.4762428473477529,-6.451295611793305,-6.9680970516736265
1621786436876.244,0.026,0.375,0.473,-0.5096617216231378,-6.530201287165742,-7.098678208564483
1621786436876.293,0.026212559170107765,0.37507085305670257,0.4729089032128109,-0.51,-6.531,-7.1
1621786436881.092,0.047,0.382,0.464,-0.45883223704719744,-6.557962653532015,-7.154231700854168
1621786436885.939,0.077,0.398,0.464,-0.4071542801920319,-6.585194151755097,-7.209004146143775
1621786436890.786,0.098,0.422,0.476,-0.3554763233368664,-6.612425649978178,-7.263776591433381
1621786436891.956,0.10307068010075567,0.42248292191435766,0.4793804534005038,-0.343,-6.619,-7.277
1621786436895.632,0.119,0.424,0.49,-0.39136572016653415,-6.61453908406231,-7.168764092248678
1621786436900.477,0.138,0.415,0.497,-0.4551113346119662,-6.6086596341862744,-7.02611007157225
1621786436905.322,0.145,0.417,0.499,-0.5188569490573982,-6.60278018431024,-6.8834560508958225
1621786436907.613,0.14830938586326767,0.4193638470451912,0.5056187717265354,-0.549,-6.6,-6.816
1621786436910.168,0.152,0.422,0.513,-0.5393673281537645,-6.593632640644014,-6.74710190645574
1621786436915.012,0.154,0.428,0.522,-0.5211043714312459,-6.581560516708789,-6.616475334643827
1621786436919.856,0.148,0.443,0.534,-0.5028414147087272,-6.569488392773565,-6.485848762831914
1621786436923.262,0.14307702777637746,0.44792297222362254,0.537516408731159,-0.49,-6.561,-6.394
1621786436924.699,0.141,0.45,0.539,-0.4972557812938863,-6.5663270293043725,-6.379580282745062
1621786436929.542,0.134,0.456,0.543,-0.5217092188621539,-6.584280186000062,-6.330982944792934
1621786436934.384,0.134,0.475,0.548,-0.5461577255562837,-6.60222972256031,-6.282395406172955
1621786436938.908,0.13306588697887786,0.4890116953168322,0.5451976609366336,-0.569,-6.619,-6.237
1621786436939.227,0.133,0.49,0.545,-0.5702034990791897,-6.618612432499922,-6.235408933420732
1621786436944.068,0.133,0.503,0.545,-0.5884622467771639,-6.612732496800574,-6.211270250023411
1621786436948.909,0.134,0.52,0.536,-0.606720073664825,-6.606852857633361,-6.187132783968536
1621786436953.75,0.126,0.531,0.529,-0.6249788213627993,-6.600972921934013,-6.162994100571215
1621786436954.551,0.12715848675914249,0.5338134678436318,0.5270140226986129,-0.628,-6.6,-6.159
1621786436958.59,0.133,0.548,0.517,-0.628,-6.6,-6.110703514057792
1621786436963.429,0.134,0.565,0.508,-0.628,-6.6,-6.0528434831478215
1621786436968.269,0.134,0.564,0.499,-0.628,-6.6,-5.994968855862748
1621786436970.19,0.1308242179616549,0.5707485368314833,0.4970151362260343,-0.628,-6.6,-5.972
1621786436973.108,0.126,0.581,0.494,-0.6498384895288367,-6.588987428357253,-5.926269829619103
1621786436977.946,0.12,0.588,0.492,-0.6860477722424375,-6.570728046476035,-5.8504469726547255
1621786436982.784,0.105,0.597,0.485,-0.7222552277731794,-6.5524695859947215,-5.774627941842488
1621786436985.823,0.09369106142431737,0.6026544692878413,0.485,-0.745,-6.541,-5.727
1621786436987.621,0.087,0.606,0.485,-0.7574268841394826,-6.521784355080615,-5.727
1621786436992.458,0.065,0.616,0.471,-0.790855455568054,-6.470093878890139,-5.727
1621786436997.295,0.044,0.618,0.466,-0.8242840269966254,-6.418403402699663,-5.727
1621786437001.45,0.02853521126760563,0.6197183098591549,0.45998591549295775,-0.853,-6.374,-5.727
1621786437002.131,0.026,0.62,0.459,-0.8675630430705757,-6.368898574732762,-5.72913649434269
1621786437006.967,0.003,0.613,0.457,-0.9709554291429643,-6.332680283803213,-5.744304838407201
1621786437011.802,-0.019,0.607,0.445,-1.0743269363005563,-6.296469306745014,-5.759470119397387
1621786437016.636,-0.047,0.602,0.438,-1.177677564543352,-6.260265643558167,-5.774632337313246
1621786437017.072,-0.048427016229712856,0.6007513607990013,0.4371973033707865,-1.187,-6.257,-5.776
1621786437021.525,-0.063,0.588,0.429,-1.2603170308336507,-6.2350604339550815,-5.8523719071183855
1621786437026.512,-0.087,0.581,0.415,-1.3424293719071185,-6.210488937952037,-5.937905595736582
1621786437031.501,-0.113,0.581,0.408,-1.424573871336125,-6.18590781880472,-6.023472782641797
1621786437033.106,-0.12265297831726298,0.5764952767852772,0.4041388086730948,-1.451,-6.178,-6.051
1621786437036.489,-0.143,0.567,0.396,-1.4037709611451943,-6.215153510565781,-6.0982290388548055
1621786437041.476,-0.166,0.552,0.389,-1.3341492842535787,-6.269922563053852,-6.167850715746421
1621786437046.463,-0.194,0.545,0.384,-1.264531015678255,-6.324688934333106,-6.237468984321745
1621786437049.223,-0.20174807852352278,0.5411259607382386,0.3856603025407549,-1.226,-6.355,-6.276
1621786437051.45,-0.208,0.538,0.387,-1.209691710982834,-6.3834704028604765,-6.303088344469191
1621786437056.438,-0.208,0.52,0.384,-1.173165219762738,-6.447236989227763,-6.363759465478842
1621786437061.426,-0.215,0.504,0.377,-1.136638728542642,-6.511003575595049,-6.424430586488493
1621786437065.337,-0.2173526215303275,0.5032157928232242,0.37151054976256914,-1.108,-6.561,-6.472
1621786437066.413,-0.218,0.503,0.37,-1.090970897026073,-6.580633554016998,-6.491032526853213
1621786437071.4,-0.225,0.478,0.361,-1.012060629933189,-6.671612450194677,-6.579226354780554
1621786437076.387,-0.229,0.466,0.365,-0.9331464996136773,-6.762595800445408,-6.667424500431772
1621786437081.375,-0.216,0.454,0.372,-0.8542169163876558,-6.85359696698835,-6.755639916978502
1621786437081.452,-0.21567622730164945,0.4536453918065685,0.371938329009838,-0.853,-6.855,-6.757
1621786437086.363,-0.195,0.431,0.368,-0.8261835423862328,-6.96561788765679,-6.816727564685209
1621786437091.35,-0.164,0.414,0.367,-0.7989524934860328,-7.077945964370115,-6.877378537235654
1621786437096.337,-0.141,0.407,0.37,-0.7717227776767861,-7.190268542083258,-6.938026540628977
1621786437097.568,-0.13384050521368776,0.406506241738875,0.37,-0.765,-7.218,-6.953
1621786437101.324,-0.112,0.405,0.37,-0.7193127973574956,-7.284199824237098,-6.911741658838147
1621786437106.311,-0.073,0.401,0.374,-0.6586489590593654,-7.372100487893572,-6.856958498742387
1621786437111.298,-0.028,0.389,0.377,-0.5979851207612351,-7.460001151550046,-6.8021753386466255
1621786437113.681,-0.012234948604992656,0.3913886441507587,0.38034410181106215,-0.569,-7.502,-6.776
1621786437116.286,0.005,0.394,0.384,-0.5198555671711892,-7.524147326636668,-6.698403527112404
1621786437121.273,0.038,0.4,0.393,-0.42577184370407406,-7.566546899383361,-6.549850279532748
1621786437126.26,0.07,0.408,0.401,-0.3316881202369589,-7.608946472130055,-6.401297031953093
1621786437129.795,0.08842562772257843,0.41437810190396945,0.40596074592530956,-0.265,-7.639,-6.296
1621786437131.248,0.096,0.417,0.408,-0.24732516703786192,-7.637286623335303,-6.244688877778283
1621786437136.235,0.12,0.44,0.419,-0.1866659242761693,-7.631406390618609,-6.0685913822099
1621786437141.222,0.127,0.452,0.433,-0.12600965107646622,-7.625526445767616,-5.892502507461782
1621786437145.909,0.130758602124223,0.4736119622142822,0.44239650531055746,-0.069,-7.62,-5.727
1621786437146.21,0.131,0.475,0.443,-0.07083084592190791,-7.617795512053213,-5.718761193351415
1621786437151.197,0.133,0.496,0.454,-0.10116230548947712,-7.581273958696344,-5.582269625297353
1621786437156.184,0.134,0.522,0.466,-0.13149376505704632,-7.544752405339475,-5.445778057243292
1621786437161.171,0.127,0.557,0.471,-0.16182373975363262,-7.508232639888483,-5.309293171108653
1621786437162.022,0.12529343515934793,0.5626316639741519,0.4725359083565868,-0.167,-7.502,-5.286
1621786437166.158,0.117,0.59,0.48,-0.2550378619153675,-7.471712922139902,-5.205405572473978
1621786437171.145,0.112,0.628,0.485,-0.3611915367483296,-7.435193582109904,-5.108226989682287
1621786437176.133,0.091,0.649,0.492,-0.467365998515219,-7.398667090889808,-5.01102937745254
1621786437178.136,0.08256586870318697,0.6618520095951437,0.4911967494003035,-0.51,-7.384,-4.972
1621786437181.12,0.07,0.681,0.49,-0.6244465251579474,-7.367703407420875,-4.948295865339455
1621786437186.107,0.045,0.696,0.487,-0.8156994682059906,-7.340469978637335,-4.908683605290669
1621786437191.094,0.026,0.717,0.482,-1.006961774464797,-7.313235216581065,-4.869069405936094
1621786437194.25,0.010811866647084738,0.729656777794096,0.4718745777647232,-1.128,-7.296,-4.844
1621786437196.081,0.002,0.737,0.466,-1.16925562576715,-7.284862117561486,-4.85627440105469
1621786437201.068,-0.014,0.747,0.456,-1.28161944810656,-7.254526980951948,-4.889704959767241
1621786437206.056,-0.033,0.747,0.438,-1.3939997726962767,-7.224187389189435,-4.923140428240215
1621786437210.361,-0.04940532732703325,0.7452731234392597,0.42159467267296674,-1.491,-7.198,-4.952
1621786437211.042,-0.052,0.745,0.419,-1.4934509765299475,-7.198,-4.958634539917272
1621786437216.029,-0.065,0.747,0.4,-1.511402248518917,-7.198,-5.007226776163275
1621786437221.016,-0.079,0.745,0.386,-1.5293535205078865,-7.198,-5.055819012409279
1621786437226.003,-0.091,0.74,0.361,-1.547303913695662,-7.198,-5.104408869831361
1621786437226.474,-0.09128344837714789,0.7393386204533215,0.36024413766093893,-1.549,-7.198,-5.109
1621786437230.99,-0.094,0.733,0.353,-1.5106035485923814,-7.208930376678081,-5.147676717476287
1621786437235.978,-0.103,0.726,0.328,-1.468192460377587,-7.221003606169885,-5.19039737567805
1621786437240.965,-0.11,0.717,0.314,-1.4257896754447104,-7.233074471953696,-5.233109669989999
1621786437242.587,-0.112276559287183,0.7143982179575051,0.3100973269362577,-1.412,-7.237,-5.247
1621786437245.952,-0.117,0.709,0.302,-1.3280477279958787,-7.2676989651358355,-5.314454188699829
1621786437250.938,-0.134,0.707,0.298,-1.203651206836467,-7.313187245261292,-5.414404627342838
1621786437255.925,-0.166,0.71,0.311,-1.0792303216715404,-7.358684434612646,-5.514374642040031
1621786437258.7,-0.19604670289322956,0.7122256816957947,0.3321439761100504,-1.01,-7.384,-5.57
1621786437260.912,-0.22,0.714,0.349,-0.9413550205306142,-7.408300322732163,-5.821789784693708
1621786437265.9,-0.298,0.709,0.391,-0.786579948181033,-7.4630906983439145,-6.389504750071971
1621786437270.887,-0.379,0.688,0.422,-0.6318276034485371,-7.517873028379218,-6.9571363505507655
1621786437274.813,-0.443553874773584,0.6667444558672345,0.44325554413276547,-0.51,-7.561,-7.404
1621786437275.874,-0.461,0.661,0.449,-0.45896974379952427,-7.607486917261337,-7.575790888292956
1621786437280.86,-0.553,0.616,0.482,-0.21916511370695269,-7.825941199642441,-8.383081572049756
1621786437285.847,-0.627,0.555,0.517,0.02067474205717923,-8.044427571474024,-9.190490841325394
1621786437290.835,-0.648,0.483,0.56,0.2605733072739118,-8.262967425723073,-9.998097753132434
1621786437290.927,-0.6471879375336564,0.48168962647476377,0.5604798550937485,0.265,-8.267,-10.013
1621786437295.822,-0.604,0.412,0.586,-0.030018260065766522,-8.63949473413041,-10.635546256307679
1621786437300.808,-0.51,0.333,0.59,-0.3305248897576941,-9.018919170796018,-11.269674046460882
1621786437305.795,-0.361,0.272,0.593,-0.631075661832674,-9.39839934233456,-11.903894985679864
1621786437307.038,-0.31762564253194303,0.254550545846184,0.5922521662505507,-0.706,-9.493,-12.062
1621786437310.782,-0.187,0.202,0.59,-0.8700728336313763,-9.39492813627133,-12.155423908101719
1621786437315.77,0.003,0.122,0.588,-1.0886689903919011,-9.264265844269996,-12.279893674415785
1621786437320.755,0.19,0.052,0.576,-1.3071260570424028,-9.133686691116297,-12.404284242111963
1621786437323.148,0.27203915618422986,0.013619108217904158,0.5702428662326856,-1.412,-9.071,-12.464
1621786437325.743,0.361,-0.028,0.564,-1.5226399036349034,-8.720398733314141,-12.186031333808089
1621786437330.73,0.497,-0.103,0.539,-1.7352696252973532,-8.046607024348853,-11.651826239791513
1621786437335.716,0.604,-0.166,0.506,-1.9478577099653025,-7.372947256776618,-11.117725753420507
1621786437339.261,0.6587361206305689,-0.20296465289337118,0.47543307549201996,-2.099,-6.894,-10.738
1621786437340.703,0.681,-0.218,0.463,-1.9761428874445102,-6.766758329166856,-10.473852733966638
1621786437345.691,0.733,-0.237,0.426,-1.5511354938411892,-6.3265831553111225,-9.560071360392708
1621786437350.677,0.756,-0.229,0.424,-1.1262945169158978,-5.8865803372573975,-8.646647788736875
1621786437355.375,0.7522318500024477,-0.229,0.44189871248837326,-0.726,-5.472,-7.786
1621786437355.664,0.752,-0.229,0.443,-0.7064660717802657,-5.449309073280107,-7.744133894889935
1621786437360.651,0.73,-0.199,0.459,-0.36947281348947836,-5.057852258093838,-7.021872861969185
1621786437365.637,0.698,-0.166,0.469,-0.03252904994924777,-4.6664529368097325,-6.299717908706652
1621786437370.625,0.637,-0.119,0.485,0.3045466995924675,-4.274900298453194,-5.577280076355539
1621786437371.49,0.6248587164047584,-0.10963386694081362,0.4886423850785725,0.363,-4.207,-5.452
1621786437375.612,0.567,-0.065,0.506,0.7190827235125676,-3.9762624880687243,-5.1887750556792875
1621786437380.598,0.483,0.0,0.541,1.1497816917412844,-3.6971745072193687,-4.870391982182628
1621786437385.585,0.389,0.063,0.579,1.5805861097222853,-3.4180181961426,-4.551930957683742
1621786437387.604,0.34648176075992754,0.08405665181413113,0.5931727464133575,1.755,-3.305,-4.423
1621786437390.571,0.284,0.115,0.614,1.9393121221762646,-3.274250624971592,-4.394091904913413
1621786437395.558,0.176,0.175,0.642,2.249107540566338,-3.2225664742511704,-4.345502613517567
1621786437400.544,0.066,0.239,0.661,2.5588271290698907,-3.1708949744708574,-4.296925215520506
1621786437403.718,-0.005920154697214464,0.2720960003916385,0.6699104616439027,2.756,-3.138,-4.266
1621786437405.531,-0.047,0.291,0.675,2.8265480689101348,-3.239490204397036,-4.338798406036455
1621786437410.518,-0.164,0.337,0.688,3.0206075092046847,-3.518663434294459,-4.539047940120305
1621786437415.505,-0.272,0.389,0.703,3.2146574493552933,-3.797822997318141,-4.739287671025319
1621786437419.831,-0.35269137736865297,0.42891186407481763,0.7168823875042843,3.383,-4.04,-4.913
1621786437420.491,-0.365,0.435,0.719,3.3368491220628114,-4.07976264638599,-4.989290226794128
1621786437425.478,-0.447,0.457,0.712,2.9880796127683427,-4.38025527595558,-5.565827578893147
1621786437430.464,-0.511,0.473,0.686,2.6393783992606843,-4.680689063281167,-6.142252033875195
1621786437435.452,-0.548,0.476,0.639,2.290557668126108,-4.9812258245337615,-6.718874058811944
1621786437435.946,-0.5495856632228371,0.4768919355628458,0.6332519708172158,2.256,-5.011,-6.776
1621786437440.438,-0.564,0.485,0.581,1.7584434529671094,-5.374481085339434,-7.251814580271789
1621786437445.425,-0.553,0.478,0.51,1.2060445407305285,-5.778026285090975,-7.780075052645932
1621786437450.411,-0.51,0.452,0.435,0.6537808414259094,-6.18147270744012,-8.308206220552366
1621786437452.061,-0.48849243648112795,0.4496838008518138,0.4055511822587751,0.471,-6.315,-8.483
1621786437455.398,-0.445,0.445,0.346,0.15209449570474065,-6.585241352665788,-8.521517158310987
1621786437460.384,-0.365,0.419,0.262,-0.3244205111888854,-6.989041407208763,-8.579070269533204
1621786437465.371,-0.284,0.382,0.185,-0.8010288471736134,-7.392920549065952,-8.63663465297032
1621786437468.175,-0.2418212222113407,0.3606294192537459,0.14000930369209674,-1.069,-7.62,-8.669
1621786437470.357,-0.209,0.344,0.105,-1.2482843527932241,-7.630562069122259,-8.635824270064699
1621786437475.344,-0.129,0.321,0.01,-1.6580685616448734,-7.654703434900529,-8.559995621145776
1621786437480.331,-0.038,0.284,-0.075,-2.0678527704965224,-7.678844800678799,-8.484166972226852
1621786437484.288,0.022317696601704046,0.25146018999118597,-0.14404788953089806,-2.393,-7.698,-8.424
1621786437485.317,0.038,0.243,-0.162,-2.4293281365998514,-7.650435040831478,-8.390800296956199
1621786437490.304,0.101,0.202,-0.248,-2.6054256321682345,-7.419868021150554,-8.22986761207824
1621786437495.291,0.148,0.168,-0.337,-2.781523127736618,-7.18930100146963,-8.068934927200278
1621786437500.277,0.176,0.129,-0.435,-2.9575861400239383,-6.95877913125161,-7.908033756041392
1621786437500.402,0.1761754626456477,0.12852374424752766,-0.43725594830118475,-2.962,-6.953,-7.904
1621786437505.264,0.183,0.11,-0.525,-2.8702721294584688,-6.766526894754387,-7.726578987242037
1621786437510.25,0.175,0.08,-0.611,-2.7761997030213035,-6.575287554168308,-7.544623109791206
1621786437515.237,0.168,0.059,-0.677,-2.6821088517833873,-6.384010757901755,-7.362631594896815
1621786437516.515,0.16620595436294194,0.04926089511311331,-0.6926338262657918,-2.658,-6.335,-7.316
1621786437520.223,0.161,0.021,-0.738,-2.574459671187211,-6.251459671187211,-7.232459671187211
